acc_sum,block,block_c,change,condition,correct,correct_response,datetime,endtime,face,project,response,response_time,row_sel,session_number,start_end,starttime,subject_id,task,task_vers,trial
0,prac,1,,1-Back,,,Wed Mar 12 2025 12:16:54 GMT-0500 (Central Daylight Time),,124_o_f_d_a.png,O,space,9595,1,1,,,7079,VNB,A,0
1,prac,1,0.0,1-Back,1,m,Wed Mar 12 2025 12:16:54 GMT-0500 (Central Daylight Time),139278.0,071_y_f_n_a.png,O,m,1099,2,1,1904.0,137374.0,7079,VNB,A,1
2,prac,1,0.0,1-Back,1,m,Wed Mar 12 2025 12:16:54 GMT-0500 (Central Daylight Time),141295.5,165_m_m_h_a.png,O,m,1204,3,1,2007.2000000029802,139288.29999999702,7079,VNB,A,2
3,prac,1,0.0,1-Back,1,m,Wed Mar 12 2025 12:16:54 GMT-0500 (Central Daylight Time),143129.19999998808,109_y_m_d_a.png,O,m,1038,4,1,1824.0999999940395,141305.09999999404,7079,VNB,A,3
4,prac,1,0.0,1-Back,1,m,Wed Mar 12 2025 12:16:54 GMT-0500 (Central Daylight Time),144962.0,124_o_f_n_a.png,O,m,1007,5,1,1822.7000000029802,143139.29999999702,7079,VNB,A,4
5,prac,1,1.0,1-Back,1,z,Wed Mar 12 2025 12:16:54 GMT-0500 (Central Daylight Time),146828.69999998808,109_y_m_n_a.png,O,z,1060,6,1,1856.0,144972.69999998808,7079,VNB,A,5
6,prac,1,0.0,1-Back,1,m,Wed Mar 12 2025 12:16:54 GMT-0500 (Central Daylight Time),148660.0,039_o_m_h_a.png,O,m,1034,7,1,1821.4000000059605,146838.59999999404,7079,VNB,A,6
7,prac,1,0.0,1-Back,1,m,Wed Mar 12 2025 12:16:54 GMT-0500 (Central Daylight Time),150558.69999998808,139_m_f_d_a.png,O,m,1084,8,1,1888.0,148670.69999998808,7079,VNB,A,7
8,prac,1,1.0,1-Back,1,z,Wed Mar 12 2025 12:16:54 GMT-0500 (Central Daylight Time),152293.89999999106,071_y_f_d_a.png,O,z,948,9,1,1723.7000000029802,150570.19999998808,7079,VNB,A,8
9,prac,1,0.0,1-Back,1,m,Wed Mar 12 2025 12:16:54 GMT-0500 (Central Daylight Time),154074.5,165_m_m_n_a.png,O,m,972,10,1,1770.300000011921,152304.19999998808,7079,VNB,A,9
10,prac,1,0.0,1-Back,1,m,Wed Mar 12 2025 12:16:54 GMT-0500 (Central Daylight Time),155941.09999999404,124_o_f_h_a.png,O,m,1048,11,1,1856.0,154085.09999999404,7079,VNB,A,10
11,prac,1,0.0,1-Back,1,m,Wed Mar 12 2025 12:16:54 GMT-0500 (Central Daylight Time),157707.19999998808,109_y_m_d_a.png,O,m,986,12,1,1754.2999999970198,155952.89999999106,7079,VNB,A,11
0,test,1,0.0,1-Back,,,Wed Mar 12 2025 12:16:54 GMT-0500 (Central Daylight Time),157707.19999998808,071_y_f_d_a.png,O,space,9874,1,1,1754.2999999970198,155952.89999999106,7079,VNB,A,0
1,test,1,0.0,1-Back,1,m,Wed Mar 12 2025 12:16:54 GMT-0500 (Central Daylight Time),180349.0,139_m_f_n_a.png,O,m,912,2,1,1924.1000000089407,178424.89999999106,7079,VNB,A,1
2,test,1,0.0,1-Back,1,m,Wed Mar 12 2025 12:16:54 GMT-0500 (Central Daylight Time),182268.0,039_o_m_h_a.png,O,m,891,3,1,1908.4000000059605,180359.59999999404,7079,VNB,A,2
3,test,1,1.0,1-Back,1,z,Wed Mar 12 2025 12:16:54 GMT-0500 (Central Daylight Time),184099.0,165_m_m_h_a.png,O,z,806,4,1,1825.7000000029802,182273.29999999702,7079,VNB,A,3
4,test,1,0.0,1-Back,1,m,Wed Mar 12 2025 12:16:54 GMT-0500 (Central Daylight Time),185864.69999998808,124_o_f_n_a.png,O,m,732,5,1,1754.2999999970198,184110.39999999106,7079,VNB,A,4
5,test,1,0.0,1-Back,1,m,Wed Mar 12 2025 12:16:54 GMT-0500 (Central Daylight Time),187765.29999999702,109_y_m_d_a.png,O,m,874,6,1,1891.4000000059605,185873.89999999106,7079,VNB,A,5
6,test,1,1.0,1-Back,1,z,Wed Mar 12 2025 12:16:54 GMT-0500 (Central Daylight Time),189629.29999999702,139_m_f_d_a.png,O,z,845,7,1,1850.7999999970198,187778.5,7079,VNB,A,6
7,test,1,0.0,1-Back,1,m,Wed Mar 12 2025 12:16:54 GMT-0500 (Central Daylight Time),191512.89999999106,071_y_f_h_a.png,O,m,858,8,1,1871.5999999940395,189641.29999999702,7079,VNB,A,7
8,test,1,0.0,1-Back,1,m,Wed Mar 12 2025 12:16:54 GMT-0500 (Central Daylight Time),193528.69999998808,039_o_m_n_a.png,O,m,981,9,1,2005.699999988079,191523.0,7079,VNB,A,8
9,test,1,0.0,1-Back,1,m,Wed Mar 12 2025 12:16:54 GMT-0500 (Central Daylight Time),195659.29999999702,109_y_m_h_a.png,O,m,1103,10,1,2118.5,193540.79999999702,7079,VNB,A,9
10,test,1,0.0,1-Back,1,m,Wed Mar 12 2025 12:16:54 GMT-0500 (Central Daylight Time),197594.5,039_o_m_d_a.png,O,m,915,11,1,1926.5,195668.0,7079,VNB,A,10
11,test,1,1.0,1-Back,1,z,Wed Mar 12 2025 12:16:54 GMT-0500 (Central Daylight Time),199493.89999999106,124_o_f_d_a.png,O,z,878,12,1,1891.0999999940395,197602.79999999702,7079,VNB,A,11
12,test,1,0.0,1-Back,1,m,Wed Mar 12 2025 12:16:54 GMT-0500 (Central Daylight Time),201341.89999999106,165_m_m_n_a.png,O,m,819,13,1,1837.2999999970198,199504.59999999404,7079,VNB,A,12
13,test,1,1.0,1-Back,1,z,Wed Mar 12 2025 12:16:54 GMT-0500 (Central Daylight Time),203276.39999999106,071_y_f_n_a.png,O,z,916,14,1,1925.5999999940395,201350.79999999702,7079,VNB,A,13
14,test,1,0.0,1-Back,1,m,Wed Mar 12 2025 12:16:54 GMT-0500 (Central Daylight Time),205157.0,139_m_f_h_a.png,O,m,852,15,1,1870.0,203287.0,7079,VNB,A,14
15,test,1,0.0,1-Back,1,m,Wed Mar 12 2025 12:16:54 GMT-0500 (Central Daylight Time),207091.09999999404,165_m_m_d_a.png,O,m,899,16,1,1924.7000000029802,205166.39999999106,7079,VNB,A,15
16,test,1,0.0,1-Back,1,m,Wed Mar 12 2025 12:16:54 GMT-0500 (Central Daylight Time),209406.59999999404,109_y_m_n_a.png,O,m,1286,17,1,2304.2000000029802,207102.39999999106,7079,VNB,A,16
17,test,1,0.0,1-Back,1,m,Wed Mar 12 2025 12:16:54 GMT-0500 (Central Daylight Time),211605.89999999106,124_o_f_h_a.png,O,m,1181,18,1,2190.2000000029802,209415.69999998808,7079,VNB,A,17
0,test,2,0.0,1-Back,,,Wed Mar 12 2025 12:16:54 GMT-0500 (Central Daylight Time),211605.89999999106,109_y_m_n_a.png,O,space,2003,1,1,2190.2000000029802,209415.69999998808,7079,VNB,A,0
1,test,2,0.0,1-Back,1,m,Wed Mar 12 2025 12:16:54 GMT-0500 (Central Daylight Time),217404.59999999404,071_y_f_h_a.png,O,m,747,2,1,1757.0,215647.59999999404,7079,VNB,A,1
2,test,2,1.0,1-Back,1,m,Wed Mar 12 2025 12:16:54 GMT-0500 (Central Daylight Time),219253.29999999702,039_o_m_n_a.png,O,m,829,3,1,1838.2000000029802,217415.09999999404,7079,VNB,A,2
3,test,2,0.0,1-Back,1,m,Wed Mar 12 2025 12:16:54 GMT-0500 (Central Daylight Time),221138.0,139_m_f_d_a.png,O,m,865,4,1,1874.2000000029802,219263.79999999702,7079,VNB,A,3
4,test,2,0.0,1-Back,1,z,Wed Mar 12 2025 12:16:54 GMT-0500 (Central Daylight Time),222786.79999999702,165_m_m_d_a.png,O,z,617,5,1,1640.2999999970198,221146.5,7079,VNB,A,4
5,test,2,0.0,1-Back,1,m,Wed Mar 12 2025 12:16:54 GMT-0500 (Central Daylight Time),224685.19999998808,109_y_m_h_a.png,O,m,865,6,1,1888.5999999940395,222796.59999999404,7079,VNB,A,5
5,test,2,1.0,1-Back,0,z,Wed Mar 12 2025 12:16:54 GMT-0500 (Central Daylight Time),226801.29999999702,124_o_f_h_a.png,O,m,1092,7,1,2105.9000000059605,224695.39999999106,7079,VNB,A,6
6,test,2,0.0,1-Back,1,m,Wed Mar 12 2025 12:16:54 GMT-0500 (Central Daylight Time),228600.29999999702,139_m_f_n_a.png,O,m,775,8,1,1789.1000000089407,226811.19999998808,7079,VNB,A,7
7,test,2,0.0,1-Back,1,m,Wed Mar 12 2025 12:16:54 GMT-0500 (Central Daylight Time),230517.19999998808,071_y_f_d_a.png,O,m,887,9,1,1907.5999999940395,228609.59999999404,7079,VNB,A,8
8,test,2,0.0,1-Back,1,m,Wed Mar 12 2025 12:16:54 GMT-0500 (Central Daylight Time),232233.39999999106,165_m_m_n_a.png,O,m,683,10,1,1706.7999999970198,230526.59999999404,7079,VNB,A,9
8,test,2,1.0,1-Back,0,m,Wed Mar 12 2025 12:16:54 GMT-0500 (Central Daylight Time),234015.5,139_m_f_h_a.png,O,z,760,11,1,1772.300000011921,232243.19999998808,7079,VNB,A,10
9,test,2,0.0,1-Back,1,z,Wed Mar 12 2025 12:16:54 GMT-0500 (Central Daylight Time),236181.39999999106,039_o_m_h_a.png,O,z,1136,12,1,2155.7999999970198,234025.59999999404,7079,VNB,A,11
10,test,2,0.0,1-Back,1,m,Wed Mar 12 2025 12:16:54 GMT-0500 (Central Daylight Time),238014.69999998808,109_y_m_d_a.png,O,m,802,13,1,1824.5,236190.19999998808,7079,VNB,A,12
11,test,2,0.0,1-Back,1,m,Wed Mar 12 2025 12:16:54 GMT-0500 (Central Daylight Time),239997.09999999404,124_o_f_n_a.png,O,m,955,14,1,1972.5,238024.59999999404,7079,VNB,A,13
12,test,2,0.0,1-Back,1,z,Wed Mar 12 2025 12:16:54 GMT-0500 (Central Daylight Time),241829.5,071_y_f_n_a.png,O,z,803,15,1,1822.7000000029802,240006.79999999702,7079,VNB,A,14
13,test,2,1.0,1-Back,1,m,Wed Mar 12 2025 12:16:54 GMT-0500 (Central Daylight Time),243829.29999999702,165_m_m_h_a.png,O,m,970,16,1,1990.1000000089407,241839.19999998808,7079,VNB,A,15
14,test,2,0.0,1-Back,1,m,Wed Mar 12 2025 12:16:54 GMT-0500 (Central Daylight Time),245729.39999999106,124_o_f_d_a.png,O,m,867,17,1,1890.7000000029802,243838.69999998808,7079,VNB,A,16
14,test,2,1.0,1-Back,0,z,Wed Mar 12 2025 12:16:54 GMT-0500 (Central Daylight Time),247811.39999999106,039_o_m_d_a.png,O,m,1055,18,1,2071.7999999970198,245739.59999999404,7079,VNB,A,17
0,test,3,1.0,1-Back,,,Wed Mar 12 2025 12:16:54 GMT-0500 (Central Daylight Time),247811.39999999106,124_o_f_h_a.png,O,space,2557,1,1,2071.7999999970198,245739.59999999404,7079,VNB,A,0
1,test,3,0.0,1-Back,1,m,Wed Mar 12 2025 12:16:54 GMT-0500 (Central Daylight Time),254142.59999999404,139_m_f_d_a.png,O,m,694,2,1,1705.2999999970198,252437.29999999702,7079,VNB,A,1
2,test,3,1.0,1-Back,1,m,Wed Mar 12 2025 12:16:54 GMT-0500 (Central Daylight Time),256243.79999999702,165_m_m_n_a.png,O,m,1084,3,1,2092.1000000089407,254151.69999998808,7079,VNB,A,2
3,test,3,0.0,1-Back,1,z,Wed Mar 12 2025 12:16:54 GMT-0500 (Central Daylight Time),258424.19999998808,124_o_f_n_a.png,O,z,1158,4,1,2171.5,256252.69999998808,7079,VNB,A,3
4,test,3,1.0,1-Back,1,m,Wed Mar 12 2025 12:16:54 GMT-0500 (Central Daylight Time),260508.0,039_o_m_d_a.png,O,m,1054,5,1,2075.6000000089407,258432.39999999106,7079,VNB,A,4
4,test,3,0.0,1-Back,0,m,Wed Mar 12 2025 12:16:54 GMT-0500 (Central Daylight Time),262691.299999997,071_y_f_h_a.png,O,z,1158,6,1,2176.2999999970198,260515.0,7079,VNB,A,5
5,test,3,0.0,1-Back,1,z,Wed Mar 12 2025 12:16:54 GMT-0500 (Central Daylight Time),264605.89999999106,109_y_m_h_a.png,O,z,887,7,1,1904.7000000029802,262701.1999999881,7079,VNB,A,6
6,test,3,0.0,1-Back,1,m,Wed Mar 12 2025 12:16:54 GMT-0500 (Central Daylight Time),266489.1999999881,139_m_f_n_a.png,O,m,850,8,1,1873.8999999910593,264615.299999997,7079,VNB,A,7
7,test,3,0.0,1-Back,1,m,Wed Mar 12 2025 12:16:54 GMT-0500 (Central Daylight Time),268389.5,071_y_f_d_a.png,O,m,882,9,1,1890.7000000029802,266498.799999997,7079,VNB,A,8
8,test,3,1.0,1-Back,1,m,Wed Mar 12 2025 12:16:54 GMT-0500 (Central Daylight Time),270303.89999999106,039_o_m_n_a.png,O,m,893,10,1,1903.7000000029802,268400.1999999881,7079,VNB,A,9
9,test,3,0.0,1-Back,1,m,Wed Mar 12 2025 12:16:54 GMT-0500 (Central Daylight Time),272403.799999997,165_m_m_h_a.png,O,m,1072,11,1,2089.4000000059605,270314.39999999106,7079,VNB,A,10
10,test,3,0.0,1-Back,1,z,Wed Mar 12 2025 12:16:54 GMT-0500 (Central Daylight Time),274069.39999999106,139_m_f_h_a.png,O,z,638,12,1,1656.2000000029802,272413.1999999881,7079,VNB,A,11
11,test,3,1.0,1-Back,1,m,Wed Mar 12 2025 12:16:54 GMT-0500 (Central Daylight Time),275968.5,124_o_f_d_a.png,O,m,867,13,1,1889.1000000089407,274079.39999999106,7079,VNB,A,12
11,test,3,0.0,1-Back,0,z,Wed Mar 12 2025 12:16:54 GMT-0500 (Central Daylight Time),277836.59999999404,165_m_m_d_a.png,O,m,850,14,1,1857.2999999970198,275979.299999997,7079,VNB,A,13
12,test,3,0.0,1-Back,1,m,Wed Mar 12 2025 12:16:54 GMT-0500 (Central Daylight Time),279801.799999997,109_y_m_n_a.png,O,m,932,15,1,1956.1000000089407,277845.6999999881,7079,VNB,A,14
13,test,3,1.0,1-Back,1,m,Wed Mar 12 2025 12:16:54 GMT-0500 (Central Daylight Time),281618.1999999881,039_o_m_h_a.png,O,m,800,16,1,1807.5,279810.6999999881,7079,VNB,A,15
14,test,3,0.0,1-Back,1,m,Wed Mar 12 2025 12:16:54 GMT-0500 (Central Daylight Time),283400.5,109_y_m_d_a.png,O,m,751,17,1,1773.1000000089407,281627.39999999106,7079,VNB,A,16
15,test,3,1.0,1-Back,1,m,Wed Mar 12 2025 12:16:54 GMT-0500 (Central Daylight Time),285468.39999999106,071_y_f_n_a.png,O,m,1031,18,1,2057.3999999910593,283411.0,7079,VNB,A,17
0,test,4,1.0,1-Back,,,Wed Mar 12 2025 12:16:54 GMT-0500 (Central Daylight Time),285468.39999999106,165_m_m_d_a.png,O,space,1349,1,1,2057.3999999910593,283411.0,7079,VNB,A,0
0,test,4,0.0,1-Back,0,z,Wed Mar 12 2025 12:16:54 GMT-0500 (Central Daylight Time),290914.299999997,039_o_m_d_a.png,O,m,1041,2,1,2055.0,288859.299999997,7079,VNB,A,1
1,test,4,0.0,1-Back,1,m,Wed Mar 12 2025 12:16:54 GMT-0500 (Central Daylight Time),292830.1999999881,109_y_m_h_a.png,O,m,885,3,1,1907.0999999940395,290923.09999999404,7079,VNB,A,2
2,test,4,0.0,1-Back,1,m,Wed Mar 12 2025 12:16:54 GMT-0500 (Central Daylight Time),294612.799999997,139_m_f_n_a.png,O,m,748,4,1,1773.2000000029802,292839.59999999404,7079,VNB,A,3
3,test,4,1.0,1-Back,1,m,Wed Mar 12 2025 12:16:54 GMT-0500 (Central Daylight Time),296411.89999999106,124_o_f_h_a.png,O,m,779,5,1,1789.8999999910593,294622.0,7079,VNB,A,4
4,test,4,0.0,1-Back,1,m,Wed Mar 12 2025 12:16:54 GMT-0500 (Central Daylight Time),298212.59999999404,165_m_m_n_a.png,O,m,766,6,1,1790.4000000059605,296422.1999999881,7079,VNB,A,5
5,test,4,0.0,1-Back,1,m,Wed Mar 12 2025 12:16:54 GMT-0500 (Central Daylight Time),300044.799999997,109_y_m_d_a.png,O,m,803,7,1,1822.6000000089407,298222.1999999881,7079,VNB,A,6
6,test,4,1.0,1-Back,1,z,Wed Mar 12 2025 12:16:54 GMT-0500 (Central Daylight Time),301843.89999999106,071_y_f_d_a.png,O,z,772,8,1,1787.0999999940395,300056.799999997,7079,VNB,A,7
7,test,4,0.0,1-Back,1,m,Wed Mar 12 2025 12:16:54 GMT-0500 (Central Daylight Time),303827.1999999881,139_m_f_h_a.png,O,m,955,9,1,1974.0999999940395,301853.09999999404,7079,VNB,A,8
8,test,4,0.0,1-Back,1,z,Wed Mar 12 2025 12:16:54 GMT-0500 (Central Daylight Time),305809.1999999881,039_o_m_h_a.png,O,z,947,10,1,1972.3999999910593,303836.799999997,7079,VNB,A,9
9,test,4,1.0,1-Back,1,m,Wed Mar 12 2025 12:16:54 GMT-0500 (Central Daylight Time),307674.89999999106,124_o_f_n_a.png,O,m,840,11,1,1855.7000000029802,305819.1999999881,7079,VNB,A,10
10,test,4,0.0,1-Back,1,m,Wed Mar 12 2025 12:16:54 GMT-0500 (Central Daylight Time),309541.799999997,139_m_f_d_a.png,O,m,837,12,1,1857.1000000089407,307684.6999999881,7079,VNB,A,11
11,test,4,0.0,1-Back,1,m,Wed Mar 12 2025 12:16:54 GMT-0500 (Central Daylight Time),311425.5,071_y_f_n_a.png,O,m,867,13,1,1874.5,309551.0,7079,VNB,A,12
12,test,4,0.0,1-Back,1,m,Wed Mar 12 2025 12:16:54 GMT-0500 (Central Daylight Time),313491.09999999404,124_o_f_d_a.png,O,m,1040,14,1,2055.7000000029802,311435.39999999106,7079,VNB,A,13
13,test,4,0.0,1-Back,1,m,Wed Mar 12 2025 12:16:54 GMT-0500 (Central Daylight Time),315474.89999999106,071_y_f_h_a.png,O,m,964,15,1,1972.2999999970198,313502.59999999404,7079,VNB,A,14
14,test,4,1.0,1-Back,1,z,Wed Mar 12 2025 12:16:54 GMT-0500 (Central Daylight Time),317123.0,165_m_m_h_a.png,O,z,630,16,1,1643.0,315480.0,7079,VNB,A,15
15,test,4,0.0,1-Back,1,m,Wed Mar 12 2025 12:16:54 GMT-0500 (Central Daylight Time),318923.5,039_o_m_n_a.png,O,m,775,17,1,1792.9000000059605,317130.59999999404,7079,VNB,A,16
15,test,4,1.0,1-Back,0,z,Wed Mar 12 2025 12:16:54 GMT-0500 (Central Daylight Time),320722.39999999106,109_y_m_n_a.png,O,m,781,18,1,1790.2000000029802,318932.1999999881,7079,VNB,A,17
0,test,5,1.0,1-Back,,,Wed Mar 12 2025 12:16:54 GMT-0500 (Central Daylight Time),320722.39999999106,039_o_m_n_a.png,O,space,1662,1,1,1790.2000000029802,318932.1999999881,7079,VNB,A,0
1,test,5,1.0,1-Back,1,m,Wed Mar 12 2025 12:16:54 GMT-0500 (Central Daylight Time),326119.09999999404,124_o_f_h_a.png,O,m,669,2,1,1690.7999999970198,324428.299999997,7079,VNB,A,1
2,test,5,0.0,1-Back,1,m,Wed Mar 12 2025 12:16:54 GMT-0500 (Central Daylight Time),327737.89999999106,109_y_m_d_a.png,O,m,600,3,1,1608.5999999940395,326129.299999997,7079,VNB,A,2
3,test,5,0.0,1-Back,1,z,Wed Mar 12 2025 12:16:54 GMT-0500 (Central Daylight Time),329436.09999999404,039_o_m_d_a.png,O,z,682,4,1,1689.2000000029802,327746.89999999106,7079,VNB,A,3
4,test,5,0.0,1-Back,1,m,Wed Mar 12 2025 12:16:54 GMT-0500 (Central Daylight Time),331118.39999999106,139_m_f_h_a.png,O,m,653,5,1,1672.0999999940395,329446.299999997,7079,VNB,A,4
5,test,5,0.0,1-Back,1,m,Wed Mar 12 2025 12:16:54 GMT-0500 (Central Daylight Time),332817.59999999404,071_y_f_n_a.png,O,m,674,6,1,1689.2999999970198,331128.299999997,7079,VNB,A,5
5,test,5,1.0,1-Back,0,z,Wed Mar 12 2025 12:16:54 GMT-0500 (Central Daylight Time),334533.5,124_o_f_n_a.png,O,m,695,7,1,1706.300000011921,332827.1999999881,7079,VNB,A,6
6,test,5,0.0,1-Back,1,m,Wed Mar 12 2025 12:16:54 GMT-0500 (Central Daylight Time),336268.0,139_m_f_d_a.png,O,m,717,8,1,1724.4000000059605,334543.59999999404,7079,VNB,A,7
7,test,5,0.0,1-Back,1,m,Wed Mar 12 2025 12:16:54 GMT-0500 (Central Daylight Time),337883.6999999881,109_y_m_h_a.png,O,m,598,9,1,1604.5999999940395,336279.09999999404,7079,VNB,A,8
8,test,5,0.0,1-Back,1,m,Wed Mar 12 2025 12:16:54 GMT-0500 (Central Daylight Time),339649.39999999106,071_y_f_d_a.png,O,m,741,10,1,1755.8999999910593,337893.5,7079,VNB,A,9
9,test,5,0.0,1-Back,1,m,Wed Mar 12 2025 12:16:54 GMT-0500 (Central Daylight Time),341382.59999999404,165_m_m_n_a.png,O,m,711,11,1,1723.5999999940395,339659.0,7079,VNB,A,10
10,test,5,1.0,1-Back,1,z,Wed Mar 12 2025 12:16:54 GMT-0500 (Central Daylight Time),343065.09999999404,139_m_f_n_a.png,O,z,651,12,1,1671.7999999970198,341393.299999997,7079,VNB,A,11
11,test,5,0.0,1-Back,1,m,Wed Mar 12 2025 12:16:54 GMT-0500 (Central Daylight Time),344795.89999999106,039_o_m_h_a.png,O,m,703,13,1,1720.7000000029802,343075.1999999881,7079,VNB,A,12
12,test,5,0.0,1-Back,1,z,Wed Mar 12 2025 12:16:54 GMT-0500 (Central Daylight Time),346698.5,165_m_m_h_a.png,O,z,883,14,1,1893.9000000059605,344804.59999999404,7079,VNB,A,13
13,test,5,1.0,1-Back,1,m,Wed Mar 12 2025 12:16:54 GMT-0500 (Central Daylight Time),348379.09999999404,124_o_f_d_a.png,O,m,656,15,1,1674.5,346704.59999999404,7079,VNB,A,14
14,test,5,0.0,1-Back,1,m,Wed Mar 12 2025 12:16:54 GMT-0500 (Central Daylight Time),350062.09999999404,109_y_m_n_a.png,O,m,654,16,1,1673.4000000059605,348388.6999999881,7079,VNB,A,15
15,test,5,0.0,1-Back,1,m,Wed Mar 12 2025 12:16:54 GMT-0500 (Central Daylight Time),351860.89999999106,071_y_f_h_a.png,O,m,780,17,1,1788.2999999970198,350072.59999999404,7079,VNB,A,16
16,test,5,0.0,1-Back,1,m,Wed Mar 12 2025 12:16:54 GMT-0500 (Central Daylight Time),353594.1999999881,165_m_m_d_a.png,O,m,707,18,1,1723.3999999910593,351870.799999997,7079,VNB,A,17
0,prac,1,0.0,2-Back,,,Wed Mar 12 2025 12:16:54 GMT-0500 (Central Daylight Time),353594.1999999881,139_m_f_n_a.png,O,space,12274,1,1,1723.3999999910593,351870.799999997,7079,VNB,A,0
0,prac,1,0.0,2-Back,,,Wed Mar 12 2025 12:16:54 GMT-0500 (Central Daylight Time),353594.1999999881,124_o_f_h_a.png,O,space,12274,2,1,1723.3999999910593,351870.799999997,7079,VNB,A,0
1,prac,1,0.0,2-Back,1,m,Wed Mar 12 2025 12:16:54 GMT-0500 (Central Daylight Time),487136.1999999881,039_o_m_d_a.png,O,m,1336,3,1,2138.0999999940395,484998.09999999404,7079,VNB,A,1
2,prac,1,1.0,2-Back,1,z,Wed Mar 12 2025 12:16:54 GMT-0500 (Central Daylight Time),489067.59999999404,165_m_m_h_a.png,O,z,1122,4,1,1922.0,487145.59999999404,7079,VNB,A,2
2,prac,1,0.0,2-Back,0,m,Wed Mar 12 2025 12:16:54 GMT-0500 (Central Daylight Time),491168.799999997,071_y_f_n_a.png,O,z,1293,5,1,2091.0,489077.799999997,7079,VNB,A,3
2,prac,1,1.0,2-Back,0,z,Wed Mar 12 2025 12:16:54 GMT-0500 (Central Daylight Time),493750.799999997,039_o_m_h_a.png,O,m,1793,6,1,2571.2000000029802,491179.59999999404,7079,VNB,A,4
3,prac,1,1.0,2-Back,1,z,Wed Mar 12 2025 12:16:54 GMT-0500 (Central Daylight Time),496199.6999999881,109_y_m_n_a.png,O,z,1653,7,1,2437.2999999970198,493762.39999999106,7079,VNB,A,5
3,prac,1,0.0,2-Back,0,m,Wed Mar 12 2025 12:16:54 GMT-0500 (Central Daylight Time),498465.799999997,139_m_f_d_a.png,O,z,1459,8,1,2255.5,496210.299999997,7079,VNB,A,6
4,prac,1,0.0,2-Back,1,m,Wed Mar 12 2025 12:16:54 GMT-0500 (Central Daylight Time),500780.1999999881,124_o_f_d_a.png,O,m,1485,9,1,2304.199999988079,498476.0,7079,VNB,A,7
4,prac,1,0.0,2-Back,0,m,Wed Mar 12 2025 12:16:54 GMT-0500 (Central Daylight Time),502864.09999999404,165_m_m_h_a.png,O,z,1299,10,1,2073.0999999940395,500791.0,7079,VNB,A,8
4,prac,1,1.0,2-Back,0,z,Wed Mar 12 2025 12:16:54 GMT-0500 (Central Daylight Time),505097.5,071_y_f_d_a.png,O,m,1425,11,1,2221.7000000029802,502875.799999997,7079,VNB,A,9
5,prac,1,0.0,2-Back,1,m,Wed Mar 12 2025 12:16:54 GMT-0500 (Central Daylight Time),507862.59999999404,039_o_m_n_a.png,O,m,1959,12,1,2753.9000000059605,505108.6999999881,7079,VNB,A,10
0,prac,2,0.0,2-Back,,,Wed Mar 12 2025 12:16:54 GMT-0500 (Central Daylight Time),507862.59999999404,139_m_f_n_a.png,O,a,6869,1,1,2753.9000000059605,505108.6999999881,7079,VNB,A,0
0,prac,2,0.0,2-Back,,,Wed Mar 12 2025 12:16:54 GMT-0500 (Central Daylight Time),507862.59999999404,124_o_f_h_a.png,O,a,6869,2,1,2753.9000000059605,505108.6999999881,7079,VNB,A,0
1,prac,2,0.0,2-Back,1,m,Wed Mar 12 2025 12:16:54 GMT-0500 (Central Daylight Time),521524.799999997,039_o_m_d_a.png,O,m,881,3,1,1672.2999999970198,519852.5,7079,VNB,A,1
2,prac,2,1.0,2-Back,1,z,Wed Mar 12 2025 12:16:54 GMT-0500 (Central Daylight Time),523440.09999999404,165_m_m_h_a.png,O,z,1121,4,1,1903.7000000029802,521536.39999999106,7079,VNB,A,2
2,prac,2,0.0,2-Back,0,m,Wed Mar 12 2025 12:16:54 GMT-0500 (Central Daylight Time),525307.299999997,071_y_f_n_a.png,O,z,1058,5,1,1857.5,523449.799999997,7079,VNB,A,3
3,prac,2,1.0,2-Back,1,z,Wed Mar 12 2025 12:16:54 GMT-0500 (Central Daylight Time),527804.599999994,039_o_m_h_a.png,O,z,1685,6,1,2486.5,525318.099999994,7079,VNB,A,4
4,prac,2,1.0,2-Back,1,z,Wed Mar 12 2025 12:16:54 GMT-0500 (Central Daylight Time),529970.799999997,109_y_m_n_a.png,O,z,1363,7,1,2154.7999999970198,527816.0,7079,VNB,A,5
5,prac,2,0.0,2-Back,1,m,Wed Mar 12 2025 12:16:54 GMT-0500 (Central Daylight Time),531904.5,139_m_f_d_a.png,O,m,1136,8,1,1922.4000000059605,529982.099999994,7079,VNB,A,6
6,prac,2,0.0,2-Back,1,m,Wed Mar 12 2025 12:16:54 GMT-0500 (Central Daylight Time),534321.099999994,124_o_f_d_a.png,O,m,1582,9,1,2405.7000000029802,531915.3999999911,7079,VNB,A,7
6,prac,2,0.0,2-Back,0,m,Wed Mar 12 2025 12:16:54 GMT-0500 (Central Daylight Time),536103.3999999911,165_m_m_h_a.png,O,z,1013,10,1,1770.8999999910593,534332.5,7079,VNB,A,8
7,prac,2,1.0,2-Back,1,z,Wed Mar 12 2025 12:16:54 GMT-0500 (Central Daylight Time),538267.6999999881,071_y_f_d_a.png,O,z,1356,11,1,2153.7999999970198,536113.8999999911,7079,VNB,A,9
8,prac,2,0.0,2-Back,1,m,Wed Mar 12 2025 12:16:54 GMT-0500 (Central Daylight Time),540384.5,039_o_m_n_a.png,O,m,1316,12,1,2110.1000000089407,538274.3999999911,7079,VNB,A,10
0,test,1,0.0,2-Back,,,Wed Mar 12 2025 12:16:54 GMT-0500 (Central Daylight Time),540384.5,109_y_m_h_a.png,O,space,6361,1,1,2110.1000000089407,538274.3999999911,7079,VNB,A,0
0,test,1,0.0,2-Back,,,Wed Mar 12 2025 12:16:54 GMT-0500 (Central Daylight Time),540384.5,124_o_f_n_a.png,O,space,6361,2,1,2110.1000000089407,538274.3999999911,7079,VNB,A,0
1,test,1,0.0,2-Back,1,z,Wed Mar 12 2025 12:16:54 GMT-0500 (Central Daylight Time),561994.599999994,039_o_m_h_a.png,O,z,848,3,1,1855.7000000029802,560138.8999999911,7079,VNB,A,1
2,test,1,0.0,2-Back,1,m,Wed Mar 12 2025 12:16:54 GMT-0500 (Central Daylight Time),564061.6999999881,139_m_f_d_a.png,O,m,1036,4,1,2057.5,562004.1999999881,7079,VNB,A,2
2,test,1,1.0,2-Back,0,m,Wed Mar 12 2025 12:16:54 GMT-0500 (Central Daylight Time),566209.6999999881,109_y_m_n_a.png,O,z,1130,5,1,2138.2999999970198,564071.3999999911,7079,VNB,A,3
3,test,1,0.0,2-Back,1,z,Wed Mar 12 2025 12:16:54 GMT-0500 (Central Daylight Time),568592.6999999881,071_y_f_d_a.png,O,z,1350,6,1,2375.0,566217.6999999881,7079,VNB,A,4
3,test,1,0.0,2-Back,0,m,Wed Mar 12 2025 12:16:54 GMT-0500 (Central Daylight Time),570642.0,165_m_m_h_a.png,O,z,1023,7,1,2039.7000000029802,568602.299999997,7079,VNB,A,5
4,test,1,1.0,2-Back,1,m,Wed Mar 12 2025 12:16:54 GMT-0500 (Central Daylight Time),572791.299999997,071_y_f_n_a.png,O,m,1125,8,1,2138.7999999970198,570652.5,7079,VNB,A,6
4,test,1,0.0,2-Back,0,z,Wed Mar 12 2025 12:16:54 GMT-0500 (Central Daylight Time),574941.299999997,124_o_f_h_a.png,O,m,1121,9,1,2140.0,572801.299999997,7079,VNB,A,7
4,test,1,0.0,2-Back,0,m,Wed Mar 12 2025 12:16:54 GMT-0500 (Central Daylight Time),577156.1999999881,039_o_m_d_a.png,O,z,1186,10,1,2204.5999999940395,574951.599999994,7079,VNB,A,8
4,test,1,1.0,2-Back,0,m,Wed Mar 12 2025 12:16:54 GMT-0500 (Central Daylight Time),579723.5,165_m_m_d_a.png,O,z,1549,11,1,2557.4000000059605,577166.099999994,7079,VNB,A,9
5,test,1,0.0,2-Back,1,m,Wed Mar 12 2025 12:16:54 GMT-0500 (Central Daylight Time),582005.299999997,139_m_f_n_a.png,O,m,1265,12,1,2271.9000000059605,579733.3999999911,7079,VNB,A,10
6,test,1,0.0,2-Back,1,m,Wed Mar 12 2025 12:16:54 GMT-0500 (Central Daylight Time),584271.099999994,071_y_f_h_a.png,O,m,1244,13,1,2257.7000000029802,582013.3999999911,7079,VNB,A,11
7,test,1,0.0,2-Back,1,z,Wed Mar 12 2025 12:16:54 GMT-0500 (Central Daylight Time),586970.6999999881,165_m_m_n_a.png,O,z,1682,14,1,2689.3999999910593,584281.299999997,7079,VNB,A,12
7,test,1,0.0,2-Back,0,m,Wed Mar 12 2025 12:16:54 GMT-0500 (Central Daylight Time),589236.5,109_y_m_d_a.png,O,z,1239,15,1,2256.7000000029802,586979.799999997,7079,VNB,A,13
8,test,1,1.0,2-Back,1,m,Wed Mar 12 2025 12:16:54 GMT-0500 (Central Daylight Time),591418.1999999881,139_m_f_h_a.png,O,m,1164,16,1,2171.699999988079,589246.5,7079,VNB,A,14
9,test,1,0.0,2-Back,1,z,Wed Mar 12 2025 12:16:54 GMT-0500 (Central Daylight Time),593567.6999999881,124_o_f_d_a.png,O,z,1119,17,1,2141.0999999940395,591426.599999994,7079,VNB,A,15
10,test,1,0.0,2-Back,1,m,Wed Mar 12 2025 12:16:54 GMT-0500 (Central Daylight Time),595751.5,039_o_m_n_a.png,O,m,1151,18,1,2175.1000000089407,593576.3999999911,7079,VNB,A,16
0,test,2,0.0,2-Back,,,Wed Mar 12 2025 12:16:54 GMT-0500 (Central Daylight Time),595751.5,165_m_m_h_a.png,O,space,1953,1,1,2175.1000000089407,593576.3999999911,7079,VNB,A,0
0,test,2,0.0,2-Back,,,Wed Mar 12 2025 12:16:54 GMT-0500 (Central Daylight Time),595751.5,071_y_f_n_a.png,O,space,1953,2,1,2175.1000000089407,593576.3999999911,7079,VNB,A,0
1,test,2,1.0,2-Back,1,z,Wed Mar 12 2025 12:16:54 GMT-0500 (Central Daylight Time),604580.799999997,124_o_f_h_a.png,O,z,754,3,1,1772.2999999970198,602808.5,7079,VNB,A,1
2,test,2,0.0,2-Back,1,m,Wed Mar 12 2025 12:16:54 GMT-0500 (Central Daylight Time),606612.6999999881,039_o_m_d_a.png,O,m,1012,4,1,2022.199999988079,604590.5,7079,VNB,A,2
2,test,2,0.0,2-Back,0,m,Wed Mar 12 2025 12:16:54 GMT-0500 (Central Daylight Time),608880.599999994,139_m_f_d_a.png,O,z,1242,5,1,2259.0,606621.599999994,7079,VNB,A,3
3,test,2,0.0,2-Back,1,m,Wed Mar 12 2025 12:16:54 GMT-0500 (Central Daylight Time),611045.6999999881,109_y_m_h_a.png,O,m,1137,6,1,2155.699999988079,608890.0,7079,VNB,A,4
3,test,2,0.0,2-Back,0,m,Wed Mar 12 2025 12:16:54 GMT-0500 (Central Daylight Time),613161.6999999881,124_o_f_n_a.png,O,z,1090,7,1,2106.3999999910593,611055.299999997,7079,VNB,A,5
4,test,2,1.0,2-Back,1,z,Wed Mar 12 2025 12:16:54 GMT-0500 (Central Daylight Time),615394.6999999881,039_o_m_h_a.png,O,z,1205,8,1,2223.699999988079,613171.0,7079,VNB,A,6
4,test,2,0.0,2-Back,0,m,Wed Mar 12 2025 12:16:54 GMT-0500 (Central Daylight Time),617675.5,071_y_f_d_a.png,O,z,1254,9,1,2272.0,615403.5,7079,VNB,A,7
5,test,2,0.0,2-Back,1,m,Wed Mar 12 2025 12:16:54 GMT-0500 (Central Daylight Time),620044.0,109_y_m_d_a.png,O,m,1350,10,1,2358.4000000059605,617685.599999994,7079,VNB,A,8
5,test,2,0.0,2-Back,0,m,Wed Mar 12 2025 12:16:54 GMT-0500 (Central Daylight Time),622093.0,165_m_m_n_a.png,O,z,1033,11,1,2039.4000000059605,620053.599999994,7079,VNB,A,9
6,test,2,0.0,2-Back,1,m,Wed Mar 12 2025 12:16:54 GMT-0500 (Central Daylight Time),624590.1999999881,139_m_f_h_a.png,O,m,1468,12,1,2488.7999999970198,622101.3999999911,7079,VNB,A,10
7,test,2,1.0,2-Back,1,z,Wed Mar 12 2025 12:16:54 GMT-0500 (Central Daylight Time),627040.1999999881,039_o_m_n_a.png,O,z,1425,13,1,2440.3999999910593,624599.799999997,7079,VNB,A,11
8,test,2,0.0,2-Back,1,m,Wed Mar 12 2025 12:16:54 GMT-0500 (Central Daylight Time),629491.0,124_o_f_d_a.png,O,m,1414,14,1,2441.1000000089407,627049.8999999911,7079,VNB,A,12
9,test,2,0.0,2-Back,1,m,Wed Mar 12 2025 12:16:54 GMT-0500 (Central Daylight Time),631873.099999994,071_y_f_h_a.png,O,m,1350,15,1,2370.7000000029802,629502.3999999911,7079,VNB,A,13
10,test,2,0.0,2-Back,1,z,Wed Mar 12 2025 12:16:54 GMT-0500 (Central Daylight Time),633889.099999994,165_m_m_d_a.png,O,z,983,16,1,2006.5999999940395,631882.5,7079,VNB,A,14
11,test,2,0.0,2-Back,1,m,Wed Mar 12 2025 12:16:54 GMT-0500 (Central Daylight Time),636105.599999994,109_y_m_n_a.png,O,m,1192,17,1,2207.0,633898.599999994,7079,VNB,A,15
11,test,2,1.0,2-Back,0,m,Wed Mar 12 2025 12:16:54 GMT-0500 (Central Daylight Time),639035.6999999881,139_m_f_n_a.png,O,z,1905,18,1,2919.5999999940395,636116.099999994,7079,VNB,A,16
0,test,3,1.0,2-Back,,,Wed Mar 12 2025 12:16:54 GMT-0500 (Central Daylight Time),639035.6999999881,039_o_m_n_a.png,O,space,1597,1,1,2919.5999999940395,636116.099999994,7079,VNB,A,0
0,test,3,1.0,2-Back,,,Wed Mar 12 2025 12:16:54 GMT-0500 (Central Daylight Time),639035.6999999881,124_o_f_d_a.png,O,space,1597,2,1,2919.5999999940395,636116.099999994,7079,VNB,A,0
1,test,3,0.0,2-Back,1,m,Wed Mar 12 2025 12:16:54 GMT-0500 (Central Daylight Time),647517.6999999881,071_y_f_h_a.png,O,m,747,3,1,1757.0999999940395,645760.599999994,7079,VNB,A,1
2,test,3,0.0,2-Back,1,z,Wed Mar 12 2025 12:16:54 GMT-0500 (Central Daylight Time),649300.099999994,139_m_f_d_a.png,O,z,755,4,1,1771.9000000059605,647528.1999999881,7079,VNB,A,2
3,test,3,1.0,2-Back,1,m,Wed Mar 12 2025 12:16:54 GMT-0500 (Central Daylight Time),651149.8999999911,109_y_m_n_a.png,O,m,822,5,1,1839.5,649310.3999999911,7079,VNB,A,3
3,test,3,0.0,2-Back,0,m,Wed Mar 12 2025 12:16:54 GMT-0500 (Central Daylight Time),652916.0,039_o_m_h_a.png,O,z,735,6,1,1757.4000000059605,651158.599999994,7079,VNB,A,4
4,test,3,0.0,2-Back,1,z,Wed Mar 12 2025 12:16:54 GMT-0500 (Central Daylight Time),655065.6999999881,071_y_f_n_a.png,O,z,1126,7,1,2139.0,652926.6999999881,7079,VNB,A,5
5,test,3,1.0,2-Back,1,m,Wed Mar 12 2025 12:16:54 GMT-0500 (Central Daylight Time),657266.0,165_m_m_d_a.png,O,m,1183,8,1,2190.4000000059605,655075.599999994,7079,VNB,A,6
5,test,3,0.0,2-Back,0,m,Wed Mar 12 2025 12:16:54 GMT-0500 (Central Daylight Time),659598.3999999911,109_y_m_d_a.png,O,z,1314,9,1,2318.3999999910593,657280.0,7079,VNB,A,7
5,test,3,0.0,2-Back,0,m,Wed Mar 12 2025 12:16:54 GMT-0500 (Central Daylight Time),661630.099999994,124_o_f_h_a.png,O,z,1006,10,1,2021.0999999940395,659609.0,7079,VNB,A,8
6,test,3,1.0,2-Back,1,m,Wed Mar 12 2025 12:16:54 GMT-0500 (Central Daylight Time),663680.299999997,139_m_f_n_a.png,O,m,1020,11,1,2040.0,661640.299999997,7079,VNB,A,9
7,test,3,1.0,2-Back,1,z,Wed Mar 12 2025 12:16:54 GMT-0500 (Central Daylight Time),665512.099999994,165_m_m_h_a.png,O,z,801,12,1,1821.4000000059605,663690.6999999881,7079,VNB,A,10
7,test,3,0.0,2-Back,0,m,Wed Mar 12 2025 12:16:54 GMT-0500 (Central Daylight Time),667779.0,071_y_f_d_a.png,O,z,1234,13,1,2256.6000000089407,665522.3999999911,7079,VNB,A,11
8,test,3,0.0,2-Back,1,m,Wed Mar 12 2025 12:16:54 GMT-0500 (Central Daylight Time),670211.799999997,124_o_f_n_a.png,O,m,1416,14,1,2423.4000000059605,667788.3999999911,7079,VNB,A,12
8,test,3,0.0,2-Back,0,z,Wed Mar 12 2025 12:16:54 GMT-0500 (Central Daylight Time),672459.6999999881,039_o_m_d_a.png,O,m,1232,15,1,2238.199999988079,670221.5,7079,VNB,A,13
8,test,3,1.0,2-Back,0,m,Wed Mar 12 2025 12:16:54 GMT-0500 (Central Daylight Time),674342.0,139_m_f_h_a.png,O,z,862,16,1,1875.4000000059605,672466.599999994,7079,VNB,A,14
8,test,3,0.0,2-Back,0,m,Wed Mar 12 2025 12:16:54 GMT-0500 (Central Daylight Time),676560.1999999881,165_m_m_n_a.png,O,z,1186,17,1,2208.3999999910593,674351.799999997,7079,VNB,A,15
8,test,3,0.0,2-Back,0,z,Wed Mar 12 2025 12:16:54 GMT-0500 (Central Daylight Time),678408.099999994,109_y_m_h_a.png,O,m,827,18,1,1836.5999999940395,676571.5,7079,VNB,A,16
0,test,4,0.0,2-Back,,,Wed Mar 12 2025 12:16:54 GMT-0500 (Central Daylight Time),678408.099999994,139_m_f_n_a.png,O,space,1683,1,1,1836.5999999940395,676571.5,7079,VNB,A,0
0,test,4,0.0,2-Back,,,Wed Mar 12 2025 12:16:54 GMT-0500 (Central Daylight Time),678408.099999994,039_o_m_n_a.png,O,space,1683,2,1,1836.5999999940395,676571.5,7079,VNB,A,0
1,test,4,1.0,2-Back,1,m,Wed Mar 12 2025 12:16:54 GMT-0500 (Central Daylight Time),687071.5,109_y_m_h_a.png,O,m,902,3,1,1924.9000000059605,685146.599999994,7079,VNB,A,1
2,test,4,1.0,2-Back,1,m,Wed Mar 12 2025 12:16:54 GMT-0500 (Central Daylight Time),689037.5,124_o_f_d_a.png,O,m,944,4,1,1954.7000000029802,687082.799999997,7079,VNB,A,2
2,test,4,0.0,2-Back,0,z,Wed Mar 12 2025 12:16:54 GMT-0500 (Central Daylight Time),691086.799999997,039_o_m_h_a.png,O,m,1018,5,1,2038.4000000059605,689048.3999999911,7079,VNB,A,3
2,test,4,0.0,2-Back,0,m,Wed Mar 12 2025 12:16:54 GMT-0500 (Central Daylight Time),693019.299999997,165_m_m_n_a.png,O,z,915,6,1,1922.1000000089407,691097.1999999881,7079,VNB,A,4
2,test,4,0.0,2-Back,0,m,Wed Mar 12 2025 12:16:54 GMT-0500 (Central Daylight Time),695269.299999997,139_m_f_d_a.png,O,z,1221,7,1,2240.0,693029.299999997,7079,VNB,A,5
2,test,4,0.0,2-Back,0,z,Wed Mar 12 2025 12:16:54 GMT-0500 (Central Daylight Time),697484.1999999881,071_y_f_n_a.png,O,m,1199,8,1,2204.3999999910593,695279.799999997,7079,VNB,A,6
3,test,4,1.0,2-Back,1,m,Wed Mar 12 2025 12:16:54 GMT-0500 (Central Daylight Time),699585.5,124_o_f_h_a.png,O,m,1066,9,1,2090.6000000089407,697494.8999999911,7079,VNB,A,7
3,test,4,0.0,2-Back,0,m,Wed Mar 12 2025 12:16:54 GMT-0500 (Central Daylight Time),701435.299999997,165_m_m_h_a.png,O,z,833,10,1,1840.2000000029802,699595.099999994,7079,VNB,A,8
4,test,4,0.0,2-Back,1,m,Wed Mar 12 2025 12:16:54 GMT-0500 (Central Daylight Time),703633.799999997,071_y_f_d_a.png,O,m,1184,11,1,2188.2000000029802,701445.599999994,7079,VNB,A,9
5,test,4,0.0,2-Back,1,m,Wed Mar 12 2025 12:16:54 GMT-0500 (Central Daylight Time),705850.3999999911,109_y_m_n_a.png,O,m,1199,12,1,2209.2000000029802,703641.1999999881,7079,VNB,A,10
5,test,4,0.0,2-Back,0,z,Wed Mar 12 2025 12:16:54 GMT-0500 (Central Daylight Time),708067.099999994,039_o_m_d_a.png,O,m,1200,13,1,2208.0999999940395,705859.0,7079,VNB,A,11
6,test,4,1.0,2-Back,1,m,Wed Mar 12 2025 12:16:54 GMT-0500 (Central Daylight Time),710213.5,139_m_f_h_a.png,O,m,1127,14,1,2135.1000000089407,708078.3999999911,7079,VNB,A,12
6,test,4,1.0,2-Back,0,m,Wed Mar 12 2025 12:16:54 GMT-0500 (Central Daylight Time),711897.0,071_y_f_h_a.png,O,z,657,15,1,1672.800000011921,710224.1999999881,7079,VNB,A,13
7,test,4,0.0,2-Back,1,m,Wed Mar 12 2025 12:16:54 GMT-0500 (Central Daylight Time),714262.599999994,124_o_f_n_a.png,O,m,1344,16,1,2356.5,711906.099999994,7079,VNB,A,14
7,test,4,0.0,2-Back,0,m,Wed Mar 12 2025 12:16:54 GMT-0500 (Central Daylight Time),716746.0,109_y_m_d_a.png,O,z,1450,17,1,2473.2000000029802,714272.799999997,7079,VNB,A,15
8,test,4,1.0,2-Back,1,m,Wed Mar 12 2025 12:16:54 GMT-0500 (Central Daylight Time),719009.599999994,165_m_m_d_a.png,O,m,1247,18,1,2254.0,716755.599999994,7079,VNB,A,16
0,test,5,1.0,2-Back,,,Wed Mar 12 2025 12:16:54 GMT-0500 (Central Daylight Time),719009.599999994,071_y_f_d_a.png,O,space,2712,1,1,2254.0,716755.599999994,7079,VNB,A,0
0,test,5,1.0,2-Back,,,Wed Mar 12 2025 12:16:54 GMT-0500 (Central Daylight Time),719009.599999994,124_o_f_h_a.png,O,space,2712,2,1,2254.0,716755.599999994,7079,VNB,A,0
1,test,5,1.0,2-Back,1,z,Wed Mar 12 2025 12:16:54 GMT-0500 (Central Daylight Time),729042.8999999911,039_o_m_d_a.png,O,z,1215,3,1,2223.7000000029802,726819.1999999881,7079,VNB,A,1
2,test,5,1.0,2-Back,1,m,Wed Mar 12 2025 12:16:54 GMT-0500 (Central Daylight Time),731507.3999999911,139_m_f_n_a.png,O,m,1448,4,1,2456.7000000029802,729050.6999999881,7079,VNB,A,2
2,test,5,0.0,2-Back,0,m,Wed Mar 12 2025 12:16:54 GMT-0500 (Central Daylight Time),733390.1999999881,165_m_m_h_a.png,O,z,853,5,1,1872.8999999910593,731517.299999997,7079,VNB,A,3
3,test,5,0.0,2-Back,1,z,Wed Mar 12 2025 12:16:54 GMT-0500 (Central Daylight Time),735555.0,071_y_f_n_a.png,O,z,1137,6,1,2153.800000011921,733401.1999999881,7079,VNB,A,4
3,test,5,0.0,2-Back,0,m,Wed Mar 12 2025 12:16:54 GMT-0500 (Central Daylight Time),738588.5,124_o_f_d_a.png,O,None,2015,7,1,3022.6000000089407,735565.8999999911,7079,VNB,A,5
3,test,5,0.0,2-Back,0,m,Wed Mar 12 2025 12:16:54 GMT-0500 (Central Daylight Time),740555.599999994,039_o_m_h_a.png,O,z,941,8,1,1956.7000000029802,738598.8999999911,7079,VNB,A,6
4,test,5,1.0,2-Back,1,z,Wed Mar 12 2025 12:16:54 GMT-0500 (Central Daylight Time),743069.799999997,139_m_f_d_a.png,O,z,1484,9,1,2504.0,740565.799999997,7079,VNB,A,7
5,test,5,0.0,2-Back,1,m,Wed Mar 12 2025 12:16:54 GMT-0500 (Central Daylight Time),745353.099999994,109_y_m_n_a.png,O,m,1248,10,1,2273.4000000059605,743079.6999999881,7079,VNB,A,8
5,test,5,0.0,2-Back,0,m,Wed Mar 12 2025 12:16:54 GMT-0500 (Central Daylight Time),747485.5,165_m_m_n_a.png,O,z,1114,11,1,2123.1000000089407,745362.3999999911,7079,VNB,A,9
6,test,5,0.0,2-Back,1,m,Wed Mar 12 2025 12:16:54 GMT-0500 (Central Daylight Time),749951.8999999911,071_y_f_h_a.png,O,m,1432,12,1,2456.2999999970198,747495.599999994,7079,VNB,A,10
7,test,5,0.0,2-Back,1,m,Wed Mar 12 2025 12:16:54 GMT-0500 (Central Daylight Time),752635.799999997,109_y_m_d_a.png,O,m,1667,13,1,2673.2999999970198,749962.5,7079,VNB,A,11
8,test,5,1.0,2-Back,1,z,Wed Mar 12 2025 12:16:54 GMT-0500 (Central Daylight Time),754533.599999994,139_m_f_h_a.png,O,z,866,14,1,1887.5999999940395,752646.0,7079,VNB,A,12
8,test,5,0.0,2-Back,0,m,Wed Mar 12 2025 12:16:54 GMT-0500 (Central Daylight Time),756949.6999999881,039_o_m_n_a.png,O,z,1387,15,1,2406.0999999940395,754543.599999994,7079,VNB,A,13
9,test,5,0.0,2-Back,1,m,Wed Mar 12 2025 12:16:54 GMT-0500 (Central Daylight Time),759381.799999997,165_m_m_d_a.png,O,m,1411,16,1,2421.2000000029802,756960.599999994,7079,VNB,A,14
10,test,5,0.0,2-Back,1,z,Wed Mar 12 2025 12:16:54 GMT-0500 (Central Daylight Time),761532.099999994,124_o_f_n_a.png,O,z,1131,17,1,2139.7000000029802,759392.3999999911,7079,VNB,A,15
11,test,5,1.0,2-Back,1,m,Wed Mar 12 2025 12:16:54 GMT-0500 (Central Daylight Time),763899.099999994,109_y_m_h_a.png,O,m,1342,18,1,2356.4000000059605,761542.6999999881,7079,VNB,A,16
