acc_sum,block,block_c,change,condition,correct,correct_response,datetime,endtime,face,project,response,response_time,row_sel,session_number,start_end,starttime,subject_id,task,task_vers,trial
0,prac,1,,1-Back,,,Wed Mar 26 2025 15:46:11 GMT-0500 (Central Daylight Time),,005_o_f_d_a.png,O,space,8461,1,1,,,7091,VNB,B,0
0,prac,1,0.0,1-Back,0,m,Wed Mar 26 2025 15:46:11 GMT-0500 (Central Daylight Time),122791.69999998808,020_y_f_n_a.png,O,z,1156,2,1,2050.2999999523163,120741.40000003576,7091,VNB,B,1
0,prac,1,0.0,1-Back,0,m,Wed Mar 26 2025 15:46:11 GMT-0500 (Central Daylight Time),124875.5,007_m_m_h_a.png,O,z,1098,3,1,2042.3999999761581,122833.10000002384,7091,VNB,B,2
0,prac,1,0.0,1-Back,0,m,Wed Mar 26 2025 15:46:11 GMT-0500 (Central Daylight Time),127839.80000001192,016_y_m_d_a.png,O,None,2011,4,1,2928.300000011921,124911.5,7091,VNB,B,3
0,prac,1,0.0,1-Back,0,m,Wed Mar 26 2025 15:46:11 GMT-0500 (Central Daylight Time),130788.80000001192,005_o_f_n_a.png,O,None,2005,5,1,2913.899999976158,127874.90000003576,7091,VNB,B,4
0,prac,1,1.0,1-Back,0,z,Wed Mar 26 2025 15:46:11 GMT-0500 (Central Daylight Time),132938.19999998808,016_y_m_n_a.png,O,m,1197,6,1,2120.5,130817.69999998808,7091,VNB,B,5
1,prac,1,0.0,1-Back,1,m,Wed Mar 26 2025 15:46:11 GMT-0500 (Central Daylight Time),135087.69999998808,004_o_m_h_a.png,O,m,1215,7,1,2114.599999964237,132973.10000002384,7091,VNB,B,6
2,prac,1,0.0,1-Back,1,m,Wed Mar 26 2025 15:46:11 GMT-0500 (Central Daylight Time),137003.5,011_m_f_d_a.png,O,m,957,8,1,1874.199999988079,135129.30000001192,7091,VNB,B,7
3,prac,1,1.0,1-Back,1,z,Wed Mar 26 2025 15:46:11 GMT-0500 (Central Daylight Time),139003.10000002384,020_y_f_d_a.png,O,z,1073,9,1,1973.300000011921,137029.80000001192,7091,VNB,B,8
3,prac,1,0.0,1-Back,0,m,Wed Mar 26 2025 15:46:11 GMT-0500 (Central Daylight Time),141085.60000002384,007_m_m_n_a.png,O,z,1135,10,1,2053.300000011921,139032.30000001192,7091,VNB,B,9
4,prac,1,0.0,1-Back,1,m,Wed Mar 26 2025 15:46:11 GMT-0500 (Central Daylight Time),143134.90000003576,005_o_f_h_a.png,O,m,1091,11,1,2011.5,141123.40000003576,7091,VNB,B,10
5,prac,1,0.0,1-Back,1,m,Wed Mar 26 2025 15:46:11 GMT-0500 (Central Daylight Time),145084.60000002384,016_y_m_d_a.png,O,m,984,12,1,1912.4000000357628,143172.19999998808,7091,VNB,B,11
0,prac,2,0.0,1-Back,,,Wed Mar 26 2025 15:46:11 GMT-0500 (Central Daylight Time),145084.60000002384,005_o_f_d_a.png,O,a,11736,1,1,1912.4000000357628,143172.19999998808,7091,VNB,B,0
1,prac,2,0.0,1-Back,1,m,Wed Mar 26 2025 15:46:11 GMT-0500 (Central Daylight Time),162628.80000001192,020_y_f_n_a.png,O,m,1795,2,1,2699.199999988079,159929.60000002384,7091,VNB,B,1
2,prac,2,0.0,1-Back,1,m,Wed Mar 26 2025 15:46:11 GMT-0500 (Central Daylight Time),164960.80000001192,007_m_m_h_a.png,O,m,1375,3,1,2292.800000011921,162668.0,7091,VNB,B,2
3,prac,2,0.0,1-Back,1,m,Wed Mar 26 2025 15:46:11 GMT-0500 (Central Daylight Time),166644.19999998808,016_y_m_d_a.png,O,m,716,4,1,1646.7999999523163,164997.40000003576,7091,VNB,B,3
3,prac,2,0.0,1-Back,0,m,Wed Mar 26 2025 15:46:11 GMT-0500 (Central Daylight Time),168809.69999998808,005_o_f_n_a.png,O,z,1210,5,1,2133.5,166676.19999998808,7091,VNB,B,4
3,prac,2,1.0,1-Back,0,z,Wed Mar 26 2025 15:46:11 GMT-0500 (Central Daylight Time),171075.69999998808,016_y_m_n_a.png,O,m,1317,6,1,2231.099999964237,168844.60000002384,7091,VNB,B,5
4,prac,2,0.0,1-Back,1,m,Wed Mar 26 2025 15:46:11 GMT-0500 (Central Daylight Time),173158.80000001192,004_o_m_h_a.png,O,m,1143,7,1,2042.699999988079,171116.10000002384,7091,VNB,B,6
5,prac,2,0.0,1-Back,1,m,Wed Mar 26 2025 15:46:11 GMT-0500 (Central Daylight Time),175108.0,011_m_f_d_a.png,O,m,998,8,1,1914.300000011921,173193.69999998808,7091,VNB,B,7
6,prac,2,1.0,1-Back,1,z,Wed Mar 26 2025 15:46:11 GMT-0500 (Central Daylight Time),176907.30000001192,020_y_f_d_a.png,O,z,872,9,1,1769.0,175138.30000001192,7091,VNB,B,8
6,prac,2,0.0,1-Back,0,m,Wed Mar 26 2025 15:46:11 GMT-0500 (Central Daylight Time),178856.5,007_m_m_n_a.png,O,z,989,10,1,1916.300000011921,176940.19999998808,7091,VNB,B,9
7,prac,2,0.0,1-Back,1,m,Wed Mar 26 2025 15:46:11 GMT-0500 (Central Daylight Time),180739.19999998808,005_o_f_h_a.png,O,m,929,11,1,1842.3999999761581,178896.80000001192,7091,VNB,B,10
8,prac,2,0.0,1-Back,1,m,Wed Mar 26 2025 15:46:11 GMT-0500 (Central Daylight Time),182673.19999998808,016_y_m_d_a.png,O,m,960,12,1,1895.699999988079,180777.5,7091,VNB,B,11
0,test,1,0.0,1-Back,,,Wed Mar 26 2025 15:46:11 GMT-0500 (Central Daylight Time),182673.19999998808,020_y_f_d_a.png,O,space,16483,1,1,1895.699999988079,180777.5,7091,VNB,B,0
0,test,1,0.0,1-Back,0,m,Wed Mar 26 2025 15:46:11 GMT-0500 (Central Daylight Time),209879.80000001192,011_m_f_n_a.png,O,z,1328,2,1,2338.300000011921,207541.5,7091,VNB,B,1
1,test,1,0.0,1-Back,1,m,Wed Mar 26 2025 15:46:11 GMT-0500 (Central Daylight Time),211762.60000002384,004_o_m_h_a.png,O,m,817,3,1,1847.0,209915.60000002384,7091,VNB,B,2
2,test,1,1.0,1-Back,1,z,Wed Mar 26 2025 15:46:11 GMT-0500 (Central Daylight Time),213661.30000001192,007_m_m_h_a.png,O,z,838,4,1,1863.8999999761581,211797.40000003576,7091,VNB,B,3
3,test,1,0.0,1-Back,1,m,Wed Mar 26 2025 15:46:11 GMT-0500 (Central Daylight Time),215410.80000001192,005_o_f_n_a.png,O,m,691,5,1,1709.3999999761581,213701.40000003576,7091,VNB,B,4
3,test,1,0.0,1-Back,0,m,Wed Mar 26 2025 15:46:11 GMT-0500 (Central Daylight Time),217427.30000001192,016_y_m_d_a.png,O,z,951,6,1,1983.199999988079,215444.10000002384,7091,VNB,B,5
4,test,1,1.0,1-Back,1,z,Wed Mar 26 2025 15:46:11 GMT-0500 (Central Daylight Time),219409.69999998808,011_m_f_d_a.png,O,z,926,7,1,1956.199999988079,217453.5,7091,VNB,B,6
5,test,1,0.0,1-Back,1,m,Wed Mar 26 2025 15:46:11 GMT-0500 (Central Daylight Time),221359.10000002384,020_y_f_h_a.png,O,m,895,8,1,1924.5,219434.60000002384,7091,VNB,B,7
5,test,1,0.0,1-Back,0,m,Wed Mar 26 2025 15:46:11 GMT-0500 (Central Daylight Time),223541.40000003576,004_o_m_n_a.png,O,z,1147,9,1,2152.7000000476837,221388.69999998808,7091,VNB,B,8
6,test,1,0.0,1-Back,1,m,Wed Mar 26 2025 15:46:11 GMT-0500 (Central Daylight Time),225724.5,016_y_m_h_a.png,O,m,1132,10,1,2153.800000011921,223570.69999998808,7091,VNB,B,9
7,test,1,0.0,1-Back,1,m,Wed Mar 26 2025 15:46:11 GMT-0500 (Central Daylight Time),227606.19999998808,004_o_m_d_a.png,O,m,835,11,1,1854.8999999761581,225751.30000001192,7091,VNB,B,10
8,test,1,1.0,1-Back,1,z,Wed Mar 26 2025 15:46:11 GMT-0500 (Central Daylight Time),229523.10000002384,005_o_f_d_a.png,O,z,891,12,1,1911.9000000357628,227611.19999998808,7091,VNB,B,11
8,test,1,0.0,1-Back,0,m,Wed Mar 26 2025 15:46:11 GMT-0500 (Central Daylight Time),231522.80000001192,007_m_m_n_a.png,O,z,934,13,1,1966.800000011921,229556.0,7091,VNB,B,12
9,test,1,1.0,1-Back,1,z,Wed Mar 26 2025 15:46:11 GMT-0500 (Central Daylight Time),233438.5,020_y_f_n_a.png,O,z,862,14,1,1880.300000011921,231558.19999998808,7091,VNB,B,13
10,test,1,0.0,1-Back,1,m,Wed Mar 26 2025 15:46:11 GMT-0500 (Central Daylight Time),235221.30000001192,011_m_f_h_a.png,O,m,739,15,1,1762.0,233459.30000001192,7091,VNB,B,14
11,test,1,0.0,1-Back,1,m,Wed Mar 26 2025 15:46:11 GMT-0500 (Central Daylight Time),237503.60000002384,007_m_m_d_a.png,O,m,1236,16,1,2265.600000023842,235238.0,7091,VNB,B,15
11,test,1,0.0,1-Back,0,m,Wed Mar 26 2025 15:46:11 GMT-0500 (Central Daylight Time),240053.19999998808,016_y_m_n_a.png,O,z,1506,17,1,2519.899999976158,237533.30000001192,7091,VNB,B,16
12,test,1,0.0,1-Back,1,m,Wed Mar 26 2025 15:46:11 GMT-0500 (Central Daylight Time),241885.69999998808,005_o_f_h_a.png,O,m,780,18,1,1801.5,240084.19999998808,7091,VNB,B,17
0,test,2,0.0,1-Back,,,Wed Mar 26 2025 15:46:11 GMT-0500 (Central Daylight Time),241885.69999998808,016_y_m_n_a.png,O,space,1491,1,1,1801.5,240084.19999998808,7091,VNB,B,0
1,test,2,0.0,1-Back,1,m,Wed Mar 26 2025 15:46:11 GMT-0500 (Central Daylight Time),247717.19999998808,020_y_f_h_a.png,O,m,1089,2,1,2119.199999988079,245598.0,7091,VNB,B,1
2,test,2,1.0,1-Back,1,m,Wed Mar 26 2025 15:46:11 GMT-0500 (Central Daylight Time),249816.60000002384,004_o_m_n_a.png,O,m,1052,3,1,2075.5,247741.10000002384,7091,VNB,B,2
3,test,2,0.0,1-Back,1,m,Wed Mar 26 2025 15:46:11 GMT-0500 (Central Daylight Time),251616.0,011_m_f_d_a.png,O,m,763,4,1,1771.3999999761581,249844.60000002384,7091,VNB,B,3
4,test,2,0.0,1-Back,1,z,Wed Mar 26 2025 15:46:11 GMT-0500 (Central Daylight Time),254014.10000002384,007_m_m_d_a.png,O,z,1335,5,1,2372.699999988079,251641.40000003576,7091,VNB,B,4
5,test,2,0.0,1-Back,1,m,Wed Mar 26 2025 15:46:11 GMT-0500 (Central Daylight Time),255831.10000002384,016_y_m_h_a.png,O,m,795,6,1,1812.5,254018.60000002384,7091,VNB,B,5
6,test,2,1.0,1-Back,1,z,Wed Mar 26 2025 15:46:11 GMT-0500 (Central Daylight Time),257480.60000002384,005_o_f_h_a.png,O,z,610,7,1,1623.9000000357628,255856.69999998808,7091,VNB,B,6
7,test,2,0.0,1-Back,1,m,Wed Mar 26 2025 15:46:11 GMT-0500 (Central Daylight Time),259197.19999998808,011_m_f_n_a.png,O,m,681,8,1,1690.7999999523163,257506.40000003576,7091,VNB,B,7
8,test,2,0.0,1-Back,1,m,Wed Mar 26 2025 15:46:11 GMT-0500 (Central Daylight Time),261046.0,020_y_f_d_a.png,O,m,805,9,1,1821.8999999761581,259224.10000002384,7091,VNB,B,8
8,test,2,0.0,1-Back,0,m,Wed Mar 26 2025 15:46:11 GMT-0500 (Central Daylight Time),263195.40000003576,007_m_m_n_a.png,O,z,1091,10,1,2116.7000000476837,261078.69999998808,7091,VNB,B,9
9,test,2,1.0,1-Back,1,m,Wed Mar 26 2025 15:46:11 GMT-0500 (Central Daylight Time),264977.90000003576,011_m_f_h_a.png,O,m,742,11,1,1758.2000000476837,263219.6999999881,7091,VNB,B,10
10,test,2,0.0,1-Back,1,z,Wed Mar 26 2025 15:46:11 GMT-0500 (Central Daylight Time),267044.90000003576,004_o_m_h_a.png,O,z,1015,12,1,2036.1000000238419,265008.8000000119,7091,VNB,B,11
11,test,2,0.0,1-Back,1,m,Wed Mar 26 2025 15:46:11 GMT-0500 (Central Daylight Time),268859.60000002384,016_y_m_d_a.png,O,m,756,13,1,1783.5,267076.10000002384,7091,VNB,B,12
11,test,2,0.0,1-Back,0,m,Wed Mar 26 2025 15:46:11 GMT-0500 (Central Daylight Time),270893.6999999881,005_o_f_n_a.png,O,z,1015,14,1,2028.5999999642372,268865.10000002384,7091,VNB,B,13
12,test,2,0.0,1-Back,1,z,Wed Mar 26 2025 15:46:11 GMT-0500 (Central Daylight Time),272943.1999999881,020_y_f_n_a.png,O,z,1016,15,1,2022.199999988079,270921.0,7091,VNB,B,14
13,test,2,1.0,1-Back,1,m,Wed Mar 26 2025 15:46:11 GMT-0500 (Central Daylight Time),274524.90000003576,007_m_m_h_a.png,O,m,547,16,1,1555.7000000476837,272969.1999999881,7091,VNB,B,15
13,test,2,0.0,1-Back,0,m,Wed Mar 26 2025 15:46:11 GMT-0500 (Central Daylight Time),276757.60000002384,005_o_f_d_a.png,O,z,1190,17,1,2205.699999988079,274551.90000003576,7091,VNB,B,16
13,test,2,1.0,1-Back,0,z,Wed Mar 26 2025 15:46:11 GMT-0500 (Central Daylight Time),279323.60000002384,004_o_m_d_a.png,O,m,1516,18,1,2543.900000035763,276779.6999999881,7091,VNB,B,17
0,test,3,1.0,1-Back,,,Wed Mar 26 2025 15:46:11 GMT-0500 (Central Daylight Time),279323.60000002384,005_o_f_h_a.png,O,space,1598,1,1,2543.900000035763,276779.6999999881,7091,VNB,B,0
1,test,3,0.0,1-Back,1,m,Wed Mar 26 2025 15:46:11 GMT-0500 (Central Daylight Time),284889.3000000119,011_m_f_d_a.png,O,m,702,2,1,1731.6000000238419,283157.6999999881,7091,VNB,B,1
1,test,3,1.0,1-Back,0,m,Wed Mar 26 2025 15:46:11 GMT-0500 (Central Daylight Time),286971.0,007_m_m_n_a.png,O,z,1033,3,1,2055.800000011921,284915.1999999881,7091,VNB,B,2
2,test,3,0.0,1-Back,1,z,Wed Mar 26 2025 15:46:11 GMT-0500 (Central Daylight Time),288953.6999999881,005_o_f_n_a.png,O,z,946,4,1,1954.699999988079,286999.0,7091,VNB,B,3
2,test,3,1.0,1-Back,0,m,Wed Mar 26 2025 15:46:11 GMT-0500 (Central Daylight Time),290969.60000002384,004_o_m_d_a.png,O,z,951,5,1,1982.9000000357628,288986.6999999881,7091,VNB,B,4
3,test,3,0.0,1-Back,1,m,Wed Mar 26 2025 15:46:11 GMT-0500 (Central Daylight Time),292735.6999999881,020_y_f_h_a.png,O,m,720,6,1,1738.0999999642372,290997.60000002384,7091,VNB,B,5
4,test,3,0.0,1-Back,1,z,Wed Mar 26 2025 15:46:11 GMT-0500 (Central Daylight Time),294551.8000000119,016_y_m_h_a.png,O,z,778,7,1,1784.3999999761581,292767.40000003576,7091,VNB,B,6
5,test,3,0.0,1-Back,1,m,Wed Mar 26 2025 15:46:11 GMT-0500 (Central Daylight Time),296367.90000003576,011_m_f_n_a.png,O,m,753,8,1,1784.9000000357628,294583.0,7091,VNB,B,7
6,test,3,0.0,1-Back,1,m,Wed Mar 26 2025 15:46:11 GMT-0500 (Central Daylight Time),298900.5,020_y_f_d_a.png,O,m,1491,9,1,2504.300000011921,296396.1999999881,7091,VNB,B,8
6,test,3,1.0,1-Back,0,m,Wed Mar 26 2025 15:46:11 GMT-0500 (Central Daylight Time),301416.3000000119,004_o_m_n_a.png,O,z,1477,10,1,2492.800000011921,298923.5,7091,VNB,B,9
7,test,3,0.0,1-Back,1,m,Wed Mar 26 2025 15:46:11 GMT-0500 (Central Daylight Time),303198.8000000119,007_m_m_h_a.png,O,m,745,11,1,1759.300000011921,301439.5,7091,VNB,B,10
8,test,3,0.0,1-Back,1,z,Wed Mar 26 2025 15:46:11 GMT-0500 (Central Daylight Time),304798.1999999881,011_m_f_h_a.png,O,z,562,12,1,1575.0999999642372,303223.10000002384,7091,VNB,B,11
9,test,3,1.0,1-Back,1,m,Wed Mar 26 2025 15:46:11 GMT-0500 (Central Daylight Time),306681.10000002384,005_o_f_d_a.png,O,m,837,13,1,1855.300000011921,304825.8000000119,7091,VNB,B,12
10,test,3,0.0,1-Back,1,z,Wed Mar 26 2025 15:46:11 GMT-0500 (Central Daylight Time),308697.10000002384,007_m_m_d_a.png,O,z,969,14,1,1991.300000011921,306705.8000000119,7091,VNB,B,13
10,test,3,0.0,1-Back,0,m,Wed Mar 26 2025 15:46:11 GMT-0500 (Central Daylight Time),310729.5,016_y_m_n_a.png,O,z,994,15,1,2010.8999999761581,308718.60000002384,7091,VNB,B,14
11,test,3,1.0,1-Back,1,m,Wed Mar 26 2025 15:46:11 GMT-0500 (Central Daylight Time),312762.40000003576,004_o_m_h_a.png,O,m,984,16,1,2010.2000000476837,310752.1999999881,7091,VNB,B,15
12,test,3,0.0,1-Back,1,m,Wed Mar 26 2025 15:46:11 GMT-0500 (Central Daylight Time),315461.60000002384,016_y_m_d_a.png,O,m,1655,17,1,2671.400000035763,312790.1999999881,7091,VNB,B,16
12,test,3,1.0,1-Back,0,m,Wed Mar 26 2025 15:46:11 GMT-0500 (Central Daylight Time),317760.8000000119,020_y_f_n_a.png,O,z,1252,18,1,2270.5,315490.3000000119,7091,VNB,B,17
0,test,4,1.0,1-Back,,,Wed Mar 26 2025 15:46:11 GMT-0500 (Central Daylight Time),317760.8000000119,007_m_m_d_a.png,O,space,2072,1,1,2270.5,315490.3000000119,7091,VNB,B,0
1,test,4,0.0,1-Back,1,z,Wed Mar 26 2025 15:46:11 GMT-0500 (Central Daylight Time),324158.8000000119,004_o_m_d_a.png,O,z,1104,2,1,2124.100000023842,322034.6999999881,7091,VNB,B,1
2,test,4,0.0,1-Back,1,m,Wed Mar 26 2025 15:46:11 GMT-0500 (Central Daylight Time),326091.6999999881,016_y_m_h_a.png,O,m,866,3,1,1900.5999999642372,324191.10000002384,7091,VNB,B,2
2,test,4,0.0,1-Back,0,m,Wed Mar 26 2025 15:46:11 GMT-0500 (Central Daylight Time),329140.40000003576,011_m_f_n_a.png,O,None,2014,4,1,3024.900000035763,326115.5,7091,VNB,B,3
3,test,4,1.0,1-Back,1,m,Wed Mar 26 2025 15:46:11 GMT-0500 (Central Daylight Time),331639.60000002384,005_o_f_h_a.png,O,m,1453,5,1,2469.5,329170.10000002384,7091,VNB,B,4
4,test,4,0.0,1-Back,1,m,Wed Mar 26 2025 15:46:11 GMT-0500 (Central Daylight Time),333355.90000003576,007_m_m_n_a.png,O,m,674,6,1,1692.1000000238419,331663.8000000119,7091,VNB,B,5
4,test,4,0.0,1-Back,0,m,Wed Mar 26 2025 15:46:11 GMT-0500 (Central Daylight Time),335321.60000002384,016_y_m_d_a.png,O,z,901,7,1,1939.300000011921,333382.3000000119,7091,VNB,B,6
4,test,4,1.0,1-Back,0,z,Wed Mar 26 2025 15:46:11 GMT-0500 (Central Daylight Time),337354.3000000119,020_y_f_d_a.png,O,m,992,8,1,2002.3999999761581,335351.90000003576,7091,VNB,B,7
4,test,4,0.0,1-Back,0,m,Wed Mar 26 2025 15:46:11 GMT-0500 (Central Daylight Time),339569.60000002384,011_m_f_h_a.png,O,z,1158,9,1,2187.800000011921,337381.8000000119,7091,VNB,B,8
5,test,4,0.0,1-Back,1,z,Wed Mar 26 2025 15:46:11 GMT-0500 (Central Daylight Time),341269.40000003576,004_o_m_h_a.png,O,z,680,10,1,1687.7000000476837,339581.6999999881,7091,VNB,B,9
6,test,4,1.0,1-Back,1,m,Wed Mar 26 2025 15:46:11 GMT-0500 (Central Daylight Time),342886.0,005_o_f_n_a.png,O,m,580,11,1,1593.800000011921,341292.1999999881,7091,VNB,B,10
6,test,4,0.0,1-Back,0,m,Wed Mar 26 2025 15:46:11 GMT-0500 (Central Daylight Time),344851.8000000119,011_m_f_d_a.png,O,z,924,12,1,1940.1000000238419,342911.6999999881,7091,VNB,B,11
6,test,4,0.0,1-Back,0,m,Wed Mar 26 2025 15:46:11 GMT-0500 (Central Daylight Time),347717.5,020_y_f_n_a.png,O,z,1829,13,1,2844.0,344873.5,7091,VNB,B,12
6,test,4,0.0,1-Back,0,m,Wed Mar 26 2025 15:46:11 GMT-0500 (Central Daylight Time),349650.1999999881,005_o_f_d_a.png,O,z,892,14,1,1906.3999999761581,347743.8000000119,7091,VNB,B,13
7,test,4,0.0,1-Back,1,m,Wed Mar 26 2025 15:46:11 GMT-0500 (Central Daylight Time),351532.90000003576,020_y_f_h_a.png,O,m,839,15,1,1859.1000000238419,349673.8000000119,7091,VNB,B,14
8,test,4,1.0,1-Back,1,z,Wed Mar 26 2025 15:46:11 GMT-0500 (Central Daylight Time),353782.1999999881,007_m_m_h_a.png,O,z,1212,16,1,2230.399999976158,351551.8000000119,7091,VNB,B,15
9,test,4,0.0,1-Back,1,m,Wed Mar 26 2025 15:46:11 GMT-0500 (Central Daylight Time),355749.0,004_o_m_n_a.png,O,m,931,17,1,1942.8999999761581,353806.10000002384,7091,VNB,B,16
10,test,4,1.0,1-Back,1,z,Wed Mar 26 2025 15:46:11 GMT-0500 (Central Daylight Time),357747.90000003576,016_y_m_n_a.png,O,z,957,18,1,1968.6000000238419,355779.3000000119,7091,VNB,B,17
0,test,5,1.0,1-Back,,,Wed Mar 26 2025 15:46:11 GMT-0500 (Central Daylight Time),357747.90000003576,004_o_m_n_a.png,O,space,1510,1,1,1968.6000000238419,355779.3000000119,7091,VNB,B,0
0,test,5,1.0,1-Back,0,m,Wed Mar 26 2025 15:46:11 GMT-0500 (Central Daylight Time),364312.40000003576,005_o_f_h_a.png,O,None,2014,2,1,3022.900000035763,361289.5,7091,VNB,B,1
1,test,5,0.0,1-Back,1,m,Wed Mar 26 2025 15:46:11 GMT-0500 (Central Daylight Time),366677.90000003576,016_y_m_d_a.png,O,m,1322,3,1,2341.300000011921,364336.60000002384,7091,VNB,B,2
2,test,5,0.0,1-Back,1,z,Wed Mar 26 2025 15:46:11 GMT-0500 (Central Daylight Time),369177.3000000119,004_o_m_d_a.png,O,z,1451,4,1,2473.5,366703.8000000119,7091,VNB,B,3
3,test,5,0.0,1-Back,1,m,Wed Mar 26 2025 15:46:11 GMT-0500 (Central Daylight Time),371060.60000002384,011_m_f_h_a.png,O,m,832,5,1,1853.9000000357628,369206.6999999881,7091,VNB,B,4
4,test,5,0.0,1-Back,1,m,Wed Mar 26 2025 15:46:11 GMT-0500 (Central Daylight Time),373009.10000002384,020_y_f_n_a.png,O,m,911,6,1,1924.5,371084.60000002384,7091,VNB,B,5
5,test,5,1.0,1-Back,1,z,Wed Mar 26 2025 15:46:11 GMT-0500 (Central Daylight Time),375557.5,005_o_f_n_a.png,O,z,1510,7,1,2524.0,373033.5,7091,VNB,B,6
5,test,5,0.0,1-Back,0,m,Wed Mar 26 2025 15:46:11 GMT-0500 (Central Daylight Time),377657.8000000119,011_m_f_d_a.png,O,z,1068,8,1,2095.800000011921,375562.0,7091,VNB,B,7
6,test,5,0.0,1-Back,1,m,Wed Mar 26 2025 15:46:11 GMT-0500 (Central Daylight Time),379340.40000003576,016_y_m_h_a.png,O,m,640,9,1,1657.300000011921,377683.10000002384,7091,VNB,B,8
7,test,5,0.0,1-Back,1,m,Wed Mar 26 2025 15:46:11 GMT-0500 (Central Daylight Time),381323.3000000119,020_y_f_d_a.png,O,m,933,10,1,1956.5,379366.8000000119,7091,VNB,B,9
7,test,5,0.0,1-Back,0,m,Wed Mar 26 2025 15:46:11 GMT-0500 (Central Daylight Time),383455.6999999881,007_m_m_n_a.png,O,z,1094,11,1,2109.0,381346.6999999881,7091,VNB,B,10
7,test,5,1.0,1-Back,0,z,Wed Mar 26 2025 15:46:11 GMT-0500 (Central Daylight Time),385672.0,011_m_f_n_a.png,O,m,1178,12,1,2186.399999976158,383485.60000002384,7091,VNB,B,11
8,test,5,0.0,1-Back,1,m,Wed Mar 26 2025 15:46:11 GMT-0500 (Central Daylight Time),387704.40000003576,004_o_m_h_a.png,O,m,994,13,1,2008.9000000357628,385695.5,7091,VNB,B,12
9,test,5,0.0,1-Back,1,z,Wed Mar 26 2025 15:46:11 GMT-0500 (Central Daylight Time),389387.10000002384,007_m_m_h_a.png,O,z,641,14,1,1653.4000000357628,387733.6999999881,7091,VNB,B,13
10,test,5,1.0,1-Back,1,m,Wed Mar 26 2025 15:46:11 GMT-0500 (Central Daylight Time),391419.90000003576,005_o_f_d_a.png,O,m,990,15,1,2006.2000000476837,389413.6999999881,7091,VNB,B,14
10,test,5,0.0,1-Back,0,m,Wed Mar 26 2025 15:46:11 GMT-0500 (Central Daylight Time),393585.90000003576,016_y_m_n_a.png,O,z,1117,16,1,2135.0,391450.90000003576,7091,VNB,B,15
11,test,5,0.0,1-Back,1,m,Wed Mar 26 2025 15:46:11 GMT-0500 (Central Daylight Time),395352.0,020_y_f_h_a.png,O,m,728,17,1,1739.300000011921,393612.6999999881,7091,VNB,B,16
12,test,5,0.0,1-Back,1,m,Wed Mar 26 2025 15:46:11 GMT-0500 (Central Daylight Time),397251.3000000119,007_m_m_d_a.png,O,m,850,18,1,1869.5,395381.8000000119,7091,VNB,B,17
0,prac,1,0.0,2-Back,,,Wed Mar 26 2025 15:46:11 GMT-0500 (Central Daylight Time),397251.3000000119,011_m_f_n_a.png,O,space,10144,1,1,1869.5,395381.8000000119,7091,VNB,B,0
0,prac,1,0.0,2-Back,,,Wed Mar 26 2025 15:46:11 GMT-0500 (Central Daylight Time),397251.3000000119,005_o_f_h_a.png,O,space,10144,2,1,1869.5,395381.8000000119,7091,VNB,B,0
0,prac,1,0.0,2-Back,0,m,Wed Mar 26 2025 15:46:11 GMT-0500 (Central Daylight Time),506615.60000002384,004_o_m_d_a.png,O,z,1243,3,1,2150.5,504465.10000002384,7091,VNB,B,1
1,prac,1,1.0,2-Back,1,z,Wed Mar 26 2025 15:46:11 GMT-0500 (Central Daylight Time),509364.60000002384,007_m_m_h_a.png,O,z,1777,4,1,2710.600000023842,506654.0,7091,VNB,B,2
1,prac,1,0.0,2-Back,0,m,Wed Mar 26 2025 15:46:11 GMT-0500 (Central Daylight Time),512396.0,020_y_f_n_a.png,O,None,2006,5,1,3005.099999964237,509390.90000003576,7091,VNB,B,3
1,prac,1,1.0,2-Back,0,z,Wed Mar 26 2025 15:46:11 GMT-0500 (Central Daylight Time),514961.8000000119,004_o_m_h_a.png,O,m,1646,6,1,2554.800000011921,512407.0,7091,VNB,B,4
2,prac,1,1.0,2-Back,1,z,Wed Mar 26 2025 15:46:11 GMT-0500 (Central Daylight Time),517261.1999999881,016_y_m_n_a.png,O,z,1304,7,1,2248.699999988079,515012.5,7091,VNB,B,5
3,prac,1,0.0,2-Back,1,m,Wed Mar 26 2025 15:46:11 GMT-0500 (Central Daylight Time),519660.1999999881,011_m_f_d_a.png,O,m,1462,8,1,2391.0,517269.1999999881,7091,VNB,B,6
4,prac,1,0.0,2-Back,1,m,Wed Mar 26 2025 15:46:11 GMT-0500 (Central Daylight Time),521643.1999999881,005_o_f_d_a.png,O,m,1022,9,1,1972.5,519670.6999999881,7091,VNB,B,7
4,prac,1,0.0,2-Back,0,m,Wed Mar 26 2025 15:46:11 GMT-0500 (Central Daylight Time),523376.10000002384,007_m_m_h_a.png,O,z,801,10,1,1718.0,521658.10000002384,7091,VNB,B,8
4,prac,1,1.0,2-Back,0,z,Wed Mar 26 2025 15:46:11 GMT-0500 (Central Daylight Time),526308.6000000238,020_y_f_d_a.png,O,None,2009,11,1,2914.5,523394.10000002384,7091,VNB,B,9
5,prac,1,0.0,2-Back,1,m,Wed Mar 26 2025 15:46:11 GMT-0500 (Central Daylight Time),528491.6999999881,004_o_m_n_a.png,O,m,1263,12,1,2156.399999976158,526335.3000000119,7091,VNB,B,10
0,prac,2,0.0,2-Back,,,Wed Mar 26 2025 15:46:11 GMT-0500 (Central Daylight Time),528491.6999999881,011_m_f_n_a.png,O,a,5683,1,1,2156.399999976158,526335.3000000119,7091,VNB,B,0
0,prac,2,0.0,2-Back,,,Wed Mar 26 2025 15:46:11 GMT-0500 (Central Daylight Time),528491.6999999881,005_o_f_h_a.png,O,a,5683,2,1,2156.399999976158,526335.3000000119,7091,VNB,B,0
1,prac,2,0.0,2-Back,1,m,Wed Mar 26 2025 15:46:11 GMT-0500 (Central Daylight Time),542036.9000000358,004_o_m_d_a.png,O,m,1517,3,1,2411.0,539625.9000000358,7091,VNB,B,1
1,prac,2,1.0,2-Back,0,z,Wed Mar 26 2025 15:46:11 GMT-0500 (Central Daylight Time),544286.1000000238,007_m_m_h_a.png,O,m,1287,4,1,2212.300000011921,542073.8000000119,7091,VNB,B,2
2,prac,2,0.0,2-Back,1,m,Wed Mar 26 2025 15:46:11 GMT-0500 (Central Daylight Time),547168.9000000358,020_y_f_n_a.png,O,m,1943,5,1,2848.100000023842,544320.8000000119,7091,VNB,B,3
3,prac,2,1.0,2-Back,1,z,Wed Mar 26 2025 15:46:11 GMT-0500 (Central Daylight Time),549051.4000000358,004_o_m_h_a.png,O,z,955,6,1,1845.6000000238419,547205.8000000119,7091,VNB,B,4
3,prac,2,1.0,2-Back,0,z,Wed Mar 26 2025 15:46:11 GMT-0500 (Central Daylight Time),550784.3000000119,016_y_m_n_a.png,O,m,780,7,1,1702.300000011921,549082.0,7091,VNB,B,5
3,prac,2,0.0,2-Back,0,m,Wed Mar 26 2025 15:46:11 GMT-0500 (Central Daylight Time),552950.4000000358,011_m_f_d_a.png,O,z,1211,8,1,2129.800000011921,550820.6000000238,7091,VNB,B,6
3,prac,2,0.0,2-Back,0,m,Wed Mar 26 2025 15:46:11 GMT-0500 (Central Daylight Time),555899.6999999881,005_o_f_d_a.png,O,None,2010,9,1,2918.099999964237,552981.6000000238,7091,VNB,B,7
4,prac,2,0.0,2-Back,1,m,Wed Mar 26 2025 15:46:11 GMT-0500 (Central Daylight Time),557864.3000000119,007_m_m_h_a.png,O,m,1151,10,1,1926.800000011921,555937.5,7091,VNB,B,8
5,prac,2,1.0,2-Back,1,z,Wed Mar 26 2025 15:46:11 GMT-0500 (Central Daylight Time),559547.0,020_y_f_d_a.png,O,z,784,11,1,1675.5999999642372,557871.4000000358,7091,VNB,B,9
5,prac,2,0.0,2-Back,0,m,Wed Mar 26 2025 15:46:11 GMT-0500 (Central Daylight Time),561930.6999999881,004_o_m_n_a.png,O,z,1473,12,1,2372.899999976158,559557.8000000119,7091,VNB,B,10
0,test,1,0.0,2-Back,,,Wed Mar 26 2025 15:46:11 GMT-0500 (Central Daylight Time),561930.6999999881,016_y_m_h_a.png,O,space,15994,1,1,2372.899999976158,559557.8000000119,7091,VNB,B,0
0,test,1,0.0,2-Back,,,Wed Mar 26 2025 15:46:11 GMT-0500 (Central Daylight Time),561930.6999999881,005_o_f_n_a.png,O,space,15994,2,1,2372.899999976158,559557.8000000119,7091,VNB,B,0
1,test,1,0.0,2-Back,1,z,Wed Mar 26 2025 15:46:11 GMT-0500 (Central Daylight Time),591804.4000000358,004_o_m_h_a.png,O,z,1115,3,1,2141.100000023842,589663.3000000119,7091,VNB,B,1
1,test,1,0.0,2-Back,0,m,Wed Mar 26 2025 15:46:11 GMT-0500 (Central Daylight Time),593820.8000000119,011_m_f_d_a.png,O,z,965,4,1,1986.0,591834.8000000119,7091,VNB,B,2
2,test,1,1.0,2-Back,1,m,Wed Mar 26 2025 15:46:11 GMT-0500 (Central Daylight Time),595952.8000000119,016_y_m_n_a.png,O,m,1077,5,1,2098.199999988079,593854.6000000238,7091,VNB,B,3
2,test,1,0.0,2-Back,0,z,Wed Mar 26 2025 15:46:11 GMT-0500 (Central Daylight Time),598539.5,020_y_f_d_a.png,O,m,1552,6,1,2563.399999976158,595976.1000000238,7091,VNB,B,4
3,test,1,0.0,2-Back,1,m,Wed Mar 26 2025 15:46:11 GMT-0500 (Central Daylight Time),601067.6999999881,007_m_m_h_a.png,O,m,1499,7,1,2521.7999999523163,598545.9000000358,7091,VNB,B,5
3,test,1,1.0,2-Back,0,m,Wed Mar 26 2025 15:46:11 GMT-0500 (Central Daylight Time),603883.6000000238,020_y_f_n_a.png,O,z,1774,8,1,2789.300000011921,601094.3000000119,7091,VNB,B,6
4,test,1,0.0,2-Back,1,z,Wed Mar 26 2025 15:46:11 GMT-0500 (Central Daylight Time),606115.8000000119,005_o_f_h_a.png,O,z,1178,9,1,2202.600000023842,603913.1999999881,7091,VNB,B,7
5,test,1,0.0,2-Back,1,m,Wed Mar 26 2025 15:46:11 GMT-0500 (Central Daylight Time),608248.6000000238,004_o_m_d_a.png,O,m,1069,10,1,2094.400000035763,606154.1999999881,7091,VNB,B,8
5,test,1,1.0,2-Back,0,m,Wed Mar 26 2025 15:46:11 GMT-0500 (Central Daylight Time),610347.8000000119,007_m_m_d_a.png,O,z,1040,11,1,2066.0,608281.8000000119,7091,VNB,B,9
5,test,1,0.0,2-Back,0,m,Wed Mar 26 2025 15:46:11 GMT-0500 (Central Daylight Time),612830.4000000358,011_m_f_n_a.png,O,z,1421,12,1,2447.100000023842,610383.3000000119,7091,VNB,B,10
6,test,1,0.0,2-Back,1,m,Wed Mar 26 2025 15:46:11 GMT-0500 (Central Daylight Time),615246.1000000238,020_y_f_h_a.png,O,m,1371,13,1,2388.300000011921,612857.8000000119,7091,VNB,B,11
7,test,1,0.0,2-Back,1,z,Wed Mar 26 2025 15:46:11 GMT-0500 (Central Daylight Time),617545.5,007_m_m_n_a.png,O,z,1244,14,1,2261.599999964237,615283.9000000358,7091,VNB,B,12
7,test,1,0.0,2-Back,0,m,Wed Mar 26 2025 15:46:11 GMT-0500 (Central Daylight Time),620194.8000000119,016_y_m_d_a.png,O,z,1608,15,1,2626.600000023842,617568.1999999881,7091,VNB,B,13
8,test,1,1.0,2-Back,1,m,Wed Mar 26 2025 15:46:11 GMT-0500 (Central Daylight Time),622127.5,011_m_f_h_a.png,O,m,887,16,1,1902.0999999642372,620225.4000000358,7091,VNB,B,14
8,test,1,0.0,2-Back,0,z,Wed Mar 26 2025 15:46:11 GMT-0500 (Central Daylight Time),625093.5,005_o_f_d_a.png,O,m,1931,17,1,2938.599999964237,622154.9000000358,7091,VNB,B,15
8,test,1,0.0,2-Back,0,m,Wed Mar 26 2025 15:46:11 GMT-0500 (Central Daylight Time),627108.9000000358,004_o_m_n_a.png,O,z,980,18,1,1987.300000011921,625121.6000000238,7091,VNB,B,16
0,test,2,0.0,2-Back,,,Wed Mar 26 2025 15:46:11 GMT-0500 (Central Daylight Time),627108.9000000358,007_m_m_h_a.png,O,space,1589,1,1,1987.300000011921,625121.6000000238,7091,VNB,B,0
0,test,2,0.0,2-Back,,,Wed Mar 26 2025 15:46:11 GMT-0500 (Central Daylight Time),627108.9000000358,020_y_f_n_a.png,O,space,1589,2,1,1987.300000011921,625121.6000000238,7091,VNB,B,0
1,test,2,1.0,2-Back,1,z,Wed Mar 26 2025 15:46:11 GMT-0500 (Central Daylight Time),635956.1000000238,005_o_f_h_a.png,O,z,799,3,1,1833.1000000238419,634123.0,7091,VNB,B,1
2,test,2,0.0,2-Back,1,m,Wed Mar 26 2025 15:46:11 GMT-0500 (Central Daylight Time),638255.1999999881,004_o_m_d_a.png,O,m,1262,4,1,2271.7999999523163,635983.4000000358,7091,VNB,B,2
2,test,2,0.0,2-Back,0,m,Wed Mar 26 2025 15:46:11 GMT-0500 (Central Daylight Time),640937.9000000358,011_m_f_d_a.png,O,z,1640,5,1,2658.7000000476837,638279.1999999881,7091,VNB,B,3
3,test,2,0.0,2-Back,1,m,Wed Mar 26 2025 15:46:11 GMT-0500 (Central Daylight Time),642920.5,016_y_m_h_a.png,O,m,944,6,1,1954.3999999761581,640966.1000000238,7091,VNB,B,4
3,test,2,0.0,2-Back,0,m,Wed Mar 26 2025 15:46:11 GMT-0500 (Central Daylight Time),644953.3000000119,005_o_f_n_a.png,O,z,993,7,1,2008.0,642945.3000000119,7091,VNB,B,5
4,test,2,1.0,2-Back,1,z,Wed Mar 26 2025 15:46:11 GMT-0500 (Central Daylight Time),647085.6999999881,004_o_m_h_a.png,O,z,1097,8,1,2104.0,644981.6999999881,7091,VNB,B,6
5,test,2,0.0,2-Back,1,m,Wed Mar 26 2025 15:46:11 GMT-0500 (Central Daylight Time),649468.4000000358,020_y_f_d_a.png,O,m,1332,9,1,2352.800000011921,647115.6000000238,7091,VNB,B,7
5,test,2,0.0,2-Back,0,m,Wed Mar 26 2025 15:46:11 GMT-0500 (Central Daylight Time),651801.0,016_y_m_d_a.png,O,z,1286,10,1,2307.399999976158,649493.6000000238,7091,VNB,B,8
5,test,2,0.0,2-Back,0,m,Wed Mar 26 2025 15:46:11 GMT-0500 (Central Daylight Time),653883.8000000119,007_m_m_n_a.png,O,z,1041,11,1,2057.100000023842,651826.6999999881,7091,VNB,B,9
6,test,2,0.0,2-Back,1,m,Wed Mar 26 2025 15:46:11 GMT-0500 (Central Daylight Time),655682.8000000119,011_m_f_h_a.png,O,m,749,12,1,1774.199999988079,653908.6000000238,7091,VNB,B,10
6,test,2,1.0,2-Back,0,z,Wed Mar 26 2025 15:46:11 GMT-0500 (Central Daylight Time),658732.1999999881,004_o_m_n_a.png,O,None,2016,13,1,3032.899999976158,655699.3000000119,7091,VNB,B,11
7,test,2,0.0,2-Back,1,m,Wed Mar 26 2025 15:46:11 GMT-0500 (Central Daylight Time),660563.8000000119,005_o_f_d_a.png,O,m,789,14,1,1807.6000000238419,658756.1999999881,7091,VNB,B,12
8,test,2,0.0,2-Back,1,m,Wed Mar 26 2025 15:46:11 GMT-0500 (Central Daylight Time),662880.8000000119,020_y_f_h_a.png,O,m,1286,15,1,2306.699999988079,660574.1000000238,7091,VNB,B,13
9,test,2,0.0,2-Back,1,z,Wed Mar 26 2025 15:46:11 GMT-0500 (Central Daylight Time),664980.8000000119,007_m_m_d_a.png,O,z,1048,16,1,2065.699999988079,662915.1000000238,7091,VNB,B,14
9,test,2,0.0,2-Back,0,m,Wed Mar 26 2025 15:46:11 GMT-0500 (Central Daylight Time),667529.1000000238,016_y_m_n_a.png,O,z,1501,17,1,2524.600000023842,665004.5,7091,VNB,B,15
9,test,2,1.0,2-Back,0,m,Wed Mar 26 2025 15:46:11 GMT-0500 (Central Daylight Time),670110.8000000119,011_m_f_n_a.png,O,z,1519,18,1,2547.399999976158,667563.4000000358,7091,VNB,B,16
0,test,3,1.0,2-Back,,,Wed Mar 26 2025 15:46:11 GMT-0500 (Central Daylight Time),670110.8000000119,004_o_m_n_a.png,O,space,1565,1,1,2547.399999976158,667563.4000000358,7091,VNB,B,0
0,test,3,1.0,2-Back,,,Wed Mar 26 2025 15:46:11 GMT-0500 (Central Daylight Time),670110.8000000119,005_o_f_d_a.png,O,space,1565,2,1,2547.399999976158,667563.4000000358,7091,VNB,B,0
1,test,3,0.0,2-Back,1,m,Wed Mar 26 2025 15:46:11 GMT-0500 (Central Daylight Time),679425.1999999881,020_y_f_h_a.png,O,m,1326,3,1,2351.7999999523163,677073.4000000358,7091,VNB,B,1
2,test,3,0.0,2-Back,1,z,Wed Mar 26 2025 15:46:11 GMT-0500 (Central Daylight Time),681857.8000000119,011_m_f_d_a.png,O,z,1386,4,1,2408.0,679449.8000000119,7091,VNB,B,2
3,test,3,1.0,2-Back,1,m,Wed Mar 26 2025 15:46:11 GMT-0500 (Central Daylight Time),684773.4000000358,016_y_m_n_a.png,O,m,1874,5,1,2889.0,681884.4000000358,7091,VNB,B,3
4,test,3,0.0,2-Back,1,m,Wed Mar 26 2025 15:46:11 GMT-0500 (Central Daylight Time),687072.6000000238,004_o_m_h_a.png,O,m,1252,6,1,2277.699999988079,684794.9000000358,7091,VNB,B,4
4,test,3,0.0,2-Back,0,z,Wed Mar 26 2025 15:46:11 GMT-0500 (Central Daylight Time),690121.9000000358,020_y_f_n_a.png,O,None,2014,7,1,3024.0,687097.9000000358,7091,VNB,B,5
5,test,3,1.0,2-Back,1,m,Wed Mar 26 2025 15:46:11 GMT-0500 (Central Daylight Time),691888.6000000238,007_m_m_d_a.png,O,m,729,8,1,1741.6000000238419,690147.0,7091,VNB,B,6
6,test,3,0.0,2-Back,1,m,Wed Mar 26 2025 15:46:11 GMT-0500 (Central Daylight Time),694486.9000000358,016_y_m_d_a.png,O,m,1545,9,1,2562.300000011921,691924.6000000238,7091,VNB,B,7
7,test,3,0.0,2-Back,1,m,Wed Mar 26 2025 15:46:11 GMT-0500 (Central Daylight Time),696735.4000000358,005_o_f_h_a.png,O,m,1210,10,1,2222.0,694513.4000000358,7091,VNB,B,8
7,test,3,1.0,2-Back,0,m,Wed Mar 26 2025 15:46:11 GMT-0500 (Central Daylight Time),699352.1000000238,011_m_f_n_a.png,O,z,1594,11,1,2612.199999988079,696739.9000000358,7091,VNB,B,9
7,test,3,1.0,2-Back,0,z,Wed Mar 26 2025 15:46:11 GMT-0500 (Central Daylight Time),701218.0,007_m_m_h_a.png,O,m,825,12,1,1841.699999988079,699376.3000000119,7091,VNB,B,10
7,test,3,0.0,2-Back,0,m,Wed Mar 26 2025 15:46:11 GMT-0500 (Central Daylight Time),704017.1000000238,020_y_f_d_a.png,O,z,1735,13,1,2770.699999988079,701246.4000000358,7091,VNB,B,11
8,test,3,0.0,2-Back,1,m,Wed Mar 26 2025 15:46:11 GMT-0500 (Central Daylight Time),706849.6000000238,005_o_f_n_a.png,O,m,1769,14,1,2805.900000035763,704043.6999999881,7091,VNB,B,12
9,test,3,0.0,2-Back,1,z,Wed Mar 26 2025 15:46:11 GMT-0500 (Central Daylight Time),709248.9000000358,004_o_m_d_a.png,O,z,1361,15,1,2374.900000035763,706874.0,7091,VNB,B,13
10,test,3,1.0,2-Back,1,m,Wed Mar 26 2025 15:46:11 GMT-0500 (Central Daylight Time),711831.1000000238,011_m_f_h_a.png,O,m,1546,16,1,2555.800000011921,709275.3000000119,7091,VNB,B,14
10,test,3,0.0,2-Back,0,m,Wed Mar 26 2025 15:46:11 GMT-0500 (Central Daylight Time),714430.1999999881,007_m_m_n_a.png,O,z,1562,17,1,2576.699999988079,711853.5,7091,VNB,B,15
10,test,3,0.0,2-Back,0,z,Wed Mar 26 2025 15:46:11 GMT-0500 (Central Daylight Time),716263.1000000238,016_y_m_h_a.png,O,m,795,18,1,1808.1000000238419,714455.0,7091,VNB,B,16
0,test,4,0.0,2-Back,,,Wed Mar 26 2025 15:46:11 GMT-0500 (Central Daylight Time),716263.1000000238,011_m_f_n_a.png,O,space,2775,1,1,1808.1000000238419,714455.0,7091,VNB,B,0
0,test,4,0.0,2-Back,,,Wed Mar 26 2025 15:46:11 GMT-0500 (Central Daylight Time),716263.1000000238,004_o_m_n_a.png,O,space,2775,2,1,1808.1000000238419,714455.0,7091,VNB,B,0
1,test,4,1.0,2-Back,1,m,Wed Mar 26 2025 15:46:11 GMT-0500 (Central Daylight Time),727075.3000000119,016_y_m_h_a.png,O,m,1641,3,1,2664.0,724411.3000000119,7091,VNB,B,1
1,test,4,1.0,2-Back,0,m,Wed Mar 26 2025 15:46:11 GMT-0500 (Central Daylight Time),729342.8000000119,005_o_f_d_a.png,O,z,1247,4,1,2263.0,727079.8000000119,7091,VNB,B,2
2,test,4,0.0,2-Back,1,z,Wed Mar 26 2025 15:46:11 GMT-0500 (Central Daylight Time),731274.9000000358,004_o_m_h_a.png,O,z,869,5,1,1899.0,729375.9000000358,7091,VNB,B,3
3,test,4,0.0,2-Back,1,m,Wed Mar 26 2025 15:46:11 GMT-0500 (Central Daylight Time),733623.6999999881,007_m_m_n_a.png,O,m,1285,6,1,2312.699999988079,731311.0,7091,VNB,B,4
4,test,4,0.0,2-Back,1,m,Wed Mar 26 2025 15:46:11 GMT-0500 (Central Daylight Time),735556.6999999881,011_m_f_d_a.png,O,m,889,7,1,1914.8999999761581,733641.8000000119,7091,VNB,B,5
4,test,4,0.0,2-Back,0,z,Wed Mar 26 2025 15:46:11 GMT-0500 (Central Daylight Time),738356.0,020_y_f_n_a.png,O,m,1746,8,1,2773.399999976158,735582.6000000238,7091,VNB,B,6
4,test,4,1.0,2-Back,0,m,Wed Mar 26 2025 15:46:11 GMT-0500 (Central Daylight Time),740071.9000000358,005_o_f_h_a.png,O,z,670,9,1,1685.5,738386.4000000358,7091,VNB,B,7
5,test,4,0.0,2-Back,1,m,Wed Mar 26 2025 15:46:11 GMT-0500 (Central Daylight Time),742970.6999999881,007_m_m_h_a.png,O,m,1841,10,1,2864.699999988079,740106.0,7091,VNB,B,8
5,test,4,0.0,2-Back,0,m,Wed Mar 26 2025 15:46:11 GMT-0500 (Central Daylight Time),745303.6000000238,020_y_f_d_a.png,O,z,1286,11,1,2307.600000023842,742996.0,7091,VNB,B,9
5,test,4,0.0,2-Back,0,m,Wed Mar 26 2025 15:46:11 GMT-0500 (Central Daylight Time),747669.4000000358,016_y_m_n_a.png,O,z,1320,12,1,2336.800000011921,745332.6000000238,7091,VNB,B,10
5,test,4,0.0,2-Back,0,z,Wed Mar 26 2025 15:46:11 GMT-0500 (Central Daylight Time),749852.4000000358,004_o_m_d_a.png,O,m,1132,13,1,2154.7000000476837,747697.6999999881,7091,VNB,B,11
6,test,4,1.0,2-Back,1,m,Wed Mar 26 2025 15:46:11 GMT-0500 (Central Daylight Time),752267.9000000358,011_m_f_h_a.png,O,m,1349,14,1,2380.100000023842,749887.8000000119,7091,VNB,B,12
7,test,4,1.0,2-Back,1,m,Wed Mar 26 2025 15:46:11 GMT-0500 (Central Daylight Time),755066.9000000358,020_y_f_h_a.png,O,m,1750,15,1,2776.300000011921,752290.6000000238,7091,VNB,B,13
7,test,4,0.0,2-Back,0,m,Wed Mar 26 2025 15:46:11 GMT-0500 (Central Daylight Time),757932.6000000238,005_o_f_n_a.png,O,z,1806,16,1,2829.5,755103.1000000238,7091,VNB,B,14
7,test,4,0.0,2-Back,0,m,Wed Mar 26 2025 15:46:11 GMT-0500 (Central Daylight Time),760981.6999999881,016_y_m_d_a.png,O,None,2014,17,1,3019.0,757962.6999999881,7091,VNB,B,15
7,test,4,1.0,2-Back,0,m,Wed Mar 26 2025 15:46:11 GMT-0500 (Central Daylight Time),763081.1000000238,007_m_m_d_a.png,O,z,1035,18,1,2060.199999988079,761020.9000000358,7091,VNB,B,16
0,test,5,1.0,2-Back,,,Wed Mar 26 2025 15:46:11 GMT-0500 (Central Daylight Time),763081.1000000238,020_y_f_d_a.png,O,space,1329,1,1,2060.199999988079,761020.9000000358,7091,VNB,B,0
0,test,5,1.0,2-Back,,,Wed Mar 26 2025 15:46:11 GMT-0500 (Central Daylight Time),763081.1000000238,005_o_f_h_a.png,O,space,1329,2,1,2060.199999988079,761020.9000000358,7091,VNB,B,0
0,test,5,1.0,2-Back,0,z,Wed Mar 26 2025 15:46:11 GMT-0500 (Central Daylight Time),772827.6000000238,004_o_m_d_a.png,O,m,1990,3,1,3017.900000035763,769809.6999999881,7091,VNB,B,1
0,test,5,1.0,2-Back,0,m,Wed Mar 26 2025 15:46:11 GMT-0500 (Central Daylight Time),775894.3000000119,011_m_f_n_a.png,O,None,2015,4,1,3033.199999988079,772861.1000000238,7091,VNB,B,2
1,test,5,0.0,2-Back,1,m,Wed Mar 26 2025 15:46:11 GMT-0500 (Central Daylight Time),778276.8000000119,007_m_m_h_a.png,O,m,1348,5,1,2357.0,775919.8000000119,7091,VNB,B,3
1,test,5,0.0,2-Back,0,z,Wed Mar 26 2025 15:46:11 GMT-0500 (Central Daylight Time),780675.4000000358,020_y_f_n_a.png,O,m,1350,6,1,2371.900000035763,778303.5,7091,VNB,B,4
2,test,5,0.0,2-Back,1,m,Wed Mar 26 2025 15:46:11 GMT-0500 (Central Daylight Time),782691.1999999881,005_o_f_d_a.png,O,m,974,7,1,1985.2999999523163,780705.9000000358,7091,VNB,B,5
3,test,5,0.0,2-Back,1,m,Wed Mar 26 2025 15:46:11 GMT-0500 (Central Daylight Time),785290.5,004_o_m_h_a.png,O,m,1550,8,1,2572.399999976158,782718.1000000238,7091,VNB,B,6
3,test,5,1.0,2-Back,0,z,Wed Mar 26 2025 15:46:11 GMT-0500 (Central Daylight Time),787574.1000000238,011_m_f_d_a.png,O,m,1222,9,1,2249.400000035763,785324.6999999881,7091,VNB,B,7
4,test,5,0.0,2-Back,1,m,Wed Mar 26 2025 15:46:11 GMT-0500 (Central Daylight Time),789322.3000000119,016_y_m_n_a.png,O,m,709,10,1,1719.3999999761581,787602.9000000358,7091,VNB,B,8
4,test,5,0.0,2-Back,0,m,Wed Mar 26 2025 15:46:11 GMT-0500 (Central Daylight Time),792188.3000000119,007_m_m_n_a.png,O,z,1815,11,1,2842.300000011921,789346.0,7091,VNB,B,9
5,test,5,0.0,2-Back,1,m,Wed Mar 26 2025 15:46:11 GMT-0500 (Central Daylight Time),794253.6999999881,020_y_f_h_a.png,O,m,1012,12,1,2033.8999999761581,792219.8000000119,7091,VNB,B,10
6,test,5,0.0,2-Back,1,m,Wed Mar 26 2025 15:46:11 GMT-0500 (Central Daylight Time),796437.0,016_y_m_d_a.png,O,m,1116,13,1,2151.300000011921,794285.6999999881,7091,VNB,B,11
6,test,5,1.0,2-Back,0,z,Wed Mar 26 2025 15:46:11 GMT-0500 (Central Daylight Time),798886.4000000358,011_m_f_h_a.png,O,m,1389,14,1,2418.900000035763,796467.5,7091,VNB,B,12
7,test,5,0.0,2-Back,1,m,Wed Mar 26 2025 15:46:11 GMT-0500 (Central Daylight Time),800835.1999999881,004_o_m_n_a.png,O,m,900,15,1,1920.699999988079,798914.5,7091,VNB,B,13
7,test,5,0.0,2-Back,0,m,Wed Mar 26 2025 15:46:11 GMT-0500 (Central Daylight Time),802884.9000000358,007_m_m_d_a.png,O,z,999,16,1,2020.7000000476837,800864.1999999881,7091,VNB,B,14
8,test,5,0.0,2-Back,1,z,Wed Mar 26 2025 15:46:11 GMT-0500 (Central Daylight Time),805717.0,005_o_f_n_a.png,O,z,1772,17,1,2797.599999964237,802919.4000000358,7091,VNB,B,15
9,test,5,1.0,2-Back,1,m,Wed Mar 26 2025 15:46:11 GMT-0500 (Central Daylight Time),808366.1999999881,016_y_m_h_a.png,O,m,1604,18,1,2620.2999999523163,805745.9000000358,7091,VNB,B,16
