block_c,block_dur,condition,countdown,datetime,endtime,list,multichar_response,project,response,response_time,session_number,start_end,starttime,subject_id,task,task_vers,trial
,,,,Wed Feb 05 2025 16:39:49 GMT-0600 (Central Standard Time),,,,O,space,1336,1,,,0,WL,B,
prac,,0,,Wed Feb 05 2025 16:39:49 GMT-0600 (Central Standard Time),,NA,b,O,b,8264,1,,,0,WL,B,1.0
prac,,0,,Wed Feb 05 2025 16:39:49 GMT-0600 (Central Standard Time),,NA,bo,O,o,607,1,,,0,WL,B,1.0
prac,,0,,Wed Feb 05 2025 16:39:49 GMT-0600 (Central Standard Time),,NA,boo,O,o,124,1,,,0,WL,B,1.0
prac,,0,,Wed Feb 05 2025 16:39:49 GMT-0600 (Central Standard Time),,NA,boos,O,s,122,1,,,0,WL,B,1.0
prac,,0,,Wed Feb 05 2025 16:39:49 GMT-0600 (Central Standard Time),,NA,boost,O,t,332,1,,,0,WL,B,1.0
prac,,0,,Wed Feb 05 2025 16:39:49 GMT-0600 (Central Standard Time),,NA,boostenter,O,enter,3181,1,,,0,WL,B,1.0
1,0.8159999847412109,learn,59184.00001525879,Wed Feb 05 2025 16:39:49 GMT-0600 (Central Standard Time),201370.2000002861,A,g,O,g,799,1,816.0,200554.2000002861,0,WL,B,1.0
1,1.0170001983642578,learn,58982.99980163574,Wed Feb 05 2025 16:39:49 GMT-0600 (Central Standard Time),201571.2000002861,A,gl,O,l,190,1,1017.0,200554.2000002861,0,WL,B,1.0
1,1.1150000095367432,learn,58884.99999046326,Wed Feb 05 2025 16:39:49 GMT-0600 (Central Standard Time),201669.09999990463,A,gla,O,a,74,1,1114.8999996185303,200554.2000002861,0,WL,B,1.0
1,1.4150002002716064,learn,58584.99979972839,Wed Feb 05 2025 16:39:49 GMT-0600 (Central Standard Time),201968.40000009537,A,glas,O,s,284,1,1414.1999998092651,200554.2000002861,0,WL,B,1.0
1,1.5820000171661377,learn,58417.99998283386,Wed Feb 05 2025 16:39:49 GMT-0600 (Central Standard Time),202135.2000002861,A,glass,O,s,153,1,1581.0,200554.2000002861,0,WL,B,1.0
1,1.748000144958496,learn,58251.999855041504,Wed Feb 05 2025 16:39:49 GMT-0600 (Central Standard Time),202301.40000009537,A,glassenter,O,enter,145,1,1747.1999998092651,200554.2000002861,0,WL,B,1.0
1,2.052000045776367,learn,57947.99995422363,Wed Feb 05 2025 16:39:49 GMT-0600 (Central Standard Time),202606.09999990463,A,s,O,s,296,1,304.2999997138977,202301.80000019073,0,WL,B,2.0
1,2.4160001277923584,learn,57583.99987220764,Wed Feb 05 2025 16:39:49 GMT-0600 (Central Standard Time),202969.40000009537,A,st,O,t,354,1,667.5999999046326,202301.80000019073,0,WL,B,2.0
1,2.5970001220703125,learn,57402.99987792969,Wed Feb 05 2025 16:39:49 GMT-0600 (Central Standard Time),203151.0,A,sto,O,o,174,1,849.1999998092651,202301.80000019073,0,WL,B,2.0
1,2.7130000591278076,learn,57286.99994087219,Wed Feb 05 2025 16:39:49 GMT-0600 (Central Standard Time),203266.80000019073,A,stor,O,r,107,1,965.0,202301.80000019073,0,WL,B,2.0
1,2.882000207901001,learn,57117.999792099,Wed Feb 05 2025 16:39:49 GMT-0600 (Central Standard Time),203435.59999990463,A,store,O,e,160,1,1133.7999997138977,202301.80000019073,0,WL,B,2.0
1,2.998000144958496,learn,57001.999855041504,Wed Feb 05 2025 16:39:49 GMT-0600 (Central Standard Time),203551.90000009537,A,storeenter,O,enter,103,1,1250.0999999046326,202301.80000019073,0,WL,B,2.0
1,4.299000024795532,learn,55700.99997520447,Wed Feb 05 2025 16:39:49 GMT-0600 (Central Standard Time),204852.80000019073,A,p,O,p,1289,1,1300.5999999046326,203552.2000002861,0,WL,B,3.0
1,4.564000129699707,learn,55435.99987030029,Wed Feb 05 2025 16:39:49 GMT-0600 (Central Standard Time),205117.90000009537,A,pu,O,u,252,1,1565.6999998092651,203552.2000002861,0,WL,B,3.0
1,5.183000087738037,learn,54816.99991226196,Wed Feb 05 2025 16:39:49 GMT-0600 (Central Standard Time),205736.5,A,pup,O,p,596,1,2184.2999997138977,203552.2000002861,0,WL,B,3.0
1,5.414000034332275,learn,54585.999965667725,Wed Feb 05 2025 16:39:49 GMT-0600 (Central Standard Time),205968.2000002861,A,pupi,O,i,216,1,2416.0,203552.2000002861,0,WL,B,3.0
1,5.6000001430511475,learn,54399.99985694885,Wed Feb 05 2025 16:39:49 GMT-0600 (Central Standard Time),206154.09999990463,A,pupil,O,l,177,1,2601.8999996185303,203552.2000002861,0,WL,B,3.0
1,5.89900016784668,learn,54100.99983215332,Wed Feb 05 2025 16:39:49 GMT-0600 (Central Standard Time),206452.40000009537,A,pupilenter,O,enter,283,1,2900.199999809265,203552.2000002861,0,WL,B,3.0
1,6.965000152587891,learn,53034.99984741211,Wed Feb 05 2025 16:39:49 GMT-0600 (Central Standard Time),207518.80000019073,A,w,O,w,1044,1,1066.0,206452.80000019073,0,WL,B,4.0
1,7.114000082015991,learn,52885.99991798401,Wed Feb 05 2025 16:39:49 GMT-0600 (Central Standard Time),207667.7000002861,A,wi,O,i,129,1,1214.9000000953674,206452.80000019073,0,WL,B,4.0
1,7.2820000648498535,learn,52717.99993515015,Wed Feb 05 2025 16:39:49 GMT-0600 (Central Standard Time),207835.7000002861,A,win,O,n,148,1,1382.9000000953674,206452.80000019073,0,WL,B,4.0
1,7.382000207901001,learn,52617.999792099,Wed Feb 05 2025 16:39:49 GMT-0600 (Central Standard Time),207935.40000009537,A,wind,O,d,77,1,1482.5999999046326,206452.80000019073,0,WL,B,4.0
1,7.466000080108643,learn,52533.99991989136,Wed Feb 05 2025 16:39:49 GMT-0600 (Central Standard Time),208019.5,A,windo,O,o,73,1,1566.6999998092651,206452.80000019073,0,WL,B,4.0
1,7.616000175476074,learn,52383.999824523926,Wed Feb 05 2025 16:39:49 GMT-0600 (Central Standard Time),208170.2000002861,A,window,O,w,142,1,1717.4000000953674,206452.80000019073,0,WL,B,4.0
1,7.88100004196167,learn,52118.99995803833,Wed Feb 05 2025 16:39:49 GMT-0600 (Central Standard Time),208434.09999990463,A,windowenter,O,enter,247,1,1981.2999997138977,206452.80000019073,0,WL,B,4.0
1,8.730000019073486,learn,51269.999980926514,Wed Feb 05 2025 16:39:49 GMT-0600 (Central Standard Time),209283.40000009537,A,a,O,a,829,1,848.9000000953674,208434.5,0,WL,B,5.0
1,9.497000217437744,learn,50502.999782562256,Wed Feb 05 2025 16:39:49 GMT-0600 (Central Standard Time),210050.5,A,ar,O,r,751,1,1616.0,208434.5,0,WL,B,5.0
1,10.031000137329102,learn,49968.9998626709,Wed Feb 05 2025 16:39:49 GMT-0600 (Central Standard Time),210584.90000009537,A,arm,O,m,510,1,2150.4000000953674,208434.5,0,WL,B,5.0
1,11.01200008392334,learn,48987.99991607666,Wed Feb 05 2025 16:39:49 GMT-0600 (Central Standard Time),211566.0,A,armenter,O,enter,967,1,3131.5,208434.5,0,WL,B,5.0
1,11.979000091552734,learn,48020.999908447266,Wed Feb 05 2025 16:39:49 GMT-0600 (Central Standard Time),212532.30000019073,A,c,O,c,954,1,966.0,211566.30000019073,0,WL,B,6.0
1,12.130000114440918,learn,47869.99988555908,Wed Feb 05 2025 16:39:49 GMT-0600 (Central Standard Time),212683.30000019073,A,cl,O,l,134,1,1117.0,211566.30000019073,0,WL,B,6.0
1,12.313000202178955,learn,47686.999797821045,Wed Feb 05 2025 16:39:49 GMT-0600 (Central Standard Time),212866.59999990463,A,clo,O,o,163,1,1300.2999997138977,211566.30000019073,0,WL,B,6.0
1,12.379000186920166,learn,47620.999813079834,Wed Feb 05 2025 16:39:49 GMT-0600 (Central Standard Time),212932.2000002861,A,cloc,O,c,52,1,1365.9000000953674,211566.30000019073,0,WL,B,6.0
1,12.479000091552734,learn,47520.999908447266,Wed Feb 05 2025 16:39:49 GMT-0600 (Central Standard Time),213032.80000019073,A,clock,O,k,85,1,1466.5,211566.30000019073,0,WL,B,6.0
1,12.867000102996826,learn,47132.999897003174,Wed Feb 05 2025 16:39:49 GMT-0600 (Central Standard Time),213420.40000009537,A,clockenter,O,enter,375,1,1854.0999999046326,211566.30000019073,0,WL,B,6.0
1,14.24400019645691,learn,45755.99980354309,Wed Feb 05 2025 16:39:49 GMT-0600 (Central Standard Time),214797.2000002861,A,c,O,c,1357,1,1376.5,213420.7000002861,0,WL,B,7.0
1,14.428000211715698,learn,45571.9997882843,Wed Feb 05 2025 16:39:49 GMT-0600 (Central Standard Time),214981.80000019073,A,ci,O,i,173,1,1561.0999999046326,213420.7000002861,0,WL,B,7.0
1,14.528000116348267,learn,45471.99988365173,Wed Feb 05 2025 16:39:49 GMT-0600 (Central Standard Time),215081.5,A,cit,O,t,93,1,1660.7999997138977,213420.7000002861,0,WL,B,7.0
1,14.663000106811523,learn,45336.99989318848,Wed Feb 05 2025 16:39:49 GMT-0600 (Central Standard Time),215217.0,A,city,O,y,114,1,1796.2999997138977,213420.7000002861,0,WL,B,7.0
1,15.01200008392334,learn,44987.99991607666,Wed Feb 05 2025 16:39:49 GMT-0600 (Central Standard Time),215565.30000019073,A,cityenter,O,enter,336,1,2144.5999999046326,213420.7000002861,0,WL,B,7.0
1,15.91100001335144,learn,44088.99998664856,Wed Feb 05 2025 16:39:49 GMT-0600 (Central Standard Time),216464.59999990463,A,f,O,f,875,1,899.0,215565.59999990463,0,WL,B,8.0
1,16.013000011444092,learn,43986.99998855591,Wed Feb 05 2025 16:39:49 GMT-0600 (Central Standard Time),216566.2000002861,A,fi,O,i,76,1,1000.6000003814697,215565.59999990463,0,WL,B,8.0
1,16.09600019454956,learn,43903.99980545044,Wed Feb 05 2025 16:39:49 GMT-0600 (Central Standard Time),216649.2000002861,A,fir,O,r,73,1,1083.6000003814697,215565.59999990463,0,WL,B,8.0
1,16.278000116348267,learn,43721.99988365173,Wed Feb 05 2025 16:39:49 GMT-0600 (Central Standard Time),216831.59999990463,A,fire,O,e,167,1,1266.0,215565.59999990463,0,WL,B,8.0
1,16.39400005340576,learn,43605.99994659424,Wed Feb 05 2025 16:39:49 GMT-0600 (Central Standard Time),216947.30000019073,A,fireenter,O,enter,104,1,1381.7000002861023,215565.59999990463,0,WL,B,8.0
1,16.92900013923645,learn,43070.99986076355,Wed Feb 05 2025 16:39:49 GMT-0600 (Central Standard Time),217482.59999990463,A,c,O,c,528,1,534.8999996185303,216947.7000002861,0,WL,B,9.0
1,17.07800006866455,learn,42921.99993133545,Wed Feb 05 2025 16:39:49 GMT-0600 (Central Standard Time),217631.40000009537,A,ca,O,a,133,1,683.6999998092651,216947.7000002861,0,WL,B,9.0
1,17.278000116348267,learn,42721.99988365173,Wed Feb 05 2025 16:39:49 GMT-0600 (Central Standard Time),217831.59999990463,A,cab,O,b,186,1,883.8999996185303,216947.7000002861,0,WL,B,9.0
1,17.395000219345093,learn,42604.99978065491,Wed Feb 05 2025 16:39:49 GMT-0600 (Central Standard Time),217948.30000019073,A,cabi,O,i,104,1,1000.5999999046326,216947.7000002861,0,WL,B,9.0
1,17.57800006866455,learn,42421.99993133545,Wed Feb 05 2025 16:39:49 GMT-0600 (Central Standard Time),218131.90000009537,A,cabin,O,n,165,1,1184.1999998092651,216947.7000002861,0,WL,B,9.0
1,17.844000101089478,learn,42155.99989891052,Wed Feb 05 2025 16:39:49 GMT-0600 (Central Standard Time),218397.40000009537,A,cabinenter,O,enter,243,1,1449.6999998092651,216947.7000002861,0,WL,B,9.0
1,21.62600016593933,learn,38373.99983406067,Wed Feb 05 2025 16:39:49 GMT-0600 (Central Standard Time),222180.09999990463,A,w,O,w,3764,1,3782.3999996185303,218397.7000002861,0,WL,B,10.0
1,21.759000062942505,learn,38240.999937057495,Wed Feb 05 2025 16:39:49 GMT-0600 (Central Standard Time),222312.30000019073,A,wi,O,i,109,1,3914.5999999046326,218397.7000002861,0,WL,B,10.0
1,21.843000173568726,learn,38156.999826431274,Wed Feb 05 2025 16:39:49 GMT-0600 (Central Standard Time),222396.5,A,wif,O,f,73,1,3998.7999997138977,218397.7000002861,0,WL,B,10.0
1,22.009000062942505,learn,37990.999937057495,Wed Feb 05 2025 16:39:49 GMT-0600 (Central Standard Time),222563.09999990463,A,wife,O,e,149,1,4165.39999961853,218397.7000002861,0,WL,B,10.0
1,22.142000198364258,learn,37857.99980163574,Wed Feb 05 2025 16:39:49 GMT-0600 (Central Standard Time),222695.7000002861,A,wifeenter,O,enter,109,1,4298.0,218397.7000002861,0,WL,B,10.0
1,29.10800004005432,learn,30891.99995994568,Wed Feb 05 2025 16:39:49 GMT-0600 (Central Standard Time),229661.30000019073,A,enter,O,enter,6952,1,6965.300000190735,222696.0,0,WL,B,11.0
1,29.29100012779236,learn,30708.99987220764,Wed Feb 05 2025 16:39:49 GMT-0600 (Central Standard Time),229844.7000002861,A,enter,O,enter,163,1,183.10000038146973,229661.59999990463,0,WL,B,12.0
1,29.473000049591064,learn,30526.999950408936,Wed Feb 05 2025 16:39:49 GMT-0600 (Central Standard Time),230026.59999990463,A,enter,O,enter,163,1,181.59999990463257,229845.0,0,WL,B,13.0
1,29.64300012588501,learn,30356.99987411499,Wed Feb 05 2025 16:39:49 GMT-0600 (Central Standard Time),230197.0,A,enter,O,enter,145,1,170.19999980926514,230026.80000019073,0,WL,B,14.0
1,29.991000175476074,learn,30008.999824523926,Wed Feb 05 2025 16:39:49 GMT-0600 (Central Standard Time),230545.09999990463,A,enter,O,enter,339,1,347.69999980926514,230197.40000009537,0,WL,B,15.0
2,0.8510000705718994,learn,59148.9999294281,Wed Feb 05 2025 16:39:49 GMT-0600 (Central Standard Time),296423.90000009537,A,p,O,p,830,1,850.6999998092651,295573.2000002861,0,WL,B,1.0
2,1.0179998874664307,learn,58982.00011253357,Wed Feb 05 2025 16:39:49 GMT-0600 (Central Standard Time),296590.30000019073,A,pe,O,e,154,1,1017.0999999046326,295573.2000002861,0,WL,B,1.0
2,1.250999927520752,learn,58749.00007247925,Wed Feb 05 2025 16:39:49 GMT-0600 (Central Standard Time),296823.5,A,pep,O,p,210,1,1250.2999997138977,295573.2000002861,0,WL,B,1.0
2,1.7000000476837158,learn,58299.999952316284,Wed Feb 05 2025 16:39:49 GMT-0600 (Central Standard Time),297273.0,A,pe,O,backspace,433,1,1699.7999997138977,295573.2000002861,0,WL,B,1.0
2,1.8840000629425049,learn,58115.999937057495,Wed Feb 05 2025 16:39:49 GMT-0600 (Central Standard Time),297456.80000019073,A,p,O,backspace,161,1,1883.5999999046326,295573.2000002861,0,WL,B,1.0
2,2.450000047683716,learn,57549.999952316284,Wed Feb 05 2025 16:39:49 GMT-0600 (Central Standard Time),298023.0,A,pi,O,i,542,1,2449.7999997138977,295573.2000002861,0,WL,B,1.0
2,2.7160000801086426,learn,57283.99991989136,Wed Feb 05 2025 16:39:49 GMT-0600 (Central Standard Time),298288.59999990463,A,pip,O,p,249,1,2715.3999996185303,295573.2000002861,0,WL,B,1.0
2,2.8320000171661377,learn,57167.99998283386,Wed Feb 05 2025 16:39:49 GMT-0600 (Central Standard Time),298404.59999990463,A,pipe,O,e,97,1,2831.3999996185303,295573.2000002861,0,WL,B,1.0
2,3.066999912261963,learn,56933.00008773804,Wed Feb 05 2025 16:39:49 GMT-0600 (Central Standard Time),298639.40000009537,A,pipeenter,O,enter,220,1,3066.199999809265,295573.2000002861,0,WL,B,1.0
2,3.5339999198913574,learn,56466.00008010864,Wed Feb 05 2025 16:39:49 GMT-0600 (Central Standard Time),299106.90000009537,A,l,O,l,460,1,467.19999980926514,298639.7000002861,0,WL,B,2.0
2,3.615999937057495,learn,56384.000062942505,Wed Feb 05 2025 16:39:49 GMT-0600 (Central Standard Time),299189.0,A,la,O,a,61,1,549.2999997138977,298639.7000002861,0,WL,B,2.0
2,3.7820000648498535,learn,56217.99993515015,Wed Feb 05 2025 16:39:49 GMT-0600 (Central Standard Time),299355.09999990463,A,lak,O,k,147,1,715.3999996185303,298639.7000002861,0,WL,B,2.0
2,3.8299999237060547,learn,56170.000076293945,Wed Feb 05 2025 16:39:49 GMT-0600 (Central Standard Time),299403.2000002861,A,lake,O,e,33,1,763.5,298639.7000002861,0,WL,B,2.0
2,4.129999876022339,learn,55870.00012397766,Wed Feb 05 2025 16:39:49 GMT-0600 (Central Standard Time),299703.09999990463,A,lakeenter,O,enter,286,1,1063.3999996185303,298639.7000002861,0,WL,B,2.0
2,4.448999881744385,learn,55551.000118255615,Wed Feb 05 2025 16:39:49 GMT-0600 (Central Standard Time),300021.7000002861,A,g,O,g,307,1,318.40000009536743,299703.30000019073,0,WL,B,3.0
2,4.615999937057495,learn,55384.000062942505,Wed Feb 05 2025 16:39:49 GMT-0600 (Central Standard Time),300189.2000002861,A,gr,O,r,148,1,485.90000009536743,299703.30000019073,0,WL,B,3.0
2,4.832000017166138,learn,55167.99998283386,Wed Feb 05 2025 16:39:49 GMT-0600 (Central Standard Time),300405.09999990463,A,gra,O,a,196,1,701.7999997138977,299703.30000019073,0,WL,B,3.0
2,5.016000032424927,learn,54983.99996757507,Wed Feb 05 2025 16:39:49 GMT-0600 (Central Standard Time),300588.40000009537,A,gras,O,s,171,1,885.0999999046326,299703.30000019073,0,WL,B,3.0
2,5.180999994277954,learn,54819.000005722046,Wed Feb 05 2025 16:39:49 GMT-0600 (Central Standard Time),300753.90000009537,A,grass,O,s,142,1,1050.5999999046326,299703.30000019073,0,WL,B,3.0
2,5.58299994468689,learn,54417.00005531311,Wed Feb 05 2025 16:39:49 GMT-0600 (Central Standard Time),301155.5,A,grassenter,O,enter,383,1,1452.1999998092651,299703.30000019073,0,WL,B,3.0
2,9.331000089645386,learn,50668.999910354614,Wed Feb 05 2025 16:39:49 GMT-0600 (Central Standard Time),304903.30000019073,A,a,O,a,3733,1,3747.5,301155.80000019073,0,WL,B,4.0
2,9.530999898910522,learn,50469.00010108948,Wed Feb 05 2025 16:39:49 GMT-0600 (Central Standard Time),305103.90000009537,A,ar,O,r,188,1,3948.0999999046326,301155.80000019073,0,WL,B,4.0
2,10.46399998664856,learn,49536.00001335144,Wed Feb 05 2025 16:39:49 GMT-0600 (Central Standard Time),306036.59999990463,A,arm,O,m,914,1,4880.799999713898,301155.80000019073,0,WL,B,4.0
2,10.831000089645386,learn,49168.999910354614,Wed Feb 05 2025 16:39:49 GMT-0600 (Central Standard Time),306403.40000009537,A,armenter,O,enter,358,1,5247.599999904633,301155.80000019073,0,WL,B,4.0
2,13.197999954223633,learn,46802.00004577637,Wed Feb 05 2025 16:39:49 GMT-0600 (Central Standard Time),308770.30000019073,A,o,O,o,2359,1,2366.5,306403.80000019073,0,WL,B,5.0
2,13.494999885559082,learn,46505.00011444092,Wed Feb 05 2025 16:39:49 GMT-0600 (Central Standard Time),309068.0,A,ou,O,u,278,1,2664.199999809265,306403.80000019073,0,WL,B,5.0
2,14.079999923706055,learn,45920.000076293945,Wed Feb 05 2025 16:39:49 GMT-0600 (Central Standard Time),309652.30000019073,A,o,O,backspace,565,1,3248.5,306403.80000019073,0,WL,B,5.0
2,14.230999946594238,learn,45769.00005340576,Wed Feb 05 2025 16:39:49 GMT-0600 (Central Standard Time),309803.40000009537,A,,O,backspace,143,1,3399.5999999046326,306403.80000019073,0,WL,B,5.0
2,14.364000082015991,learn,45635.99991798401,Wed Feb 05 2025 16:39:49 GMT-0600 (Central Standard Time),309936.7000002861,A,,O,backspace,126,1,3532.9000000953674,306403.80000019073,0,WL,B,5.0
2,14.661999940872192,learn,45338.00005912781,Wed Feb 05 2025 16:39:49 GMT-0600 (Central Standard Time),310235.09999990463,A,p,O,p,281,1,3831.2999997138977,306403.80000019073,0,WL,B,5.0
2,14.879999876022339,learn,45120.00012397766,Wed Feb 05 2025 16:39:49 GMT-0600 (Central Standard Time),310453.30000019073,A,pu,O,u,207,1,4049.5,306403.80000019073,0,WL,B,5.0
2,15.09500002861023,learn,44904.99997138977,Wed Feb 05 2025 16:39:49 GMT-0600 (Central Standard Time),310667.90000009537,A,pup,O,p,204,1,4264.099999904633,306403.80000019073,0,WL,B,5.0
2,15.296000003814697,learn,44703.9999961853,Wed Feb 05 2025 16:39:49 GMT-0600 (Central Standard Time),310868.59999990463,A,pupi,O,i,192,1,4464.799999713898,306403.80000019073,0,WL,B,5.0
2,15.494999885559082,learn,44505.00011444092,Wed Feb 05 2025 16:39:49 GMT-0600 (Central Standard Time),311068.2000002861,A,pupil,O,l,188,1,4664.400000095367,306403.80000019073,0,WL,B,5.0
2,15.729000091552734,learn,44270.999908447266,Wed Feb 05 2025 16:39:49 GMT-0600 (Central Standard Time),311301.7000002861,A,pupilenter,O,enter,213,1,4897.900000095367,306403.80000019073,0,WL,B,5.0
2,16.161999940872192,learn,43838.00005912781,Wed Feb 05 2025 16:39:49 GMT-0600 (Central Standard Time),311734.30000019073,A,c,O,c,411,1,432.40000009536743,311301.90000009537,0,WL,B,6.0
2,16.27900004386902,learn,43720.99995613098,Wed Feb 05 2025 16:39:49 GMT-0600 (Central Standard Time),311851.7000002861,A,cl,O,l,96,1,549.8000001907349,311301.90000009537,0,WL,B,6.0
2,16.444999933242798,learn,43555.0000667572,Wed Feb 05 2025 16:39:49 GMT-0600 (Central Standard Time),312017.59999990463,A,clo,O,o,148,1,715.6999998092651,311301.90000009537,0,WL,B,6.0
2,16.562000036239624,learn,43437.999963760376,Wed Feb 05 2025 16:39:49 GMT-0600 (Central Standard Time),312134.90000009537,A,cloc,O,c,101,1,833.0,311301.90000009537,0,WL,B,6.0
2,16.64400005340576,learn,43355.99994659424,Wed Feb 05 2025 16:39:49 GMT-0600 (Central Standard Time),312216.90000009537,A,clock,O,k,68,1,915.0,311301.90000009537,0,WL,B,6.0
2,16.878000020980835,learn,43121.999979019165,Wed Feb 05 2025 16:39:49 GMT-0600 (Central Standard Time),312450.80000019073,A,clockenter,O,enter,224,1,1148.9000000953674,311301.90000009537,0,WL,B,6.0
2,17.694999933242798,learn,42305.0000667572,Wed Feb 05 2025 16:39:49 GMT-0600 (Central Standard Time),313267.5,A,c,O,c,808,1,816.4000000953674,312451.09999990463,0,WL,B,7.0
2,17.878000020980835,learn,42121.999979019165,Wed Feb 05 2025 16:39:49 GMT-0600 (Central Standard Time),313450.30000019073,A,ca,O,a,159,1,999.2000002861023,312451.09999990463,0,WL,B,7.0
2,18.060999870300293,learn,41939.00012969971,Wed Feb 05 2025 16:39:49 GMT-0600 (Central Standard Time),313633.90000009537,A,cai,O,i,174,1,1182.8000001907349,312451.09999990463,0,WL,B,7.0
2,18.19599986076355,learn,41804.00013923645,Wed Feb 05 2025 16:39:49 GMT-0600 (Central Standard Time),313768.30000019073,A,caib,O,b,109,1,1317.2000002861023,312451.09999990463,0,WL,B,7.0
2,18.527999877929688,learn,41472.00012207031,Wed Feb 05 2025 16:39:49 GMT-0600 (Central Standard Time),314101.09999990463,A,cai,O,backspace,311,1,1650.0,312451.09999990463,0,WL,B,7.0
2,18.67899990081787,learn,41321.00009918213,Wed Feb 05 2025 16:39:49 GMT-0600 (Central Standard Time),314251.59999990463,A,ca,O,backspace,143,1,1800.5,312451.09999990463,0,WL,B,7.0
2,18.812999963760376,learn,41187.000036239624,Wed Feb 05 2025 16:39:49 GMT-0600 (Central Standard Time),314386.2000002861,A,cab,O,b,125,1,1935.1000003814697,312451.09999990463,0,WL,B,7.0
2,19.111999988555908,learn,40888.00001144409,Wed Feb 05 2025 16:39:49 GMT-0600 (Central Standard Time),314684.40000009537,A,cabi,O,i,288,1,2233.300000190735,312451.09999990463,0,WL,B,7.0
2,19.310999870300293,learn,40689.00012969971,Wed Feb 05 2025 16:39:49 GMT-0600 (Central Standard Time),314883.90000009537,A,cabin,O,n,177,1,2432.800000190735,312451.09999990463,0,WL,B,7.0
2,19.592999935150146,learn,40407.00006484985,Wed Feb 05 2025 16:39:49 GMT-0600 (Central Standard Time),315165.59999990463,A,cabinenter,O,enter,261,1,2714.5,312451.09999990463,0,WL,B,7.0
2,19.89299988746643,learn,40107.00011253357,Wed Feb 05 2025 16:39:49 GMT-0600 (Central Standard Time),315466.09999990463,A,w,O,w,291,1,300.19999980926514,315165.90000009537,0,WL,B,8.0
2,20.062000036239624,learn,39937.999963760376,Wed Feb 05 2025 16:39:49 GMT-0600 (Central Standard Time),315634.30000019073,A,wi,O,i,160,1,468.40000009536743,315165.90000009537,0,WL,B,8.0
2,20.211999893188477,learn,39788.00010681152,Wed Feb 05 2025 16:39:49 GMT-0600 (Central Standard Time),315784.5,A,win,O,n,143,1,618.5999999046326,315165.90000009537,0,WL,B,8.0
2,20.293999910354614,learn,39706.000089645386,Wed Feb 05 2025 16:39:49 GMT-0600 (Central Standard Time),315867.0,A,wind,O,d,76,1,701.0999999046326,315165.90000009537,0,WL,B,8.0
2,20.42899990081787,learn,39571.00009918213,Wed Feb 05 2025 16:39:49 GMT-0600 (Central Standard Time),316001.80000019073,A,windo,O,o,126,1,835.9000000953674,315165.90000009537,0,WL,B,8.0
2,20.57800006866455,learn,39421.99993133545,Wed Feb 05 2025 16:39:49 GMT-0600 (Central Standard Time),316150.40000009537,A,window,O,w,135,1,984.5,315165.90000009537,0,WL,B,8.0
2,20.80999994277954,learn,39190.00005722046,Wed Feb 05 2025 16:39:49 GMT-0600 (Central Standard Time),316382.7000002861,A,windowenter,O,enter,218,1,1216.8000001907349,315165.90000009537,0,WL,B,8.0
2,21.244999885559082,learn,38755.00011444092,Wed Feb 05 2025 16:39:49 GMT-0600 (Central Standard Time),316817.40000009537,A,f,O,f,426,1,434.40000009536743,316383.0,0,WL,B,9.0
2,21.378000020980835,learn,38621.999979019165,Wed Feb 05 2025 16:39:49 GMT-0600 (Central Standard Time),316950.30000019073,A,fi,O,i,115,1,567.3000001907349,316383.0,0,WL,B,9.0
2,21.49399995803833,learn,38506.00004196167,Wed Feb 05 2025 16:39:49 GMT-0600 (Central Standard Time),317066.2000002861,A,fir,O,r,99,1,683.2000002861023,316383.0,0,WL,B,9.0
2,21.644999980926514,learn,38355.000019073486,Wed Feb 05 2025 16:39:49 GMT-0600 (Central Standard Time),317217.7000002861,A,fire,O,e,146,1,834.7000002861023,316383.0,0,WL,B,9.0
2,21.776000022888184,learn,38223.99997711182,Wed Feb 05 2025 16:39:49 GMT-0600 (Central Standard Time),317349.0,A,fireenter,O,enter,118,1,966.0,316383.0,0,WL,B,9.0
2,28.991999864578247,learn,31008.000135421753,Wed Feb 05 2025 16:39:49 GMT-0600 (Central Standard Time),324564.5,A,c,O,c,7196,1,7215.199999809265,317349.30000019073,0,WL,B,10.0
2,29.125,learn,30875.0,Wed Feb 05 2025 16:39:49 GMT-0600 (Central Standard Time),324698.2000002861,A,ci,O,i,117,1,7348.900000095367,317349.30000019073,0,WL,B,10.0
2,29.259000062942505,learn,30740.999937057495,Wed Feb 05 2025 16:39:49 GMT-0600 (Central Standard Time),324832.0,A,cit,O,t,110,1,7482.699999809265,317349.30000019073,0,WL,B,10.0
2,29.375,learn,30625.0,Wed Feb 05 2025 16:39:49 GMT-0600 (Central Standard Time),324948.09999990463,A,city,O,y,86,1,7598.799999713898,317349.30000019073,0,WL,B,10.0
2,29.740000009536743,learn,30259.999990463257,Wed Feb 05 2025 16:39:49 GMT-0600 (Central Standard Time),325313.0,A,cityenter,O,enter,347,1,7963.699999809265,317349.30000019073,0,WL,B,10.0
2,36.139999866485596,learn,23860.000133514404,Wed Feb 05 2025 16:39:49 GMT-0600 (Central Standard Time),331712.40000009537,A,s,O,s,6382,1,6399.0,325313.40000009537,0,WL,B,11.0
2,36.33999991416931,learn,23660.00008583069,Wed Feb 05 2025 16:39:49 GMT-0600 (Central Standard Time),331912.80000019073,A,st,O,t,184,1,6599.400000095367,325313.40000009537,0,WL,B,11.0
2,37.2739999294281,learn,22726.0000705719,Wed Feb 05 2025 16:39:49 GMT-0600 (Central Standard Time),332846.80000019073,A,sto,O,o,909,1,7533.400000095367,325313.40000009537,0,WL,B,11.0
2,37.371999979019165,learn,22628.000020980835,Wed Feb 05 2025 16:39:49 GMT-0600 (Central Standard Time),332944.90000009537,A,stor,O,r,80,1,7631.5,325313.40000009537,0,WL,B,11.0
2,37.57299995422363,learn,22427.000045776367,Wed Feb 05 2025 16:39:49 GMT-0600 (Central Standard Time),333145.5,A,store,O,e,175,1,7832.099999904633,325313.40000009537,0,WL,B,11.0
2,37.7039999961853,learn,22296.000003814697,Wed Feb 05 2025 16:39:49 GMT-0600 (Central Standard Time),333276.90000009537,A,storeenter,O,enter,119,1,7963.5,325313.40000009537,0,WL,B,11.0
2,38.32200002670288,learn,21677.99997329712,Wed Feb 05 2025 16:39:49 GMT-0600 (Central Standard Time),333894.59999990463,A,enter,O,enter,604,1,617.3999996185303,333277.2000002861,0,WL,B,12.0
2,38.4760000705719,learn,21523.9999294281,Wed Feb 05 2025 16:39:49 GMT-0600 (Central Standard Time),334048.30000019073,A,enter,O,enter,146,1,153.40000009536743,333894.90000009537,0,WL,B,13.0
2,38.621999979019165,learn,21378.000020980835,Wed Feb 05 2025 16:39:49 GMT-0600 (Central Standard Time),334194.80000019073,A,enter,O,enter,131,1,146.2000002861023,334048.59999990463,0,WL,B,14.0
2,38.787999868392944,learn,21212.000131607056,Wed Feb 05 2025 16:39:49 GMT-0600 (Central Standard Time),334360.7000002861,A,enter,O,enter,141,1,165.60000038146973,334195.09999990463,0,WL,B,15.0
3,0.6510000228881836,learn,59348.99997711182,Wed Feb 05 2025 16:39:49 GMT-0600 (Central Standard Time),399691.0,A,s,O,s,635,1,651.0,399040.0,0,WL,B,1.0
3,0.7839999198913574,learn,59216.00008010864,Wed Feb 05 2025 16:39:49 GMT-0600 (Central Standard Time),399824.09999990463,A,st,O,t,110,1,784.0999999046326,399040.0,0,WL,B,1.0
3,1.0160000324249268,learn,58983.99996757507,Wed Feb 05 2025 16:39:49 GMT-0600 (Central Standard Time),400056.09999990463,A,str,O,r,215,1,1016.0999999046326,399040.0,0,WL,B,1.0
3,1.2170000076293945,learn,58782.999992370605,Wed Feb 05 2025 16:39:49 GMT-0600 (Central Standard Time),400257.59999990463,A,stre,O,e,196,1,1217.5999999046326,399040.0,0,WL,B,1.0
3,1.3659999370574951,learn,58634.000062942505,Wed Feb 05 2025 16:39:49 GMT-0600 (Central Standard Time),400406.30000019073,A,stree,O,e,133,1,1366.3000001907349,399040.0,0,WL,B,1.0
3,1.4830000400543213,learn,58516.99995994568,Wed Feb 05 2025 16:39:49 GMT-0600 (Central Standard Time),400523.09999990463,A,street,O,t,106,1,1483.0999999046326,399040.0,0,WL,B,1.0
3,1.8499999046325684,learn,58150.00009536743,Wed Feb 05 2025 16:39:49 GMT-0600 (Central Standard Time),400890.7000002861,A,streetenter,O,enter,350,1,1850.7000002861023,399040.0,0,WL,B,1.0
3,2.2170000076293945,learn,57782.999992370605,Wed Feb 05 2025 16:39:49 GMT-0600 (Central Standard Time),401257.09999990463,A,s,O,s,341,1,366.09999990463257,400891.0,0,WL,B,2.0
3,2.382999897003174,learn,57617.000102996826,Wed Feb 05 2025 16:39:49 GMT-0600 (Central Standard Time),401423.0,A,st,O,t,148,1,532.0,400891.0,0,WL,B,2.0
3,2.4819998741149902,learn,57518.00012588501,Wed Feb 05 2025 16:39:49 GMT-0600 (Central Standard Time),401521.80000019073,A,sta,O,a,91,1,630.8000001907349,400891.0,0,WL,B,2.0
3,2.5989999771118164,learn,57401.00002288818,Wed Feb 05 2025 16:39:49 GMT-0600 (Central Standard Time),401639.5,A,star,O,r,100,1,748.5,400891.0,0,WL,B,2.0
3,3.0149998664855957,learn,56985.000133514404,Wed Feb 05 2025 16:39:49 GMT-0600 (Central Standard Time),402055.40000009537,A,starenter,O,enter,396,1,1164.4000000953674,400891.0,0,WL,B,2.0
3,5.997999906539917,learn,54002.00009346008,Wed Feb 05 2025 16:39:49 GMT-0600 (Central Standard Time),405038.09999990463,A,s,O,s,2969,1,2982.2999997138977,402055.80000019073,0,WL,B,3.0
3,6.115999937057495,learn,53884.000062942505,Wed Feb 05 2025 16:39:49 GMT-0600 (Central Standard Time),405156.5,A,sk,O,k,93,1,3100.699999809265,402055.80000019073,0,WL,B,3.0
3,6.2820000648498535,learn,53717.99993515015,Wed Feb 05 2025 16:39:49 GMT-0600 (Central Standard Time),405321.80000019073,A,ski,O,i,142,1,3266.0,402055.80000019073,0,WL,B,3.0
3,6.430999994277954,learn,53569.000005722046,Wed Feb 05 2025 16:39:49 GMT-0600 (Central Standard Time),405471.09999990463,A,skin,O,n,133,1,3415.2999997138977,402055.80000019073,0,WL,B,3.0
3,6.898000001907349,learn,53101.99999809265,Wed Feb 05 2025 16:39:49 GMT-0600 (Central Standard Time),405938.09999990463,A,skinenter,O,enter,458,1,3882.2999997138977,402055.80000019073,0,WL,B,3.0
3,8.71399998664856,learn,51286.00001335144,Wed Feb 05 2025 16:39:49 GMT-0600 (Central Standard Time),407754.5,A,c,O,c,1799,1,1816.1999998092651,405938.30000019073,0,WL,B,4.0
3,8.88100004196167,learn,51118.99995803833,Wed Feb 05 2025 16:39:49 GMT-0600 (Central Standard Time),407921.5,A,ca,O,a,153,1,1983.1999998092651,405938.30000019073,0,WL,B,4.0
3,9.13100004196167,learn,50868.99995803833,Wed Feb 05 2025 16:39:49 GMT-0600 (Central Standard Time),408171.7000002861,A,cab,O,b,240,1,2233.4000000953674,405938.30000019073,0,WL,B,4.0
3,9.264999866485596,learn,50735.000133514404,Wed Feb 05 2025 16:39:49 GMT-0600 (Central Standard Time),408304.80000019073,A,cabi,O,i,109,1,2366.5,405938.30000019073,0,WL,B,4.0
3,9.414000034332275,learn,50585.999965667725,Wed Feb 05 2025 16:39:49 GMT-0600 (Central Standard Time),408454.0,A,cabin,O,n,128,1,2515.699999809265,405938.30000019073,0,WL,B,4.0
3,9.664999961853027,learn,50335.00003814697,Wed Feb 05 2025 16:39:49 GMT-0600 (Central Standard Time),408704.90000009537,A,cabinenter,O,enter,235,1,2766.5999999046326,405938.30000019073,0,WL,B,4.0
3,10.013999938964844,learn,49986.000061035156,Wed Feb 05 2025 16:39:49 GMT-0600 (Central Standard Time),409054.7000002861,A,w,O,w,336,1,349.5,408705.2000002861,0,WL,B,5.0
3,10.164000034332275,learn,49835.999965667725,Wed Feb 05 2025 16:39:49 GMT-0600 (Central Standard Time),409204.09999990463,A,wi,O,i,139,1,498.8999996185303,408705.2000002861,0,WL,B,5.0
3,10.299000024795532,learn,49700.99997520447,Wed Feb 05 2025 16:39:49 GMT-0600 (Central Standard Time),409338.90000009537,A,win,O,n,126,1,633.6999998092651,408705.2000002861,0,WL,B,5.0
3,10.379999876022339,learn,49620.00012397766,Wed Feb 05 2025 16:39:49 GMT-0600 (Central Standard Time),409419.80000019073,A,wind,O,d,60,1,714.5999999046326,408705.2000002861,0,WL,B,5.0
3,10.497999906539917,learn,49502.00009346008,Wed Feb 05 2025 16:39:49 GMT-0600 (Central Standard Time),409538.80000019073,A,windo,O,o,110,1,833.5999999046326,408705.2000002861,0,WL,B,5.0
3,10.595999956130981,learn,49404.00004386902,Wed Feb 05 2025 16:39:49 GMT-0600 (Central Standard Time),409636.59999990463,A,window,O,w,87,1,931.3999996185303,408705.2000002861,0,WL,B,5.0
3,10.848000049591064,learn,49151.999950408936,Wed Feb 05 2025 16:39:49 GMT-0600 (Central Standard Time),409888.2000002861,A,windowenter,O,enter,236,1,1183.0,408705.2000002861,0,WL,B,5.0
3,11.664000034332275,learn,48335.999965667725,Wed Feb 05 2025 16:39:49 GMT-0600 (Central Standard Time),410703.80000019073,A,l,O,l,801,1,815.4000000953674,409888.40000009537,0,WL,B,6.0
3,11.746999979019165,learn,48253.000020980835,Wed Feb 05 2025 16:39:49 GMT-0600 (Central Standard Time),410787.2000002861,A,la,O,a,66,1,898.8000001907349,409888.40000009537,0,WL,B,6.0
3,11.865000009536743,learn,48134.99999046326,Wed Feb 05 2025 16:39:49 GMT-0600 (Central Standard Time),410904.90000009537,A,lak,O,k,110,1,1016.5,409888.40000009537,0,WL,B,6.0
3,11.978999853134155,learn,48021.000146865845,Wed Feb 05 2025 16:39:49 GMT-0600 (Central Standard Time),411019.0,A,lake,O,e,101,1,1130.5999999046326,409888.40000009537,0,WL,B,6.0
3,12.145999908447266,learn,47854.000091552734,Wed Feb 05 2025 16:39:49 GMT-0600 (Central Standard Time),411186.5,A,lakeenter,O,enter,146,1,1298.0999999046326,409888.40000009537,0,WL,B,6.0
3,12.664000034332275,learn,47335.999965667725,Wed Feb 05 2025 16:39:49 GMT-0600 (Central Standard Time),411704.30000019073,A,f,O,f,503,1,517.5,411186.80000019073,0,WL,B,7.0
3,12.812999963760376,learn,47187.000036239624,Wed Feb 05 2025 16:39:49 GMT-0600 (Central Standard Time),411853.09999990463,A,fi,O,i,129,1,666.2999997138977,411186.80000019073,0,WL,B,7.0
3,12.895999908447266,learn,47104.000091552734,Wed Feb 05 2025 16:39:49 GMT-0600 (Central Standard Time),411936.09999990463,A,fir,O,r,67,1,749.2999997138977,411186.80000019073,0,WL,B,7.0
3,13.062999963760376,learn,46937.000036239624,Wed Feb 05 2025 16:39:49 GMT-0600 (Central Standard Time),412102.80000019073,A,fire,O,e,153,1,916.0,411186.80000019073,0,WL,B,7.0
3,13.161999940872192,learn,46838.00005912781,Wed Feb 05 2025 16:39:49 GMT-0600 (Central Standard Time),412201.80000019073,A,fireenter,O,enter,91,1,1015.0,411186.80000019073,0,WL,B,7.0
3,13.628999948501587,learn,46371.00005149841,Wed Feb 05 2025 16:39:49 GMT-0600 (Central Standard Time),412669.5,A,c,O,c,455,1,467.40000009536743,412202.09999990463,0,WL,B,8.0
3,13.744999885559082,learn,46255.00011444092,Wed Feb 05 2025 16:39:49 GMT-0600 (Central Standard Time),412786.30000019073,A,cl,O,l,93,1,584.2000002861023,412202.09999990463,0,WL,B,8.0
3,13.895999908447266,learn,46104.000091552734,Wed Feb 05 2025 16:39:49 GMT-0600 (Central Standard Time),412937.09999990463,A,clo,O,o,140,1,735.0,412202.09999990463,0,WL,B,8.0
3,14.013000011444092,learn,45986.99998855591,Wed Feb 05 2025 16:39:49 GMT-0600 (Central Standard Time),413053.59999990463,A,cloc,O,c,94,1,851.5,412202.09999990463,0,WL,B,8.0
3,14.095999956130981,learn,45904.00004386902,Wed Feb 05 2025 16:39:49 GMT-0600 (Central Standard Time),413136.90000009537,A,clock,O,k,74,1,934.8000001907349,412202.09999990463,0,WL,B,8.0
3,14.444000005722046,learn,45555.999994277954,Wed Feb 05 2025 16:39:49 GMT-0600 (Central Standard Time),413485.2000002861,A,clockenter,O,enter,325,1,1283.1000003814697,412202.09999990463,0,WL,B,8.0
3,14.843999862670898,learn,45156.0001373291,Wed Feb 05 2025 16:39:49 GMT-0600 (Central Standard Time),413884.90000009537,A,w,O,w,380,1,399.30000019073486,413485.59999990463,0,WL,B,9.0
3,15.246000051498413,learn,44753.99994850159,Wed Feb 05 2025 16:39:49 GMT-0600 (Central Standard Time),414287.0,A,wi,O,i,386,1,801.4000000953674,413485.59999990463,0,WL,B,9.0
3,15.411999940872192,learn,44588.00005912781,Wed Feb 05 2025 16:39:49 GMT-0600 (Central Standard Time),414452.7000002861,A,win,O,n,156,1,967.1000003814697,413485.59999990463,0,WL,B,9.0
3,15.527999877929688,learn,44472.00012207031,Wed Feb 05 2025 16:39:49 GMT-0600 (Central Standard Time),414568.90000009537,A,wind,O,d,91,1,1083.3000001907349,413485.59999990463,0,WL,B,9.0
3,15.644999980926514,learn,44355.000019073486,Wed Feb 05 2025 16:39:49 GMT-0600 (Central Standard Time),414685.7000002861,A,windo,O,o,97,1,1200.1000003814697,413485.59999990463,0,WL,B,9.0
3,15.74399995803833,learn,44256.00004196167,Wed Feb 05 2025 16:39:49 GMT-0600 (Central Standard Time),414785.2000002861,A,window,O,w,83,1,1299.6000003814697,413485.59999990463,0,WL,B,9.0
3,16.34599995613098,learn,43654.00004386902,Wed Feb 05 2025 16:39:49 GMT-0600 (Central Standard Time),415386.40000009537,A,windo,O,backspace,583,1,1900.8000001907349,413485.59999990463,0,WL,B,9.0
3,17.546000003814697,learn,42453.9999961853,Wed Feb 05 2025 16:39:49 GMT-0600 (Central Standard Time),416586.30000019073,A,window,O,w,1193,1,3100.7000002861023,413485.59999990463,0,WL,B,9.0
3,17.64400005340576,learn,42355.99994659424,Wed Feb 05 2025 16:39:49 GMT-0600 (Central Standard Time),416684.30000019073,A,windowenter,O,enter,86,1,3198.7000002861023,413485.59999990463,0,WL,B,9.0
3,18.2260000705719,learn,41773.9999294281,Wed Feb 05 2025 16:39:49 GMT-0600 (Central Standard Time),417267.30000019073,A,p,O,p,566,1,582.7000002861023,416684.59999990463,0,WL,B,10.0
3,18.460999965667725,learn,41539.000034332275,Wed Feb 05 2025 16:39:49 GMT-0600 (Central Standard Time),417501.40000009537,A,pu,O,u,221,1,816.8000001907349,416684.59999990463,0,WL,B,10.0
3,18.693000078201294,learn,41306.999921798706,Wed Feb 05 2025 16:39:49 GMT-0600 (Central Standard Time),417734.09999990463,A,pup,O,p,220,1,1049.5,416684.59999990463,0,WL,B,10.0
3,18.89400005340576,learn,41105.99994659424,Wed Feb 05 2025 16:39:49 GMT-0600 (Central Standard Time),417935.2000002861,A,pupi,O,i,186,1,1250.6000003814697,416684.59999990463,0,WL,B,10.0
3,19.075999975204468,learn,40924.00002479553,Wed Feb 05 2025 16:39:49 GMT-0600 (Central Standard Time),418117.30000019073,A,pupil,O,l,170,1,1432.7000002861023,416684.59999990463,0,WL,B,10.0
3,19.359999895095825,learn,40640.000104904175,Wed Feb 05 2025 16:39:49 GMT-0600 (Central Standard Time),418401.09999990463,A,pupilenter,O,enter,268,1,1716.5,416684.59999990463,0,WL,B,10.0
3,20.042999982833862,learn,39957.00001716614,Wed Feb 05 2025 16:39:49 GMT-0600 (Central Standard Time),419083.59999990463,A,s,O,s,674,1,682.2999997138977,418401.30000019073,0,WL,B,11.0
3,20.17799997329712,learn,39822.00002670288,Wed Feb 05 2025 16:39:49 GMT-0600 (Central Standard Time),419218.7000002861,A,sk,O,k,126,1,817.4000000953674,418401.30000019073,0,WL,B,11.0
3,20.361000061035156,learn,39638.999938964844,Wed Feb 05 2025 16:39:49 GMT-0600 (Central Standard Time),419401.90000009537,A,ski,O,i,157,1,1000.5999999046326,418401.30000019073,0,WL,B,11.0
3,20.47699999809265,learn,39523.00000190735,Wed Feb 05 2025 16:39:49 GMT-0600 (Central Standard Time),419517.5,A,skin,O,n,102,1,1116.1999998092651,418401.30000019073,0,WL,B,11.0
3,20.776999950408936,learn,39223.000049591064,Wed Feb 05 2025 16:39:49 GMT-0600 (Central Standard Time),419817.7000002861,A,skinenter,O,enter,292,1,1416.4000000953674,418401.30000019073,0,WL,B,11.0
3,21.092999935150146,learn,38907.00006484985,Wed Feb 05 2025 16:39:49 GMT-0600 (Central Standard Time),420133.59999990463,A,a,O,a,294,1,315.59999990463257,419818.0,0,WL,B,12.0
3,21.30999994277954,learn,38690.00005722046,Wed Feb 05 2025 16:39:49 GMT-0600 (Central Standard Time),420350.59999990463,A,ar,O,r,203,1,532.5999999046326,419818.0,0,WL,B,12.0
3,21.425999879837036,learn,38574.000120162964,Wed Feb 05 2025 16:39:49 GMT-0600 (Central Standard Time),420467.30000019073,A,arm,O,m,99,1,649.3000001907349,419818.0,0,WL,B,12.0
3,21.744999885559082,learn,38255.00011444092,Wed Feb 05 2025 16:39:49 GMT-0600 (Central Standard Time),420785.5,A,armenter,O,enter,309,1,967.5,419818.0,0,WL,B,12.0
3,22.259999990463257,learn,37740.00000953674,Wed Feb 05 2025 16:39:49 GMT-0600 (Central Standard Time),421301.0,A,w,O,w,504,1,515.2999997138977,420785.7000002861,0,WL,B,13.0
3,22.39299988746643,learn,37607.00011253357,Wed Feb 05 2025 16:39:49 GMT-0600 (Central Standard Time),421433.80000019073,A,wi,O,i,117,1,648.0999999046326,420785.7000002861,0,WL,B,13.0
3,22.526000022888184,learn,37473.99997711182,Wed Feb 05 2025 16:39:49 GMT-0600 (Central Standard Time),421567.0,A,wif,O,f,119,1,781.2999997138977,420785.7000002861,0,WL,B,13.0
3,22.675999879837036,learn,37324.000120162964,Wed Feb 05 2025 16:39:49 GMT-0600 (Central Standard Time),421716.30000019073,A,wife,O,e,137,1,930.5999999046326,420785.7000002861,0,WL,B,13.0
3,22.80999994277954,learn,37190.00005722046,Wed Feb 05 2025 16:39:49 GMT-0600 (Central Standard Time),421850.90000009537,A,wifeenter,O,enter,127,1,1065.1999998092651,420785.7000002861,0,WL,B,13.0
3,23.611000061035156,learn,36388.999938964844,Wed Feb 05 2025 16:39:49 GMT-0600 (Central Standard Time),422651.5,A,g,O,g,793,1,800.2999997138977,421851.2000002861,0,WL,B,14.0
3,23.776999950408936,learn,36223.000049591064,Wed Feb 05 2025 16:39:49 GMT-0600 (Central Standard Time),422817.80000019073,A,gr,O,r,158,1,966.5999999046326,421851.2000002861,0,WL,B,14.0
3,24.009000062942505,learn,35990.999937057495,Wed Feb 05 2025 16:39:49 GMT-0600 (Central Standard Time),423050.0,A,gra,O,a,215,1,1198.7999997138977,421851.2000002861,0,WL,B,14.0
3,24.22699999809265,learn,35773.00000190735,Wed Feb 05 2025 16:39:49 GMT-0600 (Central Standard Time),423268.09999990463,A,gras,O,s,210,1,1416.8999996185303,421851.2000002861,0,WL,B,14.0
3,24.359999895095825,learn,35640.000104904175,Wed Feb 05 2025 16:39:49 GMT-0600 (Central Standard Time),423400.5,A,grass,O,s,124,1,1549.2999997138977,421851.2000002861,0,WL,B,14.0
3,24.54200005531311,learn,35457.99994468689,Wed Feb 05 2025 16:39:49 GMT-0600 (Central Standard Time),423582.30000019073,A,grassenter,O,enter,159,1,1731.0999999046326,421851.2000002861,0,WL,B,14.0
3,33.389999866485596,learn,26610.000133514404,Wed Feb 05 2025 16:39:49 GMT-0600 (Central Standard Time),432431.0,A,c,O,c,8836,1,8848.400000095367,423582.59999990463,0,WL,B,15.0
3,33.537999868392944,learn,26462.000131607056,Wed Feb 05 2025 16:39:49 GMT-0600 (Central Standard Time),432579.09999990463,A,ci,O,i,142,1,8996.5,423582.59999990463,0,WL,B,15.0
3,33.68899989128113,learn,26311.000108718872,Wed Feb 05 2025 16:39:49 GMT-0600 (Central Standard Time),432729.90000009537,A,cit,O,t,133,1,9147.300000190735,423582.59999990463,0,WL,B,15.0
3,33.75399994850159,learn,26246.000051498413,Wed Feb 05 2025 16:39:49 GMT-0600 (Central Standard Time),432794.40000009537,A,city,O,y,55,1,9211.800000190735,423582.59999990463,0,WL,B,15.0
3,34.07299995422363,learn,25927.000045776367,Wed Feb 05 2025 16:39:49 GMT-0600 (Central Standard Time),433114.09999990463,A,cityenter,O,enter,312,1,9531.5,423582.59999990463,0,WL,B,15.0
4,0.5190000534057617,learn,59480.99994659424,Wed Feb 05 2025 16:39:49 GMT-0600 (Central Standard Time),498459.30000019073,A,s,O,s,504,1,519.0,497940.30000019073,0,WL,B,1.0
4,0.6530001163482666,learn,59346.99988365173,Wed Feb 05 2025 16:39:49 GMT-0600 (Central Standard Time),498593.0,A,st,O,t,127,1,652.6999998092651,497940.30000019073,0,WL,B,1.0
4,0.8359999656677246,learn,59164.000034332275,Wed Feb 05 2025 16:39:49 GMT-0600 (Central Standard Time),498776.2000002861,A,str,O,r,177,1,835.9000000953674,497940.30000019073,0,WL,B,1.0
4,1.0529999732971191,learn,58947.00002670288,Wed Feb 05 2025 16:39:49 GMT-0600 (Central Standard Time),498993.0,A,stre,O,e,194,1,1052.6999998092651,497940.30000019073,0,WL,B,1.0
4,1.2179999351501465,learn,58782.00006484985,Wed Feb 05 2025 16:39:49 GMT-0600 (Central Standard Time),499158.80000019073,A,stree,O,e,153,1,1218.5,497940.30000019073,0,WL,B,1.0
4,1.4179999828338623,learn,58582.00001716614,Wed Feb 05 2025 16:39:49 GMT-0600 (Central Standard Time),499358.80000019073,A,streer,O,r,181,1,1418.5,497940.30000019073,0,WL,B,1.0
4,1.8849999904632568,learn,58115.00000953674,Wed Feb 05 2025 16:39:49 GMT-0600 (Central Standard Time),499825.09999990463,A,stree,O,backspace,450,1,1884.7999997138977,497940.30000019073,0,WL,B,1.0
4,2.0180001258850098,learn,57981.99987411499,Wed Feb 05 2025 16:39:49 GMT-0600 (Central Standard Time),499957.90000009537,A,street,O,t,120,1,2017.5999999046326,497940.30000019073,0,WL,B,1.0
4,3.184000015258789,learn,56815.99998474121,Wed Feb 05 2025 16:39:49 GMT-0600 (Central Standard Time),501124.09999990463,A,streetenter,O,enter,1155,1,3183.7999997138977,497940.30000019073,0,WL,B,1.0
4,3.7669999599456787,learn,56233.00004005432,Wed Feb 05 2025 16:39:49 GMT-0600 (Central Standard Time),501707.59999990463,A,g,O,g,576,1,583.1999998092651,501124.40000009537,0,WL,B,2.0
4,3.884999990463257,learn,56115.00000953674,Wed Feb 05 2025 16:39:49 GMT-0600 (Central Standard Time),501824.90000009537,A,gr,O,r,93,1,700.5,501124.40000009537,0,WL,B,2.0
4,4.068000078201294,learn,55931.999921798706,Wed Feb 05 2025 16:39:49 GMT-0600 (Central Standard Time),502008.0,A,gra,O,a,167,1,883.5999999046326,501124.40000009537,0,WL,B,2.0
4,4.551000118255615,learn,55448.999881744385,Wed Feb 05 2025 16:39:49 GMT-0600 (Central Standard Time),502491.30000019073,A,gras,O,s,476,1,1366.9000000953674,501124.40000009537,0,WL,B,2.0
4,4.702000141143799,learn,55297.9998588562,Wed Feb 05 2025 16:39:49 GMT-0600 (Central Standard Time),502642.30000019073,A,grass,O,s,144,1,1517.9000000953674,501124.40000009537,0,WL,B,2.0
4,4.868000030517578,learn,55131.99996948242,Wed Feb 05 2025 16:39:49 GMT-0600 (Central Standard Time),502808.40000009537,A,grassenter,O,enter,158,1,1684.0,501124.40000009537,0,WL,B,2.0
4,5.2170000076293945,learn,54782.999992370605,Wed Feb 05 2025 16:39:49 GMT-0600 (Central Standard Time),503157.30000019073,A,d,O,d,338,1,348.7000002861023,502808.59999990463,0,WL,B,3.0
4,5.384000062942505,learn,54615.999937057495,Wed Feb 05 2025 16:39:49 GMT-0600 (Central Standard Time),503324.0,A,do,O,o,160,1,515.4000000953674,502808.59999990463,0,WL,B,3.0
4,5.531000137329102,learn,54468.9998626709,Wed Feb 05 2025 16:39:49 GMT-0600 (Central Standard Time),503471.5,A,doo,O,o,132,1,662.9000000953674,502808.59999990463,0,WL,B,3.0
4,5.648999929428101,learn,54351.0000705719,Wed Feb 05 2025 16:39:49 GMT-0600 (Central Standard Time),503589.59999990463,A,door,O,r,100,1,781.0,502808.59999990463,0,WL,B,3.0
4,5.865999937057495,learn,54134.000062942505,Wed Feb 05 2025 16:39:49 GMT-0600 (Central Standard Time),503806.2000002861,A,doorenter,O,enter,197,1,997.6000003814697,502808.59999990463,0,WL,B,3.0
4,6.200000047683716,learn,53799.999952316284,Wed Feb 05 2025 16:39:49 GMT-0600 (Central Standard Time),504140.5,A,s,O,s,326,1,334.09999990463257,503806.40000009537,0,WL,B,4.0
4,6.414999961853027,learn,53585.00003814697,Wed Feb 05 2025 16:39:49 GMT-0600 (Central Standard Time),504355.59999990463,A,st,O,t,195,1,549.1999998092651,503806.40000009537,0,WL,B,4.0
4,6.5350000858306885,learn,53464.99991416931,Wed Feb 05 2025 16:39:49 GMT-0600 (Central Standard Time),504475.2000002861,A,sta,O,a,112,1,668.8000001907349,503806.40000009537,0,WL,B,4.0
4,6.634000062942505,learn,53365.999937057495,Wed Feb 05 2025 16:39:49 GMT-0600 (Central Standard Time),504573.90000009537,A,star,O,r,87,1,767.5,503806.40000009537,0,WL,B,4.0
4,7.016000032424927,learn,52983.99996757507,Wed Feb 05 2025 16:39:49 GMT-0600 (Central Standard Time),504956.2000002861,A,starenter,O,enter,362,1,1149.8000001907349,503806.40000009537,0,WL,B,4.0
4,7.216000080108643,learn,52783.99991989136,Wed Feb 05 2025 16:39:49 GMT-0600 (Central Standard Time),505156.80000019073,A,a,O,a,181,1,200.30000019073486,504956.5,0,WL,B,5.0
4,7.434000015258789,learn,52565.99998474121,Wed Feb 05 2025 16:39:49 GMT-0600 (Central Standard Time),505374.40000009537,A,ar,O,r,197,1,417.90000009536743,504956.5,0,WL,B,5.0
4,7.46399998664856,learn,52536.00001335144,Wed Feb 05 2025 16:39:49 GMT-0600 (Central Standard Time),505404.30000019073,A,are,O,e,10,1,447.80000019073486,504956.5,0,WL,B,5.0
4,8.199000120162964,learn,51800.999879837036,Wed Feb 05 2025 16:39:49 GMT-0600 (Central Standard Time),506139.40000009537,A,ar,O,backspace,729,1,1182.9000000953674,504956.5,0,WL,B,5.0
4,8.848000049591064,learn,51151.999950408936,Wed Feb 05 2025 16:39:49 GMT-0600 (Central Standard Time),506788.80000019073,A,arm,O,m,629,1,1832.3000001907349,504956.5,0,WL,B,5.0
4,9.08299994468689,learn,50917.00005531311,Wed Feb 05 2025 16:39:49 GMT-0600 (Central Standard Time),507023.09999990463,A,armenter,O,enter,219,1,2066.5999999046326,504956.5,0,WL,B,5.0
4,9.315000057220459,learn,50684.99994277954,Wed Feb 05 2025 16:39:49 GMT-0600 (Central Standard Time),507255.7000002861,A,c,O,c,218,1,232.30000019073486,507023.40000009537,0,WL,B,6.0
4,9.5,learn,50500.0,Wed Feb 05 2025 16:39:49 GMT-0600 (Central Standard Time),507439.90000009537,A,ci,O,i,161,1,416.5,507023.40000009537,0,WL,B,6.0
4,9.664999961853027,learn,50335.00003814697,Wed Feb 05 2025 16:39:49 GMT-0600 (Central Standard Time),507604.90000009537,A,cin,O,n,145,1,581.5,507023.40000009537,0,WL,B,6.0
4,10.065999984741211,learn,49934.00001525879,Wed Feb 05 2025 16:39:49 GMT-0600 (Central Standard Time),508005.90000009537,A,ci,O,backspace,379,1,982.5,507023.40000009537,0,WL,B,6.0
4,10.230999946594238,learn,49769.00005340576,Wed Feb 05 2025 16:39:49 GMT-0600 (Central Standard Time),508171.80000019073,A,c,O,backspace,156,1,1148.4000000953674,507023.40000009537,0,WL,B,6.0
4,10.383000135421753,learn,49616.99986457825,Wed Feb 05 2025 16:39:49 GMT-0600 (Central Standard Time),508323.5,A,,O,backspace,146,1,1300.0999999046326,507023.40000009537,0,WL,B,6.0
4,10.549999952316284,learn,49450.000047683716,Wed Feb 05 2025 16:39:49 GMT-0600 (Central Standard Time),508490.2000002861,A,w,O,w,151,1,1466.8000001907349,507023.40000009537,0,WL,B,6.0
4,10.717000007629395,learn,49282.999992370605,Wed Feb 05 2025 16:39:49 GMT-0600 (Central Standard Time),508657.0,A,wi,O,i,161,1,1633.5999999046326,507023.40000009537,0,WL,B,6.0
4,10.865000009536743,learn,49134.99999046326,Wed Feb 05 2025 16:39:49 GMT-0600 (Central Standard Time),508804.80000019073,A,win,O,n,135,1,1781.4000000953674,507023.40000009537,0,WL,B,6.0
4,10.966000080108643,learn,49033.99991989136,Wed Feb 05 2025 16:39:49 GMT-0600 (Central Standard Time),508906.2000002861,A,wind,O,d,95,1,1882.8000001907349,507023.40000009537,0,WL,B,6.0
4,11.081000089645386,learn,48918.999910354614,Wed Feb 05 2025 16:39:49 GMT-0600 (Central Standard Time),509021.40000009537,A,windo,O,o,105,1,1998.0,507023.40000009537,0,WL,B,6.0
4,11.21500015258789,learn,48784.99984741211,Wed Feb 05 2025 16:39:49 GMT-0600 (Central Standard Time),509155.0,A,window,O,w,111,1,2131.5999999046326,507023.40000009537,0,WL,B,6.0
4,11.348000049591064,learn,48651.999950408936,Wed Feb 05 2025 16:39:49 GMT-0600 (Central Standard Time),509288.5,A,windowenter,O,enter,116,1,2265.0999999046326,507023.40000009537,0,WL,B,6.0
4,11.598999977111816,learn,48401.00002288818,Wed Feb 05 2025 16:39:49 GMT-0600 (Central Standard Time),509539.7000002861,A,x,O,x,243,1,250.90000009536743,509288.80000019073,0,WL,B,7.0
4,12.164999961853027,learn,47835.00003814697,Wed Feb 05 2025 16:39:49 GMT-0600 (Central Standard Time),510105.59999990463,A,,O,backspace,556,1,816.7999997138977,509288.80000019073,0,WL,B,7.0
4,12.365999937057495,learn,47634.000062942505,Wed Feb 05 2025 16:39:49 GMT-0600 (Central Standard Time),510306.30000019073,A,c,O,c,193,1,1017.5,509288.80000019073,0,WL,B,7.0
4,12.6489999294281,learn,47351.0000705719,Wed Feb 05 2025 16:39:49 GMT-0600 (Central Standard Time),510589.40000009537,A,ci,O,i,257,1,1300.5999999046326,509288.80000019073,0,WL,B,7.0
4,12.766000032424927,learn,47233.99996757507,Wed Feb 05 2025 16:39:49 GMT-0600 (Central Standard Time),510706.59999990463,A,cit,O,t,109,1,1417.7999997138977,509288.80000019073,0,WL,B,7.0
4,12.949000120162964,learn,47050.999879837036,Wed Feb 05 2025 16:39:49 GMT-0600 (Central Standard Time),510889.59999990463,A,city,O,y,175,1,1600.7999997138977,509288.80000019073,0,WL,B,7.0
4,13.263999938964844,learn,46736.000061035156,Wed Feb 05 2025 16:39:49 GMT-0600 (Central Standard Time),511203.90000009537,A,cityenter,O,enter,294,1,1915.0999999046326,509288.80000019073,0,WL,B,7.0
4,13.647000074386597,learn,46352.9999256134,Wed Feb 05 2025 16:39:49 GMT-0600 (Central Standard Time),511587.40000009537,A,p,O,p,366,1,383.09999990463257,511204.30000019073,0,WL,B,8.0
4,13.847000122070312,learn,46152.99987792969,Wed Feb 05 2025 16:39:49 GMT-0600 (Central Standard Time),511787.2000002861,A,pu,O,u,181,1,582.9000000953674,511204.30000019073,0,WL,B,8.0
4,14.04800009727478,learn,45951.99990272522,Wed Feb 05 2025 16:39:49 GMT-0600 (Central Standard Time),511988.09999990463,A,puo,O,o,182,1,783.7999997138977,511204.30000019073,0,WL,B,8.0
4,14.332000017166138,learn,45667.99998283386,Wed Feb 05 2025 16:39:49 GMT-0600 (Central Standard Time),512272.2000002861,A,puoi,O,i,261,1,1067.9000000953674,511204.30000019073,0,WL,B,8.0
4,14.815000057220459,learn,45184.99994277954,Wed Feb 05 2025 16:39:49 GMT-0600 (Central Standard Time),512755.2000002861,A,puo,O,backspace,467,1,1550.9000000953674,511204.30000019073,0,WL,B,8.0
4,14.980999946594238,learn,45019.00005340576,Wed Feb 05 2025 16:39:49 GMT-0600 (Central Standard Time),512921.30000019073,A,pu,O,backspace,151,1,1717.0,511204.30000019073,0,WL,B,8.0
4,15.13100004196167,learn,44868.99995803833,Wed Feb 05 2025 16:39:49 GMT-0600 (Central Standard Time),513071.0,A,p,O,backspace,134,1,1866.6999998092651,511204.30000019073,0,WL,B,8.0
4,15.828999996185303,learn,44171.0000038147,Wed Feb 05 2025 16:39:49 GMT-0600 (Central Standard Time),513769.7000002861,A,pu,O,u,689,1,2565.4000000953674,511204.30000019073,0,WL,B,8.0
4,16.062999963760376,learn,43937.000036239624,Wed Feb 05 2025 16:39:49 GMT-0600 (Central Standard Time),514003.2000002861,A,pup,O,p,214,1,2798.9000000953674,511204.30000019073,0,WL,B,8.0
4,16.213000059127808,learn,43786.99994087219,Wed Feb 05 2025 16:39:49 GMT-0600 (Central Standard Time),514153.5,A,pupi,O,i,132,1,2949.199999809265,511204.30000019073,0,WL,B,8.0
4,16.430000066757202,learn,43569.9999332428,Wed Feb 05 2025 16:39:49 GMT-0600 (Central Standard Time),514370.30000019073,A,pupil,O,l,200,1,3166.0,511204.30000019073,0,WL,B,8.0
4,16.663000106811523,learn,43336.99989318848,Wed Feb 05 2025 16:39:49 GMT-0600 (Central Standard Time),514603.09999990463,A,pupilenter,O,enter,223,1,3398.7999997138977,511204.30000019073,0,WL,B,8.0
4,17.147000074386597,learn,42852.9999256134,Wed Feb 05 2025 16:39:49 GMT-0600 (Central Standard Time),515087.09999990463,A,w,O,w,469,1,483.7999997138977,514603.30000019073,0,WL,B,9.0
4,17.263000011444092,learn,42736.99998855591,Wed Feb 05 2025 16:39:49 GMT-0600 (Central Standard Time),515203.90000009537,A,wi,O,i,98,1,600.5999999046326,514603.30000019073,0,WL,B,9.0
4,17.414000034332275,learn,42585.999965667725,Wed Feb 05 2025 16:39:49 GMT-0600 (Central Standard Time),515354.0,A,wif,O,f,133,1,750.6999998092651,514603.30000019073,0,WL,B,9.0
4,17.562999963760376,learn,42437.000036239624,Wed Feb 05 2025 16:39:49 GMT-0600 (Central Standard Time),515503.59999990463,A,wife,O,e,128,1,900.2999997138977,514603.30000019073,0,WL,B,9.0
4,17.861999988555908,learn,42138.00001144409,Wed Feb 05 2025 16:39:49 GMT-0600 (Central Standard Time),515802.80000019073,A,wifeenter,O,enter,280,1,1199.5,514603.30000019073,0,WL,B,9.0
4,18.046000003814697,learn,41953.9999961853,Wed Feb 05 2025 16:39:49 GMT-0600 (Central Standard Time),515986.30000019073,A,a,O,a,174,1,183.2000002861023,515803.09999990463,0,WL,B,10.0
4,18.263000011444092,learn,41736.99998855591,Wed Feb 05 2025 16:39:49 GMT-0600 (Central Standard Time),516203.40000009537,A,ar,O,r,196,1,400.30000019073486,515803.09999990463,0,WL,B,10.0
4,18.92900013923645,learn,41070.99986076355,Wed Feb 05 2025 16:39:49 GMT-0600 (Central Standard Time),516869.40000009537,A,a,O,backspace,644,1,1066.3000001907349,515803.09999990463,0,WL,B,10.0
4,19.078999996185303,learn,40921.0000038147,Wed Feb 05 2025 16:39:49 GMT-0600 (Central Standard Time),517019.5,A,,O,backspace,139,1,1216.4000000953674,515803.09999990463,0,WL,B,10.0
4,19.230000019073486,learn,40769.999980926514,Wed Feb 05 2025 16:39:49 GMT-0600 (Central Standard Time),517169.90000009537,A,,O,backspace,134,1,1366.8000001907349,515803.09999990463,0,WL,B,10.0
4,20.878000020980835,learn,39121.999979019165,Wed Feb 05 2025 16:39:49 GMT-0600 (Central Standard Time),518818.7000002861,A,c,O,c,1633,1,3015.6000003814697,515803.09999990463,0,WL,B,10.0
4,21.009999990463257,learn,38990.00000953674,Wed Feb 05 2025 16:39:49 GMT-0600 (Central Standard Time),518950.59999990463,A,ca,O,a,118,1,3147.5,515803.09999990463,0,WL,B,10.0
4,21.19600009918213,learn,38803.99990081787,Wed Feb 05 2025 16:39:49 GMT-0600 (Central Standard Time),519135.90000009537,A,cab,O,b,172,1,3332.800000190735,515803.09999990463,0,WL,B,10.0
4,21.36300015449524,learn,38636.99984550476,Wed Feb 05 2025 16:39:49 GMT-0600 (Central Standard Time),519303.7000002861,A,cabi,O,i,144,1,3500.6000003814697,515803.09999990463,0,WL,B,10.0
4,21.52900004386902,learn,38470.99995613098,Wed Feb 05 2025 16:39:49 GMT-0600 (Central Standard Time),519469.2000002861,A,cabin,O,n,148,1,3666.1000003814697,515803.09999990463,0,WL,B,10.0
4,21.77999997138977,learn,38220.00002861023,Wed Feb 05 2025 16:39:49 GMT-0600 (Central Standard Time),519720.30000019073,A,cabinenter,O,enter,243,1,3917.2000002861023,515803.09999990463,0,WL,B,10.0
4,22.246000051498413,learn,37753.99994850159,Wed Feb 05 2025 16:39:49 GMT-0600 (Central Standard Time),520186.7000002861,A,l,O,l,458,1,466.1000003814697,519720.59999990463,0,WL,B,11.0
4,22.36300015449524,learn,37636.99984550476,Wed Feb 05 2025 16:39:49 GMT-0600 (Central Standard Time),520303.59999990463,A,la,O,a,93,1,583.0,519720.59999990463,0,WL,B,11.0
4,22.545000076293945,learn,37454.999923706055,Wed Feb 05 2025 16:39:49 GMT-0600 (Central Standard Time),520485.09999990463,A,lak,O,k,161,1,764.5,519720.59999990463,0,WL,B,11.0
4,22.66100001335144,learn,37338.99998664856,Wed Feb 05 2025 16:39:49 GMT-0600 (Central Standard Time),520601.59999990463,A,lake,O,e,108,1,881.0,519720.59999990463,0,WL,B,11.0
4,22.894999980926514,learn,37105.000019073486,Wed Feb 05 2025 16:39:49 GMT-0600 (Central Standard Time),520835.40000009537,A,lakeenter,O,enter,217,1,1114.8000001907349,519720.59999990463,0,WL,B,11.0
4,23.712000131607056,learn,36287.999868392944,Wed Feb 05 2025 16:39:49 GMT-0600 (Central Standard Time),521652.2000002861,A,f,O,f,793,1,816.5,520835.7000002861,0,WL,B,12.0
4,23.812000036239624,learn,36187.999963760376,Wed Feb 05 2025 16:39:49 GMT-0600 (Central Standard Time),521751.90000009537,A,fi,O,i,85,1,916.1999998092651,520835.7000002861,0,WL,B,12.0
4,23.91100001335144,learn,36088.99998664856,Wed Feb 05 2025 16:39:49 GMT-0600 (Central Standard Time),521851.0,A,fir,O,r,92,1,1015.2999997138977,520835.7000002861,0,WL,B,12.0
4,24.111000061035156,learn,35888.999938964844,Wed Feb 05 2025 16:39:49 GMT-0600 (Central Standard Time),522051.40000009537,A,fire,O,e,195,1,1215.6999998092651,520835.7000002861,0,WL,B,12.0
4,24.710000038146973,learn,35289.99996185303,Wed Feb 05 2025 16:39:49 GMT-0600 (Central Standard Time),522650.09999990463,A,fireenter,O,enter,590,1,1814.3999996185303,520835.7000002861,0,WL,B,12.0
4,25.311000108718872,learn,34688.99989128113,Wed Feb 05 2025 16:39:49 GMT-0600 (Central Standard Time),523251.30000019073,A,l,O,l,583,1,600.9000000953674,522650.40000009537,0,WL,B,13.0
4,25.427000045776367,learn,34572.99995422363,Wed Feb 05 2025 16:39:49 GMT-0600 (Central Standard Time),523367.5,A,la,O,a,95,1,717.0999999046326,522650.40000009537,0,WL,B,13.0
4,25.542999982833862,learn,34457.00001716614,Wed Feb 05 2025 16:39:49 GMT-0600 (Central Standard Time),523483.40000009537,A,lak,O,k,104,1,833.0,522650.40000009537,0,WL,B,13.0
4,25.67799997329712,learn,34322.00002670288,Wed Feb 05 2025 16:39:49 GMT-0600 (Central Standard Time),523618.59999990463,A,lake,O,e,118,1,968.1999998092651,522650.40000009537,0,WL,B,13.0
4,27.992000102996826,learn,32007.999897003174,Wed Feb 05 2025 16:39:49 GMT-0600 (Central Standard Time),525932.5999999046,A,lak,O,backspace,2301,1,3282.199999809265,522650.40000009537,0,WL,B,13.0
4,28.14400005340576,learn,31855.99994659424,Wed Feb 05 2025 16:39:49 GMT-0600 (Central Standard Time),526084.3000001907,A,la,O,backspace,145,1,3433.9000000953674,522650.40000009537,0,WL,B,13.0
4,28.292999982833862,learn,31707.000017166138,Wed Feb 05 2025 16:39:49 GMT-0600 (Central Standard Time),526233.3000001907,A,l,O,backspace,133,1,3582.9000000953674,522650.40000009537,0,WL,B,13.0
4,28.443000078201294,learn,31556.999921798706,Wed Feb 05 2025 16:39:49 GMT-0600 (Central Standard Time),526383.0,A,,O,backspace,127,1,3732.5999999046326,522650.40000009537,0,WL,B,13.0
4,28.575999975204468,learn,31424.000024795532,Wed Feb 05 2025 16:39:49 GMT-0600 (Central Standard Time),526515.9000000954,A,,O,backspace,120,1,3865.5,522650.40000009537,0,WL,B,13.0
4,28.861999988555908,learn,31138.00001144409,Wed Feb 05 2025 16:39:49 GMT-0600 (Central Standard Time),526802.2000002861,A,c,O,c,280,1,4151.800000190735,522650.40000009537,0,WL,B,13.0
4,29.026000022888184,learn,30973.999977111816,Wed Feb 05 2025 16:39:49 GMT-0600 (Central Standard Time),526966.3000001907,A,cl,O,l,142,1,4315.900000095367,522650.40000009537,0,WL,B,13.0
4,29.192000150680542,learn,30807.999849319458,Wed Feb 05 2025 16:39:49 GMT-0600 (Central Standard Time),527132.3000001907,A,clo,O,o,147,1,4481.900000095367,522650.40000009537,0,WL,B,13.0
4,29.259000062942505,learn,30740.999937057495,Wed Feb 05 2025 16:39:49 GMT-0600 (Central Standard Time),527199.2000002861,A,cloc,O,c,53,1,4548.800000190735,522650.40000009537,0,WL,B,13.0
4,29.358999967575073,learn,30641.000032424927,Wed Feb 05 2025 16:39:49 GMT-0600 (Central Standard Time),527299.0,A,clock,O,k,82,1,4648.599999904633,522650.40000009537,0,WL,B,13.0
4,29.693000078201294,learn,30306.999921798706,Wed Feb 05 2025 16:39:49 GMT-0600 (Central Standard Time),527633.0999999046,A,clockenter,O,enter,329,1,4982.699999809265,522650.40000009537,0,WL,B,13.0
4,32.009000062942505,learn,27990.999937057495,Wed Feb 05 2025 16:39:49 GMT-0600 (Central Standard Time),529949.3000001907,A,p,O,p,2295,1,2315.9000000953674,527633.4000000954,0,WL,B,14.0
4,32.259000062942505,learn,27740.999937057495,Wed Feb 05 2025 16:39:49 GMT-0600 (Central Standard Time),530199.2000002861,A,pi,O,i,228,1,2565.800000190735,527633.4000000954,0,WL,B,14.0
4,32.426000118255615,learn,27573.999881744385,Wed Feb 05 2025 16:39:49 GMT-0600 (Central Standard Time),530366.2000002861,A,pip,O,p,154,1,2732.800000190735,527633.4000000954,0,WL,B,14.0
4,32.509000062942505,learn,27490.999937057495,Wed Feb 05 2025 16:39:49 GMT-0600 (Central Standard Time),530449.8000001907,A,pipe,O,e,77,1,2816.4000000953674,527633.4000000954,0,WL,B,14.0
4,32.95900011062622,learn,27040.99988937378,Wed Feb 05 2025 16:39:49 GMT-0600 (Central Standard Time),530899.5,A,pipeenter,O,enter,431,1,3266.0999999046326,527633.4000000954,0,WL,B,14.0
4,36.806999921798706,learn,23193.000078201294,Wed Feb 05 2025 16:39:49 GMT-0600 (Central Standard Time),534748.0,A,s,O,s,3830,1,3848.2999997138977,530899.7000002861,0,WL,B,15.0
4,36.90700006484985,learn,23092.999935150146,Wed Feb 05 2025 16:39:49 GMT-0600 (Central Standard Time),534847.7000002861,A,sk,O,k,76,1,3948.0,530899.7000002861,0,WL,B,15.0
4,37.055999994277954,learn,22944.000005722046,Wed Feb 05 2025 16:39:49 GMT-0600 (Central Standard Time),534996.8000001907,A,ski,O,i,139,1,4097.099999904633,530899.7000002861,0,WL,B,15.0
4,37.20700001716614,learn,22792.999982833862,Wed Feb 05 2025 16:39:49 GMT-0600 (Central Standard Time),535148.0999999046,A,skin,O,n,143,1,4248.39999961853,530899.7000002861,0,WL,B,15.0
4,37.59000015258789,learn,22409.99984741211,Wed Feb 05 2025 16:39:49 GMT-0600 (Central Standard Time),535530.8000001907,A,skinenter,O,enter,366,1,4631.099999904633,530899.7000002861,0,WL,B,15.0
5,0.6340000629425049,learn,60000.0,Wed Feb 05 2025 16:39:49 GMT-0600 (Central Standard Time),602559.3000001907,A,s,O,s,617,1,633.4000000953674,601925.9000000954,0,WL,B,1.0
5,0.7480001449584961,learn,60000.0,Wed Feb 05 2025 16:39:49 GMT-0600 (Central Standard Time),602673.7000002861,A,st,O,t,106,1,747.8000001907349,601925.9000000954,0,WL,B,1.0
5,0.9340000152587891,learn,60000.0,Wed Feb 05 2025 16:39:49 GMT-0600 (Central Standard Time),602859.3000001907,A,str,O,r,180,1,933.4000000953674,601925.9000000954,0,WL,B,1.0
5,1.1340000629425049,learn,60000.0,Wed Feb 05 2025 16:39:49 GMT-0600 (Central Standard Time),603060.0,A,stre,O,e,192,1,1134.0999999046326,601925.9000000954,0,WL,B,1.0
5,1.2840001583099365,learn,60000.0,Wed Feb 05 2025 16:39:49 GMT-0600 (Central Standard Time),603209.5,A,stree,O,e,131,1,1283.5999999046326,601925.9000000954,0,WL,B,1.0
5,1.4690001010894775,learn,60000.0,Wed Feb 05 2025 16:39:49 GMT-0600 (Central Standard Time),603394.0999999046,A,street,O,t,178,1,1468.1999998092651,601925.9000000954,0,WL,B,1.0
5,1.9170000553131104,learn,60000.0,Wed Feb 05 2025 16:39:49 GMT-0600 (Central Standard Time),603842.2000002861,A,streetenter,O,enter,440,1,1916.3000001907349,601925.9000000954,0,WL,B,1.0
5,2.450000047683716,learn,60000.0,Wed Feb 05 2025 16:39:49 GMT-0600 (Central Standard Time),604375.4000000954,A,g,O,g,519,1,532.9000000953674,603842.5,0,WL,B,2.0
5,2.6010000705718994,learn,60000.0,Wed Feb 05 2025 16:39:49 GMT-0600 (Central Standard Time),604526.2000002861,A,gr,O,r,129,1,683.7000002861023,603842.5,0,WL,B,2.0
5,2.8340001106262207,learn,60000.0,Wed Feb 05 2025 16:39:49 GMT-0600 (Central Standard Time),604759.5999999046,A,gra,O,a,211,1,917.0999999046326,603842.5,0,WL,B,2.0
5,3.0850000381469727,learn,60000.0,Wed Feb 05 2025 16:39:49 GMT-0600 (Central Standard Time),605010.5,A,gras,O,s,232,1,1168.0,603842.5,0,WL,B,2.0
5,3.2170000076293945,learn,60000.0,Wed Feb 05 2025 16:39:49 GMT-0600 (Central Standard Time),605143.0,A,grass,O,s,110,1,1300.5,603842.5,0,WL,B,2.0
5,3.3489999771118164,learn,60000.0,Wed Feb 05 2025 16:39:49 GMT-0600 (Central Standard Time),605274.7000002861,A,grassenter,O,enter,120,1,1432.2000002861023,603842.5,0,WL,B,2.0
5,3.815999984741211,learn,60000.0,Wed Feb 05 2025 16:39:49 GMT-0600 (Central Standard Time),605741.2000002861,A,d,O,d,456,1,466.2000002861023,605275.0,0,WL,B,3.0
5,4.0329999923706055,learn,60000.0,Wed Feb 05 2025 16:39:49 GMT-0600 (Central Standard Time),605958.7000002861,A,do,O,o,195,1,683.7000002861023,605275.0,0,WL,B,3.0
5,4.199000120162964,learn,60000.0,Wed Feb 05 2025 16:39:49 GMT-0600 (Central Standard Time),606124.8000001907,A,doo,O,o,147,1,849.8000001907349,605275.0,0,WL,B,3.0
5,4.317000150680542,learn,60000.0,Wed Feb 05 2025 16:39:49 GMT-0600 (Central Standard Time),606242.4000000954,A,door,O,r,111,1,967.4000000953674,605275.0,0,WL,B,3.0
5,5.14900016784668,learn,60000.0,Wed Feb 05 2025 16:39:49 GMT-0600 (Central Standard Time),607074.2000002861,A,doorenter,O,enter,825,1,1799.2000002861023,605275.0,0,WL,B,3.0
5,6.366000175476074,learn,60000.0,Wed Feb 05 2025 16:39:49 GMT-0600 (Central Standard Time),608291.7000002861,A,c,O,c,1198,1,1217.2000002861023,607074.5,0,WL,B,4.0
5,6.5,learn,60000.0,Wed Feb 05 2025 16:39:49 GMT-0600 (Central Standard Time),608425.3000001907,A,cl,O,l,110,1,1350.8000001907349,607074.5,0,WL,B,4.0
5,6.648000001907349,learn,60000.0,Wed Feb 05 2025 16:39:49 GMT-0600 (Central Standard Time),608574.0,A,clo,O,o,127,1,1499.5,607074.5,0,WL,B,4.0
5,6.733000040054321,learn,60000.0,Wed Feb 05 2025 16:39:49 GMT-0600 (Central Standard Time),608658.2000002861,A,cloc,O,c,77,1,1583.7000002861023,607074.5,0,WL,B,4.0
5,6.831000089645386,learn,60000.0,Wed Feb 05 2025 16:39:49 GMT-0600 (Central Standard Time),608756.7000002861,A,clock,O,k,88,1,1682.2000002861023,607074.5,0,WL,B,4.0
5,7.081000089645386,learn,60000.0,Wed Feb 05 2025 16:39:49 GMT-0600 (Central Standard Time),609006.0999999046,A,clockenter,O,enter,226,1,1931.5999999046326,607074.5,0,WL,B,4.0
5,7.29800009727478,learn,60000.0,Wed Feb 05 2025 16:39:49 GMT-0600 (Central Standard Time),609223.8000001907,A,w,O,w,202,1,217.5,609006.3000001907,0,WL,B,5.0
5,7.5980000495910645,learn,60000.0,Wed Feb 05 2025 16:39:49 GMT-0600 (Central Standard Time),609523.5,A,wi,O,i,290,1,517.1999998092651,609006.3000001907,0,WL,B,5.0
5,7.79800009727478,learn,60000.0,Wed Feb 05 2025 16:39:49 GMT-0600 (Central Standard Time),609723.5,A,win,O,n,189,1,717.1999998092651,609006.3000001907,0,WL,B,5.0
5,7.914999961853027,learn,60000.0,Wed Feb 05 2025 16:39:49 GMT-0600 (Central Standard Time),609840.3000001907,A,wind,O,d,92,1,834.0,609006.3000001907,0,WL,B,5.0
5,8.031000137329102,learn,60000.0,Wed Feb 05 2025 16:39:49 GMT-0600 (Central Standard Time),609956.5,A,windo,O,o,105,1,950.1999998092651,609006.3000001907,0,WL,B,5.0
5,8.180999994277954,learn,60000.0,Wed Feb 05 2025 16:39:49 GMT-0600 (Central Standard Time),610106.2000002861,A,window,O,w,133,1,1099.9000000953674,609006.3000001907,0,WL,B,5.0
5,8.315000057220459,learn,60000.0,Wed Feb 05 2025 16:39:49 GMT-0600 (Central Standard Time),610240.5,A,windowenter,O,enter,126,1,1234.1999998092651,609006.3000001907,0,WL,B,5.0
5,8.799000024795532,learn,60000.0,Wed Feb 05 2025 16:39:49 GMT-0600 (Central Standard Time),610724.0,A,p,O,p,473,1,483.19999980926514,610240.8000001907,0,WL,B,6.0
5,8.96500015258789,learn,60000.0,Wed Feb 05 2025 16:39:49 GMT-0600 (Central Standard Time),610890.0999999046,A,pi,O,i,146,1,649.2999997138977,610240.8000001907,0,WL,B,6.0
5,9.115000009536743,learn,60000.0,Wed Feb 05 2025 16:39:49 GMT-0600 (Central Standard Time),611040.2000002861,A,pip,O,p,142,1,799.4000000953674,610240.8000001907,0,WL,B,6.0
5,9.23200011253357,learn,60000.0,Wed Feb 05 2025 16:39:49 GMT-0600 (Central Standard Time),611157.0999999046,A,pipe,O,e,96,1,916.2999997138977,610240.8000001907,0,WL,B,6.0
5,9.597000122070312,learn,60000.0,Wed Feb 05 2025 16:39:49 GMT-0600 (Central Standard Time),611522.0999999046,A,pipeenter,O,enter,348,1,1281.2999997138977,610240.8000001907,0,WL,B,6.0
5,10.697999954223633,learn,60000.0,Wed Feb 05 2025 16:39:49 GMT-0600 (Central Standard Time),612623.0,A,c,O,c,1079,1,1100.6999998092651,611522.3000001907,0,WL,B,7.0
5,10.848000049591064,learn,60000.0,Wed Feb 05 2025 16:39:49 GMT-0600 (Central Standard Time),612773.5,A,ca,O,a,128,1,1251.1999998092651,611522.3000001907,0,WL,B,7.0
5,11.047000169754028,learn,60000.0,Wed Feb 05 2025 16:39:49 GMT-0600 (Central Standard Time),612972.5999999046,A,cab,O,b,192,1,1450.2999997138977,611522.3000001907,0,WL,B,7.0
5,11.182000160217285,learn,60000.0,Wed Feb 05 2025 16:39:49 GMT-0600 (Central Standard Time),613107.0,A,cabi,O,i,127,1,1584.6999998092651,611522.3000001907,0,WL,B,7.0
5,11.348999977111816,learn,60000.0,Wed Feb 05 2025 16:39:49 GMT-0600 (Central Standard Time),613274.0999999046,A,cabin,O,n,158,1,1751.7999997138977,611522.3000001907,0,WL,B,7.0
5,11.634999990463257,learn,60000.0,Wed Feb 05 2025 16:39:49 GMT-0600 (Central Standard Time),613560.0999999046,A,cabinenter,O,enter,262,1,2037.7999997138977,611522.3000001907,0,WL,B,7.0
5,12.27999997138977,learn,60000.0,Wed Feb 05 2025 16:39:49 GMT-0600 (Central Standard Time),614205.9000000954,A,l,O,l,634,1,645.5999999046326,613560.3000001907,0,WL,B,8.0
5,12.364000082015991,learn,60000.0,Wed Feb 05 2025 16:39:49 GMT-0600 (Central Standard Time),614289.7000002861,A,la,O,a,76,1,729.4000000953674,613560.3000001907,0,WL,B,8.0
5,12.480000019073486,learn,60000.0,Wed Feb 05 2025 16:39:49 GMT-0600 (Central Standard Time),614405.0999999046,A,lak,O,k,103,1,844.7999997138977,613560.3000001907,0,WL,B,8.0
5,12.597000122070312,learn,60000.0,Wed Feb 05 2025 16:39:49 GMT-0600 (Central Standard Time),614522.5,A,lake,O,e,109,1,962.1999998092651,613560.3000001907,0,WL,B,8.0
5,12.847000122070312,learn,60000.0,Wed Feb 05 2025 16:39:49 GMT-0600 (Central Standard Time),614772.7000002861,A,lakeenter,O,enter,229,1,1212.4000000953674,613560.3000001907,0,WL,B,8.0
5,13.496000051498413,learn,60000.0,Wed Feb 05 2025 16:39:49 GMT-0600 (Central Standard Time),615422.0,A,f,O,f,636,1,649.0999999046326,614772.9000000954,0,WL,B,9.0
5,13.629000186920166,learn,60000.0,Wed Feb 05 2025 16:39:49 GMT-0600 (Central Standard Time),615554.4000000954,A,fi,O,i,124,1,781.5,614772.9000000954,0,WL,B,9.0
5,13.713000059127808,learn,60000.0,Wed Feb 05 2025 16:39:49 GMT-0600 (Central Standard Time),615638.3000001907,A,fir,O,r,70,1,865.4000000953674,614772.9000000954,0,WL,B,9.0
5,13.914000034332275,learn,60000.0,Wed Feb 05 2025 16:39:49 GMT-0600 (Central Standard Time),615839.5,A,fire,O,e,179,1,1066.5999999046326,614772.9000000954,0,WL,B,9.0
5,14.062000036239624,learn,60000.0,Wed Feb 05 2025 16:39:49 GMT-0600 (Central Standard Time),615987.3000001907,A,fireenter,O,enter,129,1,1214.4000000953674,614772.9000000954,0,WL,B,9.0
5,15.61300015449524,learn,60000.0,Wed Feb 05 2025 16:39:49 GMT-0600 (Central Standard Time),617538.3000001907,A,w,O,w,1535,1,1550.7000002861023,615987.5999999046,0,WL,B,10.0
5,15.729000091552734,learn,60000.0,Wed Feb 05 2025 16:39:49 GMT-0600 (Central Standard Time),617654.0999999046,A,wi,O,i,102,1,1666.5,615987.5999999046,0,WL,B,10.0
5,15.845999956130981,learn,60000.0,Wed Feb 05 2025 16:39:49 GMT-0600 (Central Standard Time),617771.5,A,wif,O,f,99,1,1783.9000000953674,615987.5999999046,0,WL,B,10.0
5,15.980000019073486,learn,60000.0,Wed Feb 05 2025 16:39:49 GMT-0600 (Central Standard Time),617905.3000001907,A,wife,O,e,108,1,1917.7000002861023,615987.5999999046,0,WL,B,10.0
5,16.128000020980835,learn,60000.0,Wed Feb 05 2025 16:39:49 GMT-0600 (Central Standard Time),618053.5,A,wifeenter,O,enter,127,1,2065.9000000953674,615987.5999999046,0,WL,B,10.0
5,16.79700016975403,learn,60000.0,Wed Feb 05 2025 16:39:49 GMT-0600 (Central Standard Time),618722.5,A,c,O,c,664,1,668.6999998092651,618053.8000001907,0,WL,B,11.0
5,16.91200017929077,learn,60000.0,Wed Feb 05 2025 16:39:49 GMT-0600 (Central Standard Time),618837.3000001907,A,ci,O,i,101,1,783.5,618053.8000001907,0,WL,B,11.0
5,17.062999963760376,learn,60000.0,Wed Feb 05 2025 16:39:49 GMT-0600 (Central Standard Time),618988.0999999046,A,cit,O,t,131,1,934.2999997138977,618053.8000001907,0,WL,B,11.0
5,17.16200017929077,learn,60000.0,Wed Feb 05 2025 16:39:49 GMT-0600 (Central Standard Time),619087.0,A,city,O,y,76,1,1033.1999998092651,618053.8000001907,0,WL,B,11.0
5,17.478000164031982,learn,60000.0,Wed Feb 05 2025 16:39:49 GMT-0600 (Central Standard Time),619403.8000001907,A,cityenter,O,enter,298,1,1350.0,618053.8000001907,0,WL,B,11.0
5,17.945000171661377,learn,60000.0,Wed Feb 05 2025 16:39:49 GMT-0600 (Central Standard Time),619870.4000000954,A,a,O,a,453,1,466.40000009536743,619404.0,0,WL,B,12.0
5,18.16200017929077,learn,60000.0,Wed Feb 05 2025 16:39:49 GMT-0600 (Central Standard Time),620087.5,A,ar,O,r,195,1,683.5,619404.0,0,WL,B,12.0
5,18.24500012397766,learn,60000.0,Wed Feb 05 2025 16:39:49 GMT-0600 (Central Standard Time),620170.8000001907,A,arm,O,m,75,1,766.8000001907349,619404.0,0,WL,B,12.0
5,18.511000156402588,learn,60000.0,Wed Feb 05 2025 16:39:49 GMT-0600 (Central Standard Time),620436.3000001907,A,armenter,O,enter,246,1,1032.3000001907349,619404.0,0,WL,B,12.0
5,19.062000036239624,learn,60000.0,Wed Feb 05 2025 16:39:49 GMT-0600 (Central Standard Time),620987.2000002861,A,p,O,p,543,1,550.7000002861023,620436.5,0,WL,B,13.0
5,19.263000011444092,learn,60000.0,Wed Feb 05 2025 16:39:49 GMT-0600 (Central Standard Time),621187.9000000954,A,pu,O,u,181,1,751.4000000953674,620436.5,0,WL,B,13.0
5,19.49500012397766,learn,60000.0,Wed Feb 05 2025 16:39:49 GMT-0600 (Central Standard Time),621420.3000001907,A,pup,O,p,220,1,983.8000001907349,620436.5,0,WL,B,13.0
5,19.861999988555908,learn,60000.0,Wed Feb 05 2025 16:39:49 GMT-0600 (Central Standard Time),621787.0,A,pupi,O,i,358,1,1350.5,620436.5,0,WL,B,13.0
5,20.06000018119812,learn,60000.0,Wed Feb 05 2025 16:39:49 GMT-0600 (Central Standard Time),621985.5999999046,A,pupil,O,l,184,1,1549.0999999046326,620436.5,0,WL,B,13.0
5,20.311000108718872,learn,60000.0,Wed Feb 05 2025 16:39:49 GMT-0600 (Central Standard Time),622236.7000002861,A,pupilenter,O,enter,229,1,1800.2000002861023,620436.5,0,WL,B,13.0
5,20.72699999809265,learn,60000.0,Wed Feb 05 2025 16:39:49 GMT-0600 (Central Standard Time),622652.5999999046,A,s,O,s,404,1,415.59999990463257,622237.0,0,WL,B,14.0
5,20.860000133514404,learn,60000.0,Wed Feb 05 2025 16:39:49 GMT-0600 (Central Standard Time),622785.5999999046,A,sk,O,k,117,1,548.5999999046326,622237.0,0,WL,B,14.0
5,21.061000108718872,learn,60000.0,Wed Feb 05 2025 16:39:49 GMT-0600 (Central Standard Time),622986.7000002861,A,ski,O,i,184,1,749.7000002861023,622237.0,0,WL,B,14.0
5,21.24399995803833,learn,60000.0,Wed Feb 05 2025 16:39:49 GMT-0600 (Central Standard Time),623169.4000000954,A,skin,O,n,167,1,932.4000000953674,622237.0,0,WL,B,14.0
5,21.627000093460083,learn,60000.0,Wed Feb 05 2025 16:39:49 GMT-0600 (Central Standard Time),623552.3000001907,A,skinenter,O,enter,367,1,1315.3000001907349,622237.0,0,WL,B,14.0
5,39.17300009727478,learn,60000.0,Wed Feb 05 2025 16:39:49 GMT-0600 (Central Standard Time),641098.4000000954,A,c,O,c,17538,1,17545.900000095367,623552.5,0,WL,B,15.0
5,39.32200002670288,learn,60000.0,Wed Feb 05 2025 16:39:49 GMT-0600 (Central Standard Time),641247.5999999046,A,ci,O,i,135,1,17695.099999904633,623552.5,0,WL,B,15.0
5,39.43900012969971,learn,60000.0,Wed Feb 05 2025 16:39:49 GMT-0600 (Central Standard Time),641364.2000002861,A,cit,O,t,98,1,17811.700000286102,623552.5,0,WL,B,15.0
5,39.52300000190735,learn,60000.0,Wed Feb 05 2025 16:39:49 GMT-0600 (Central Standard Time),641448.5999999046,A,city,O,y,78,1,17896.099999904633,623552.5,0,WL,B,15.0
5,39.956000089645386,learn,60000.0,Wed Feb 05 2025 16:39:49 GMT-0600 (Central Standard Time),641881.2000002861,A,cityenter,O,enter,425,1,18328.700000286102,623552.5,0,WL,B,15.0
6,0.7669999599456787,distr,59233.00004005432,Wed Feb 05 2025 16:39:49 GMT-0600 (Central Standard Time),767706.5,B,c,O,c,749,1,766.1999998092651,766940.3000001907,0,WL,B,1.0
6,0.8830001354217529,distr,59116.99986457825,Wed Feb 05 2025 16:39:49 GMT-0600 (Central Standard Time),767823.0,B,co,O,o,94,1,882.6999998092651,766940.3000001907,0,WL,B,1.0
6,1.1010000705718994,distr,58898.9999294281,Wed Feb 05 2025 16:39:49 GMT-0600 (Central Standard Time),768040.5999999046,B,coi,O,i,192,1,1100.2999997138977,766940.3000001907,0,WL,B,1.0
6,1.2829999923706055,distr,58717.000007629395,Wed Feb 05 2025 16:39:49 GMT-0600 (Central Standard Time),768222.8000001907,B,coin,O,n,168,1,1282.5,766940.3000001907,0,WL,B,1.0
6,1.5829999446868896,distr,58417.00005531311,Wed Feb 05 2025 16:39:49 GMT-0600 (Central Standard Time),768522.5999999046,B,coinenter,O,enter,283,1,1582.2999997138977,766940.3000001907,0,WL,B,1.0
6,2.184000015258789,distr,57815.99998474121,Wed Feb 05 2025 16:39:49 GMT-0600 (Central Standard Time),769123.5,B,r,O,r,594,1,600.6999998092651,768522.8000001907,0,WL,B,2.0
6,2.450000047683716,distr,57549.999952316284,Wed Feb 05 2025 16:39:49 GMT-0600 (Central Standard Time),769389.7000002861,B,rc,O,c,244,1,866.9000000953674,768522.8000001907,0,WL,B,2.0
6,2.817000150680542,distr,57182.99984931946,Wed Feb 05 2025 16:39:49 GMT-0600 (Central Standard Time),769756.2000002861,B,r,O,backspace,342,1,1233.4000000953674,768522.8000001907,0,WL,B,2.0
6,3.2840001583099365,distr,56715.99984169006,Wed Feb 05 2025 16:39:49 GMT-0600 (Central Standard Time),770223.0999999046,B,ro,O,o,443,1,1700.2999997138977,768522.8000001907,0,WL,B,2.0
6,3.381999969482422,distr,56618.00003051758,Wed Feb 05 2025 16:39:49 GMT-0600 (Central Standard Time),770321.9000000954,B,roc,O,c,82,1,1799.0999999046326,768522.8000001907,0,WL,B,2.0
6,3.4839999675750732,distr,56516.00003242493,Wed Feb 05 2025 16:39:49 GMT-0600 (Central Standard Time),770423.0999999046,B,rock,O,k,77,1,1900.2999997138977,768522.8000001907,0,WL,B,2.0
6,3.7339999675750732,distr,56266.00003242493,Wed Feb 05 2025 16:39:49 GMT-0600 (Central Standard Time),770673.4000000954,B,rockenter,O,enter,243,1,2150.5999999046326,768522.8000001907,0,WL,B,2.0
6,4.266000032424927,distr,55733.99996757507,Wed Feb 05 2025 16:39:49 GMT-0600 (Central Standard Time),771205.9000000954,B,b,O,b,511,1,532.1999998092651,770673.7000002861,0,WL,B,3.0
6,4.33299994468689,distr,55667.00005531311,Wed Feb 05 2025 16:39:49 GMT-0600 (Central Standard Time),771272.4000000954,B,ba,O,a,57,1,598.6999998092651,770673.7000002861,0,WL,B,3.0
6,4.414999961853027,distr,55585.00003814697,Wed Feb 05 2025 16:39:49 GMT-0600 (Central Standard Time),771354.9000000954,B,bab,O,b,74,1,681.1999998092651,770673.7000002861,0,WL,B,3.0
6,4.616000175476074,distr,55383.999824523926,Wed Feb 05 2025 16:39:49 GMT-0600 (Central Standard Time),771555.5999999046,B,baby,O,y,190,1,881.8999996185303,770673.7000002861,0,WL,B,3.0
6,4.966000080108643,distr,55033.99991989136,Wed Feb 05 2025 16:39:49 GMT-0600 (Central Standard Time),771906.0,B,babyenter,O,enter,333,1,1232.2999997138977,770673.7000002861,0,WL,B,3.0
6,5.466000080108643,distr,54533.99991989136,Wed Feb 05 2025 16:39:49 GMT-0600 (Central Standard Time),772405.5999999046,B,b,O,b,480,1,499.3999996185303,771906.2000002861,0,WL,B,4.0
6,5.648000001907349,distr,54351.99999809265,Wed Feb 05 2025 16:39:49 GMT-0600 (Central Standard Time),772588.3000001907,B,bu,O,u,162,1,682.0999999046326,771906.2000002861,0,WL,B,4.0
6,5.815999984741211,distr,54184.00001525879,Wed Feb 05 2025 16:39:49 GMT-0600 (Central Standard Time),772756.0999999046,B,bui,O,i,160,1,849.8999996185303,771906.2000002861,0,WL,B,4.0
6,6.299999952316284,distr,53700.000047683716,Wed Feb 05 2025 16:39:49 GMT-0600 (Central Standard Time),773239.8000001907,B,bu,O,backspace,469,1,1333.5999999046326,771906.2000002861,0,WL,B,4.0
6,7.0320000648498535,distr,52967.99993515015,Wed Feb 05 2025 16:39:49 GMT-0600 (Central Standard Time),773972.0,B,bui,O,i,725,1,2065.7999997138977,771906.2000002861,0,WL,B,4.0
6,7.216000080108643,distr,52783.99991989136,Wed Feb 05 2025 16:39:49 GMT-0600 (Central Standard Time),774156.0999999046,B,buil,O,l,174,1,2249.8999996185303,771906.2000002861,0,WL,B,4.0
6,7.348999977111816,distr,52651.00002288818,Wed Feb 05 2025 16:39:49 GMT-0600 (Central Standard Time),774289.2000002861,B,build,O,d,118,1,2383.0,771906.2000002861,0,WL,B,4.0
6,7.46399998664856,distr,52536.00001335144,Wed Feb 05 2025 16:39:49 GMT-0600 (Central Standard Time),774404.5,B,buildi,O,i,102,1,2498.2999997138977,771906.2000002861,0,WL,B,4.0
6,7.615000009536743,distr,52384.99999046326,Wed Feb 05 2025 16:39:49 GMT-0600 (Central Standard Time),774555.4000000954,B,buildin,O,n,131,1,2649.199999809265,771906.2000002861,0,WL,B,4.0
6,7.71399998664856,distr,52286.00001335144,Wed Feb 05 2025 16:39:49 GMT-0600 (Central Standard Time),774654.4000000954,B,building,O,g,76,1,2748.199999809265,771906.2000002861,0,WL,B,4.0
6,7.898000001907349,distr,52101.99999809265,Wed Feb 05 2025 16:39:49 GMT-0600 (Central Standard Time),774838.0999999046,B,buildingenter,O,enter,162,1,2931.8999996185303,771906.2000002861,0,WL,B,4.0
6,8.297000169754028,distr,51702.99983024597,Wed Feb 05 2025 16:39:49 GMT-0600 (Central Standard Time),775236.9000000954,B,s,O,s,387,1,398.5,774838.4000000954,0,WL,B,5.0
6,8.498000144958496,distr,51501.999855041504,Wed Feb 05 2025 16:39:49 GMT-0600 (Central Standard Time),775438.2000002861,B,st,O,t,181,1,599.8000001907349,774838.4000000954,0,WL,B,5.0
6,8.781000137329102,distr,51218.9998626709,Wed Feb 05 2025 16:39:49 GMT-0600 (Central Standard Time),775720.9000000954,B,sto,O,o,268,1,882.5,774838.4000000954,0,WL,B,5.0
6,8.897000074386597,distr,51102.9999256134,Wed Feb 05 2025 16:39:49 GMT-0600 (Central Standard Time),775837.2000002861,B,stor,O,r,105,1,998.8000001907349,774838.4000000954,0,WL,B,5.0
6,9.02999997138977,distr,50970.00002861023,Wed Feb 05 2025 16:39:49 GMT-0600 (Central Standard Time),775970.3000001907,B,storm,O,m,115,1,1131.9000000953674,774838.4000000954,0,WL,B,5.0
6,9.347000122070312,distr,50652.99987792969,Wed Feb 05 2025 16:39:49 GMT-0600 (Central Standard Time),776287.0,B,stormenter,O,enter,302,1,1448.5999999046326,774838.4000000954,0,WL,B,5.0
6,12.197999954223633,distr,47802.00004577637,Wed Feb 05 2025 16:39:49 GMT-0600 (Central Standard Time),779138.0999999046,B,c,O,c,2846,1,2850.8999996185303,776287.2000002861,0,WL,B,6.0
6,12.378999948501587,distr,47621.00005149841,Wed Feb 05 2025 16:39:49 GMT-0600 (Central Standard Time),779319.3000001907,B,ce,O,e,168,1,3032.0999999046326,776287.2000002861,0,WL,B,6.0
6,12.480000019073486,distr,47519.999980926514,Wed Feb 05 2025 16:39:49 GMT-0600 (Central Standard Time),779419.5999999046,B,cel,O,l,81,1,3132.3999996185303,776287.2000002861,0,WL,B,6.0
6,12.646000146865845,distr,47353.999853134155,Wed Feb 05 2025 16:39:49 GMT-0600 (Central Standard Time),779586.2000002861,B,cell,O,l,150,1,3299.0,776287.2000002861,0,WL,B,6.0
6,12.980000019073486,distr,47019.999980926514,Wed Feb 05 2025 16:39:49 GMT-0600 (Central Standard Time),779919.9000000954,B,cellenter,O,enter,312,1,3632.699999809265,776287.2000002861,0,WL,B,6.0
6,19.67799997329712,distr,40322.00002670288,Wed Feb 05 2025 16:39:49 GMT-0600 (Central Standard Time),786617.5999999046,B,enter,O,enter,6689,1,6697.5,779920.0999999046,0,WL,B,7.0
6,19.843000173568726,distr,40156.999826431274,Wed Feb 05 2025 16:39:49 GMT-0600 (Central Standard Time),786783.0999999046,B,enter,O,enter,143,1,165.19999980926514,786617.9000000954,0,WL,B,8.0
6,20.011000156402588,distr,39988.99984359741,Wed Feb 05 2025 16:39:49 GMT-0600 (Central Standard Time),786951.3000001907,B,enter,O,enter,146,1,167.90000009536743,786783.4000000954,0,WL,B,9.0
6,20.144999980926514,distr,39855.000019073486,Wed Feb 05 2025 16:39:49 GMT-0600 (Central Standard Time),787084.8000001907,B,enter,O,enter,124,1,133.2000002861023,786951.5999999046,0,WL,B,10.0
6,20.292999982833862,distr,39707.00001716614,Wed Feb 05 2025 16:39:49 GMT-0600 (Central Standard Time),787233.3000001907,B,enter,O,enter,134,1,148.2000002861023,787085.0999999046,0,WL,B,11.0
6,20.66000008583069,distr,39339.99991416931,Wed Feb 05 2025 16:39:49 GMT-0600 (Central Standard Time),787600.2000002861,B,enter,O,enter,353,1,366.6000003814697,787233.5999999046,0,WL,B,12.0
6,21.575999975204468,distr,38424.00002479553,Wed Feb 05 2025 16:39:49 GMT-0600 (Central Standard Time),788516.2000002861,B,enter,O,enter,904,1,915.7000002861023,787600.5,0,WL,B,13.0
6,22.061000108718872,distr,37938.99989128113,Wed Feb 05 2025 16:39:49 GMT-0600 (Central Standard Time),789001.0,B,enter,O,enter,459,1,484.40000009536743,788516.5999999046,0,WL,B,14.0
6,22.759000062942505,distr,37240.999937057495,Wed Feb 05 2025 16:39:49 GMT-0600 (Central Standard Time),789699.0,B,enter,O,enter,692,1,697.6999998092651,789001.3000001907,0,WL,B,15.0
7,5.980000019073486,immed,54019.999980926514,Wed Feb 05 2025 16:39:49 GMT-0600 (Central Standard Time),809910.5,A,c,O,c,5969,1,5980.099999904633,803930.4000000954,0,WL,B,1.0
7,6.147000074386597,immed,53852.9999256134,Wed Feb 05 2025 16:39:49 GMT-0600 (Central Standard Time),810077.2000002861,A,ca,O,a,150,1,6146.800000190735,803930.4000000954,0,WL,B,1.0
7,6.263999938964844,immed,53736.000061035156,Wed Feb 05 2025 16:39:49 GMT-0600 (Central Standard Time),810194.0999999046,A,cab,O,b,99,1,6263.699999809265,803930.4000000954,0,WL,B,1.0
7,6.414000034332275,immed,53585.999965667725,Wed Feb 05 2025 16:39:49 GMT-0600 (Central Standard Time),810344.4000000954,A,cabi,O,i,132,1,6414.0,803930.4000000954,0,WL,B,1.0
7,6.5970001220703125,immed,53402.99987792969,Wed Feb 05 2025 16:39:49 GMT-0600 (Central Standard Time),810527.4000000954,A,cabin,O,n,159,1,6597.0,803930.4000000954,0,WL,B,1.0
7,6.8470001220703125,immed,53152.99987792969,Wed Feb 05 2025 16:39:49 GMT-0600 (Central Standard Time),810776.5999999046,A,cabinenter,O,enter,234,1,6846.199999809265,803930.4000000954,0,WL,B,1.0
7,7.196000099182129,immed,52803.99990081787,Wed Feb 05 2025 16:39:49 GMT-0600 (Central Standard Time),811126.4000000954,A,w,O,w,337,1,349.5,810776.9000000954,0,WL,B,2.0
7,7.3470001220703125,immed,52652.99987792969,Wed Feb 05 2025 16:39:49 GMT-0600 (Central Standard Time),811276.7000002861,A,wi,O,i,131,1,499.80000019073486,810776.9000000954,0,WL,B,2.0
7,7.496000051498413,immed,52503.99994850159,Wed Feb 05 2025 16:39:49 GMT-0600 (Central Standard Time),811426.5,A,win,O,n,141,1,649.5999999046326,810776.9000000954,0,WL,B,2.0
7,7.580000162124634,immed,52419.999837875366,Wed Feb 05 2025 16:39:49 GMT-0600 (Central Standard Time),811510.0999999046,A,wind,O,d,68,1,733.1999998092651,810776.9000000954,0,WL,B,2.0
7,7.730999946594238,immed,52269.00005340576,Wed Feb 05 2025 16:39:49 GMT-0600 (Central Standard Time),811660.7000002861,A,windo,O,o,123,1,883.8000001907349,810776.9000000954,0,WL,B,2.0
7,7.830000162124634,immed,52169.999837875366,Wed Feb 05 2025 16:39:49 GMT-0600 (Central Standard Time),811759.7000002861,A,window,O,w,84,1,982.8000001907349,810776.9000000954,0,WL,B,2.0
7,7.962000131607056,immed,52037.999868392944,Wed Feb 05 2025 16:39:49 GMT-0600 (Central Standard Time),811891.9000000954,A,windowenter,O,enter,113,1,1115.0,810776.9000000954,0,WL,B,2.0
7,8.163000106811523,immed,51836.99989318848,Wed Feb 05 2025 16:39:49 GMT-0600 (Central Standard Time),812093.0999999046,A,d,O,d,180,1,200.89999961853027,811892.2000002861,0,WL,B,3.0
7,8.295000076293945,immed,51704.999923706055,Wed Feb 05 2025 16:39:49 GMT-0600 (Central Standard Time),812225.5,A,do,O,o,116,1,333.2999997138977,811892.2000002861,0,WL,B,3.0
7,8.46399998664856,immed,51536.00001335144,Wed Feb 05 2025 16:39:49 GMT-0600 (Central Standard Time),812393.5,A,doo,O,o,160,1,501.2999997138977,811892.2000002861,0,WL,B,3.0
7,8.580000162124634,immed,51419.999837875366,Wed Feb 05 2025 16:39:49 GMT-0600 (Central Standard Time),812509.8000001907,A,door,O,r,104,1,617.5999999046326,811892.2000002861,0,WL,B,3.0
7,8.82800006866455,immed,51171.99993133545,Wed Feb 05 2025 16:39:49 GMT-0600 (Central Standard Time),812758.5,A,doorenter,O,enter,222,1,866.2999997138977,811892.2000002861,0,WL,B,3.0
7,9.694999933242798,immed,50305.0000667572,Wed Feb 05 2025 16:39:49 GMT-0600 (Central Standard Time),813624.7000002861,A,c,O,c,857,1,865.9000000953674,812758.8000001907,0,WL,B,4.0
7,9.809999942779541,immed,50190.00005722046,Wed Feb 05 2025 16:39:49 GMT-0600 (Central Standard Time),813739.9000000954,A,cl,O,l,106,1,981.0999999046326,812758.8000001907,0,WL,B,4.0
7,9.976999998092651,immed,50023.00000190735,Wed Feb 05 2025 16:39:49 GMT-0600 (Central Standard Time),813907.4000000954,A,clo,O,o,158,1,1148.5999999046326,812758.8000001907,0,WL,B,4.0
7,10.11300015449524,immed,49886.99984550476,Wed Feb 05 2025 16:39:49 GMT-0600 (Central Standard Time),814043.4000000954,A,cloc,O,c,114,1,1284.5999999046326,812758.8000001907,0,WL,B,4.0
7,10.210999965667725,immed,49789.000034332275,Wed Feb 05 2025 16:39:49 GMT-0600 (Central Standard Time),814141.0999999046,A,clock,O,k,76,1,1382.2999997138977,812758.8000001907,0,WL,B,4.0
7,10.526999950408936,immed,49473.000049591064,Wed Feb 05 2025 16:39:49 GMT-0600 (Central Standard Time),814456.5999999046,A,clockenter,O,enter,305,1,1697.7999997138977,812758.8000001907,0,WL,B,4.0
7,11.91100001335144,immed,48088.99998664856,Wed Feb 05 2025 16:39:49 GMT-0600 (Central Standard Time),815841.5,A,f,O,f,1378,1,1384.6999998092651,814456.8000001907,0,WL,B,5.0
7,12.011000156402588,immed,47988.99984359741,Wed Feb 05 2025 16:39:49 GMT-0600 (Central Standard Time),815941.4000000954,A,fi,O,i,83,1,1484.5999999046326,814456.8000001907,0,WL,B,5.0
7,12.111000061035156,immed,47888.999938964844,Wed Feb 05 2025 16:39:49 GMT-0600 (Central Standard Time),816040.5999999046,A,fir,O,r,92,1,1583.7999997138977,814456.8000001907,0,WL,B,5.0
7,12.295000076293945,immed,47704.999923706055,Wed Feb 05 2025 16:39:49 GMT-0600 (Central Standard Time),816225.4000000954,A,fire,O,e,168,1,1768.5999999046326,814456.8000001907,0,WL,B,5.0
7,12.480000019073486,immed,47519.999980926514,Wed Feb 05 2025 16:39:49 GMT-0600 (Central Standard Time),816409.9000000954,A,fireenter,O,enter,178,1,1953.0999999046326,814456.8000001907,0,WL,B,5.0
7,13.011000156402588,immed,46988.99984359741,Wed Feb 05 2025 16:39:49 GMT-0600 (Central Standard Time),816941.5,A,l,O,l,520,1,531.4000000953674,816410.0999999046,0,WL,B,6.0
7,13.111999988555908,immed,46888.00001144409,Wed Feb 05 2025 16:39:49 GMT-0600 (Central Standard Time),817041.5999999046,A,la,O,a,80,1,631.5,816410.0999999046,0,WL,B,6.0
7,13.229000091552734,immed,46770.999908447266,Wed Feb 05 2025 16:39:49 GMT-0600 (Central Standard Time),817159.4000000954,A,lak,O,k,104,1,749.3000001907349,816410.0999999046,0,WL,B,6.0
7,13.311000108718872,immed,46688.99989128113,Wed Feb 05 2025 16:39:49 GMT-0600 (Central Standard Time),817240.7000002861,A,lake,O,e,67,1,830.6000003814697,816410.0999999046,0,WL,B,6.0
7,13.495000123977661,immed,46504.99987602234,Wed Feb 05 2025 16:39:49 GMT-0600 (Central Standard Time),817424.8000001907,A,lakeenter,O,enter,176,1,1014.7000002861023,816410.0999999046,0,WL,B,6.0
7,14.16100001335144,immed,45838.99998664856,Wed Feb 05 2025 16:39:49 GMT-0600 (Central Standard Time),818091.3000001907,A,c,O,c,649,1,666.2000002861023,817425.0999999046,0,WL,B,7.0
7,14.296000003814697,immed,45703.9999961853,Wed Feb 05 2025 16:39:49 GMT-0600 (Central Standard Time),818225.5999999046,A,ci,O,i,117,1,800.5,817425.0999999046,0,WL,B,7.0
7,14.479000091552734,immed,45520.999908447266,Wed Feb 05 2025 16:39:49 GMT-0600 (Central Standard Time),818409.0999999046,A,cit,O,t,154,1,984.0,817425.0999999046,0,WL,B,7.0
7,14.57800006866455,immed,45421.99993133545,Wed Feb 05 2025 16:39:49 GMT-0600 (Central Standard Time),818508.2000002861,A,city,O,y,82,1,1083.1000003814697,817425.0999999046,0,WL,B,7.0
7,14.861000061035156,immed,45138.999938964844,Wed Feb 05 2025 16:39:49 GMT-0600 (Central Standard Time),818791.3000001907,A,cityenter,O,enter,268,1,1366.2000002861023,817425.0999999046,0,WL,B,7.0
7,15.39300012588501,immed,44606.99987411499,Wed Feb 05 2025 16:39:49 GMT-0600 (Central Standard Time),819323.2000002861,A,w,O,w,514,1,531.6000003814697,818791.5999999046,0,WL,B,8.0
7,15.49399995803833,immed,44506.00004196167,Wed Feb 05 2025 16:39:49 GMT-0600 (Central Standard Time),819424.0999999046,A,wi,O,i,85,1,632.5,818791.5999999046,0,WL,B,8.0
7,15.628000020980835,immed,44371.999979019165,Wed Feb 05 2025 16:39:49 GMT-0600 (Central Standard Time),819557.9000000954,A,wif,O,f,112,1,766.3000001907349,818791.5999999046,0,WL,B,8.0
7,15.809999942779541,immed,44190.00005722046,Wed Feb 05 2025 16:39:49 GMT-0600 (Central Standard Time),819739.8000001907,A,wife,O,e,172,1,948.2000002861023,818791.5999999046,0,WL,B,8.0
7,15.9760000705719,immed,44023.9999294281,Wed Feb 05 2025 16:39:49 GMT-0600 (Central Standard Time),819906.0,A,wifeenter,O,enter,158,1,1114.4000000953674,818791.5999999046,0,WL,B,8.0
7,16.261000156402588,immed,43738.99984359741,Wed Feb 05 2025 16:39:49 GMT-0600 (Central Standard Time),820191.3000001907,A,a,O,a,273,1,285.09999990463257,819906.2000002861,0,WL,B,9.0
7,16.475000143051147,immed,43524.99985694885,Wed Feb 05 2025 16:39:49 GMT-0600 (Central Standard Time),820405.0,A,ar,O,r,193,1,498.7999997138977,819906.2000002861,0,WL,B,9.0
7,16.592999935150146,immed,43407.00006484985,Wed Feb 05 2025 16:39:49 GMT-0600 (Central Standard Time),820523.0999999046,A,arm,O,m,107,1,616.8999996185303,819906.2000002861,0,WL,B,9.0
7,16.861000061035156,immed,43138.999938964844,Wed Feb 05 2025 16:39:49 GMT-0600 (Central Standard Time),820791.0,A,armenter,O,enter,250,1,884.7999997138977,819906.2000002861,0,WL,B,9.0
7,17.16000008583069,immed,42839.99991416931,Wed Feb 05 2025 16:39:49 GMT-0600 (Central Standard Time),821090.4000000954,A,s,O,s,282,1,299.09999990463257,820791.3000001907,0,WL,B,10.0
7,17.360000133514404,immed,42639.999866485596,Wed Feb 05 2025 16:39:49 GMT-0600 (Central Standard Time),821289.9000000954,A,sk,O,k,183,1,498.59999990463257,820791.3000001907,0,WL,B,10.0
7,17.52900004386902,immed,42470.99995613098,Wed Feb 05 2025 16:39:49 GMT-0600 (Central Standard Time),821458.7000002861,A,ski,O,i,161,1,667.4000000953674,820791.3000001907,0,WL,B,10.0
7,17.694000005722046,immed,42305.999994277954,Wed Feb 05 2025 16:39:49 GMT-0600 (Central Standard Time),821624.0,A,skin,O,n,149,1,832.6999998092651,820791.3000001907,0,WL,B,10.0
7,17.943000078201294,immed,42056.999921798706,Wed Feb 05 2025 16:39:49 GMT-0600 (Central Standard Time),821872.5,A,skinenter,O,enter,235,1,1081.1999998092651,820791.3000001907,0,WL,B,10.0
7,18.496000051498413,immed,41503.99994850159,Wed Feb 05 2025 16:39:49 GMT-0600 (Central Standard Time),822425.5999999046,A,p,O,p,545,1,552.7999997138977,821872.8000001907,0,WL,B,11.0
7,18.728000164031982,immed,41271.99983596802,Wed Feb 05 2025 16:39:49 GMT-0600 (Central Standard Time),822657.9000000954,A,pu,O,u,208,1,785.0999999046326,821872.8000001907,0,WL,B,11.0
7,19.092999935150146,immed,40907.00006484985,Wed Feb 05 2025 16:39:49 GMT-0600 (Central Standard Time),823023.0999999046,A,pup,O,p,353,1,1150.2999997138977,821872.8000001907,0,WL,B,11.0
7,19.39199995994568,immed,40608.00004005432,Wed Feb 05 2025 16:39:49 GMT-0600 (Central Standard Time),823321.8000001907,A,pupi,O,i,288,1,1449.0,821872.8000001907,0,WL,B,11.0
7,20.092999935150146,immed,39907.00006484985,Wed Feb 05 2025 16:39:49 GMT-0600 (Central Standard Time),824023.4000000954,A,pupil,O,l,677,1,2150.5999999046326,821872.8000001907,0,WL,B,11.0
7,20.342000007629395,immed,39657.999992370605,Wed Feb 05 2025 16:39:49 GMT-0600 (Central Standard Time),824272.4000000954,A,pupilenter,O,enter,230,1,2399.5999999046326,821872.8000001907,0,WL,B,11.0
7,21.04200005531311,immed,38957.99994468689,Wed Feb 05 2025 16:39:49 GMT-0600 (Central Standard Time),824972.5999999046,A,p,O,p,680,1,699.8999996185303,824272.7000002861,0,WL,B,12.0
7,21.292999982833862,immed,38707.00001716614,Wed Feb 05 2025 16:39:49 GMT-0600 (Central Standard Time),825222.9000000954,A,pi,O,i,228,1,950.1999998092651,824272.7000002861,0,WL,B,12.0
7,21.508000135421753,immed,38491.99986457825,Wed Feb 05 2025 16:39:49 GMT-0600 (Central Standard Time),825437.8000001907,A,pip,O,p,202,1,1165.0999999046326,824272.7000002861,0,WL,B,12.0
7,21.60800004005432,immed,38391.99995994568,Wed Feb 05 2025 16:39:49 GMT-0600 (Central Standard Time),825537.9000000954,A,pipe,O,e,86,1,1265.1999998092651,824272.7000002861,0,WL,B,12.0
7,22.05900001525879,immed,37940.99998474121,Wed Feb 05 2025 16:39:49 GMT-0600 (Central Standard Time),825988.9000000954,A,pipeenter,O,enter,431,1,1716.1999998092651,824272.7000002861,0,WL,B,12.0
7,33.705000162124634,immed,26294.999837875366,Wed Feb 05 2025 16:39:49 GMT-0600 (Central Standard Time),837635.5,A,g,O,g,11639,1,11646.400000095367,825989.0999999046,0,WL,B,13.0
7,33.888999938964844,immed,26111.000061035156,Wed Feb 05 2025 16:39:49 GMT-0600 (Central Standard Time),837819.3000001907,A,gr,O,r,176,1,11830.200000286102,825989.0999999046,0,WL,B,13.0
7,33.98699998855591,immed,26013.00001144409,Wed Feb 05 2025 16:39:49 GMT-0600 (Central Standard Time),837917.5,A,gra,O,a,87,1,11928.400000095367,825989.0999999046,0,WL,B,13.0
7,34.22000002861023,immed,25779.99997138977,Wed Feb 05 2025 16:39:49 GMT-0600 (Central Standard Time),838150.4000000954,A,gras,O,s,220,1,12161.300000190735,825989.0999999046,0,WL,B,13.0
7,34.37100005149841,immed,25628.999948501587,Wed Feb 05 2025 16:39:49 GMT-0600 (Central Standard Time),838301.2000002861,A,grass,O,s,133,1,12312.10000038147,825989.0999999046,0,WL,B,13.0
7,34.486000061035156,immed,25513.999938964844,Wed Feb 05 2025 16:39:49 GMT-0600 (Central Standard Time),838416.9000000954,A,grassenter,O,enter,98,1,12427.800000190735,825989.0999999046,0,WL,B,13.0
7,46.51600003242493,immed,13483.999967575073,Wed Feb 05 2025 16:39:49 GMT-0600 (Central Standard Time),850446.9000000954,A,enter,O,enter,12009,1,12029.5,838417.4000000954,0,WL,B,14.0
7,47.54900002479553,immed,12450.999975204468,Wed Feb 05 2025 16:39:49 GMT-0600 (Central Standard Time),851479.5999999046,A,enter,O,enter,1017,1,1032.5,850447.0999999046,0,WL,B,15.0
