acc_sum,block_c,block_dur,condition,correct,correct_response,countdown,datetime,endtime,project,response,response_time,response_time_test1_response,response_time_test2_response,row_sel,same,session_number,start_end,starttime,stim1,stim2,subject_id,task,task_vers,time_test1,time_test2,trial
1,1,0.0,prac,1,m,30000.0,Thu Apr 17 2025 18:02:15 GMT-0500 (Central Daylight Time),37823.70000000298,O,m,2926,,,6,no,1,4445.10000000149,33378.60000000149,practrial6.png,practrial6b.png,7111,PC,C,,,1
2,1,0.0,prac,1,m,30000.0,Thu Apr 17 2025 18:02:15 GMT-0500 (Central Daylight Time),41156.20000000298,O,m,1796,,,4,no,1,3327.89999999851,37828.30000000447,practrial4.png,practrial4b.png,7111,PC,C,,,2
3,1,0.0,prac,1,z,30000.0,Thu Apr 17 2025 18:02:15 GMT-0500 (Central Daylight Time),44521.5,O,z,1834,,,3,yes,1,3361.7999999970198,41159.70000000298,practrial3.png,practrial3.png,7111,PC,C,,,3
4,1,0.0,prac,1,z,30000.0,Thu Apr 17 2025 18:02:15 GMT-0500 (Central Daylight Time),48120.60000000149,O,z,2068,,,1,yes,1,3595.60000000149,44525.0,practrial1.png,practrial1.png,7111,PC,C,,,4
5,1,0.0,prac,1,m,30000.0,Thu Apr 17 2025 18:02:15 GMT-0500 (Central Daylight Time),51153.0,O,m,1501,,,2,no,1,3028.89999999851,48124.10000000149,practrial2.png,practrial2b.png,7111,PC,C,,,5
6,1,0.0,prac,1,z,30000.0,Thu Apr 17 2025 18:02:15 GMT-0500 (Central Daylight Time),54185.10000000149,O,z,1509,,,5,yes,1,3028.5,51156.60000000149,practrial5.png,practrial5.png,7111,PC,C,,,6
1,1,1.7699999809265137,test,1,z,28230.000019073486,Thu Apr 17 2025 18:02:15 GMT-0500 (Central Daylight Time),59200.30000000447,O,z,1752,1752,,1,yes,1,1767.2000000029802,57433.10000000149,test1trial1.png,test1trial1.png,7111,PC,C,55351,,1
2,1,3.070000171661377,test,1,m,26929.999828338623,Thu Apr 17 2025 18:02:15 GMT-0500 (Central Daylight Time),60500.10000000149,O,m,1294,1294,,2,no,1,1296.7999999970198,59203.30000000447,test1trial2.png,test1trial2b.png,7111,PC,C,57121,,2
3,1,4.503000020980835,test,1,z,25496.999979019165,Thu Apr 17 2025 18:02:15 GMT-0500 (Central Daylight Time),61932.80000000447,O,z,1426,1426,,3,yes,1,1429.8000000044703,60503.0,test1trial3.png,test1trial3.png,7111,PC,C,58421,,3
4,1,5.585999965667725,test,1,m,24414.000034332275,Thu Apr 17 2025 18:02:15 GMT-0500 (Central Daylight Time),63015.70000000298,O,m,1074,1074,,4,no,1,1080.5,61935.20000000298,test1trial4.png,test1trial4b.png,7111,PC,C,59853,,4
5,1,6.884999990463257,test,1,z,23115.000009536743,Thu Apr 17 2025 18:02:15 GMT-0500 (Central Daylight Time),64315.10000000149,O,z,1295,1295,,5,yes,1,1296.6000000014901,63018.5,test1trial5.png,test1trial5.png,7111,PC,C,60936,,5
6,1,7.884999990463257,test,1,m,22115.000009536743,Thu Apr 17 2025 18:02:15 GMT-0500 (Central Daylight Time),65314.80000000447,O,m,995,995,,6,no,1,996.8999999985099,64317.90000000596,test1trial6.png,test1trial6b.png,7111,PC,C,62236,,6
7,1,9.035000085830688,test,1,z,20964.99991416931,Thu Apr 17 2025 18:02:15 GMT-0500 (Central Daylight Time),66464.70000000298,O,z,1140,1140,,7,yes,1,1147.0,65317.70000000298,test1trial7.png,test1trial7.png,7111,PC,C,63235,,7
7,1,10.717000007629395,test,0,m,19282.999992370605,Thu Apr 17 2025 18:02:15 GMT-0500 (Central Daylight Time),68147.30000000447,O,z,1670,1670,,8,no,1,1679.8000000044703,66467.5,test1trial8.png,test1trial8b.png,7111,PC,C,64385,,8
8,1,11.917999982833862,test,1,z,18082.000017166138,Thu Apr 17 2025 18:02:15 GMT-0500 (Central Daylight Time),69348.30000000447,O,z,1195,1195,,9,yes,1,1198.0,68150.30000000447,test1trial9.png,test1trial9.png,7111,PC,C,66068,,9
9,1,13.016999959945679,test,1,m,16983.00004005432,Thu Apr 17 2025 18:02:15 GMT-0500 (Central Daylight Time),70446.80000000447,O,m,1090,1090,,10,no,1,1095.6000000014901,69351.20000000298,test1trial10.png,test1trial10b.png,7111,PC,C,67269,,10
10,1,14.083000183105469,test,1,z,15916.999816894531,Thu Apr 17 2025 18:02:15 GMT-0500 (Central Daylight Time),71513.20000000298,O,z,1048,1048,,11,yes,1,1063.6000000014901,70449.60000000149,test1trial11.png,test1trial11.png,7111,PC,C,68367,,11
11,1,16.499000072479248,test,1,m,13500.999927520752,Thu Apr 17 2025 18:02:15 GMT-0500 (Central Daylight Time),73929.10000000149,O,m,2405,2405,,12,no,1,2412.60000000149,71516.5,test1trial12.png,test1trial12b.png,7111,PC,C,69434,,12
12,1,17.682000160217285,test,1,m,12317.999839782715,Thu Apr 17 2025 18:02:15 GMT-0500 (Central Daylight Time),75112.0,O,m,1165,1165,,13,no,1,1180.0,73932.0,test1trial13.png,test1trial13b.png,7111,PC,C,71850,,13
13,1,18.79800009727478,test,1,m,11201.99990272522,Thu Apr 17 2025 18:02:15 GMT-0500 (Central Daylight Time),76228.30000000447,O,m,1110,1110,,14,no,1,1113.5,75114.80000000447,test1trial14.png,test1trial14b.png,7111,PC,C,73033,,14
14,1,19.81500005722046,test,1,z,10184.999942779541,Thu Apr 17 2025 18:02:15 GMT-0500 (Central Daylight Time),77244.90000000596,O,z,1010,1010,,15,yes,1,1014.0,76230.90000000596,test1trial15.png,test1trial15.png,7111,PC,C,74149,,15
15,1,21.664000034332275,test,1,m,8335.999965667725,Thu Apr 17 2025 18:02:15 GMT-0500 (Central Daylight Time),79094.0,O,m,1842,1842,,16,no,1,1846.5,77247.5,test1trial16.png,test1trial16b.png,7111,PC,C,75165,,16
16,1,23.64900016784668,test,1,z,6350.99983215332,Thu Apr 17 2025 18:02:15 GMT-0500 (Central Daylight Time),81079.5,O,z,1968,1968,,17,yes,1,1982.5999999940395,79096.90000000596,test1trial17.png,test1trial17.png,7111,PC,C,77015,,17
17,1,24.730000019073486,test,1,m,5269.999980926514,Thu Apr 17 2025 18:02:15 GMT-0500 (Central Daylight Time),82159.80000000447,O,m,1063,1063,,18,no,1,1077.6000000014901,81082.20000000298,test1trial18.png,test1trial18b.png,7111,PC,C,79000,,18
18,1,28.57800006866455,test,1,m,1421.9999313354492,Thu Apr 17 2025 18:02:15 GMT-0500 (Central Daylight Time),86008.5,O,m,3830,3830,,19,no,1,3845.7999999970198,82162.70000000298,test1trial19.png,test1trial19b.png,7111,PC,C,80081,,19
18,1,30.011000156402588,test,0,z,-11.00015640258789,Thu Apr 17 2025 18:02:15 GMT-0500 (Central Daylight Time),87441.40000000596,O,None,1429,1429,,20,yes,1,1430.0,86011.40000000596,test1trial20.png,test1trial20.png,7111,PC,C,83929,,20
1,2,1.4830000400543213,test,1,m,28516.99995994568,Thu Apr 17 2025 18:02:15 GMT-0500 (Central Daylight Time),91956.70000000298,O,m,1477,,1477.0,1,no,1,5945.29999999702,86011.40000000596,test2trial1.png,test2trial1b.png,7111,PC,C,,88394.0,1
2,2,2.5490000247955322,test,1,m,27450.999975204468,Thu Apr 17 2025 18:02:15 GMT-0500 (Central Daylight Time),93023.20000000298,O,m,1057,,1057.0,2,no,1,7011.79999999702,86011.40000000596,test2trial2.png,test2trial2b.png,7111,PC,C,,89878.0,2
3,2,3.6989998817443848,test,1,z,26301.000118255615,Thu Apr 17 2025 18:02:15 GMT-0500 (Central Daylight Time),94172.70000000298,O,z,1135,,1135.0,3,yes,1,8161.29999999702,86011.40000000596,test2trial3.png,test2trial3.png,7111,PC,C,,90944.0,3
4,2,4.681999921798706,test,1,z,25318.000078201294,Thu Apr 17 2025 18:02:15 GMT-0500 (Central Daylight Time),95155.80000000447,O,z,970,,970.0,4,yes,1,9144.39999999851,86011.40000000596,test2trial4.png,test2trial4.png,7111,PC,C,,92093.0,4
5,2,5.9649999141693115,test,1,z,24035.00008583069,Thu Apr 17 2025 18:02:15 GMT-0500 (Central Daylight Time),96438.60000000149,O,z,1267,,1267.0,5,yes,1,10427.19999999553,86011.40000000596,test2trial5.png,test2trial5.png,7111,PC,C,,93076.0,5
6,2,7.063999891281128,test,1,z,22936.000108718872,Thu Apr 17 2025 18:02:15 GMT-0500 (Central Daylight Time),97538.40000000596,O,z,1096,,1096.0,6,yes,1,11527.0,86011.40000000596,test2trial6.png,test2trial6.png,7111,PC,C,,94359.0,6
7,2,8.429999828338623,test,1,m,21570.000171661377,Thu Apr 17 2025 18:02:15 GMT-0500 (Central Daylight Time),98904.40000000596,O,m,1356,,1356.0,7,no,1,12893.0,86011.40000000596,test2trial7.png,test2trial7b.png,7111,PC,C,,95459.0,7
8,2,9.662999868392944,test,1,m,20337.000131607056,Thu Apr 17 2025 18:02:15 GMT-0500 (Central Daylight Time),100137.60000000149,O,m,1214,,1214.0,8,no,1,14126.19999999553,86011.40000000596,test2trial8.png,test2trial8b.png,7111,PC,C,,96825.0,8
9,2,11.296000003814697,test,1,z,18703.999996185303,Thu Apr 17 2025 18:02:15 GMT-0500 (Central Daylight Time),101770.5,O,z,1621,,1621.0,9,yes,1,15759.09999999404,86011.40000000596,test2trial9.png,test2trial9.png,7111,PC,C,,98058.0,9
9,2,12.894999980926514,test,0,z,17105.000019073486,Thu Apr 17 2025 18:02:15 GMT-0500 (Central Daylight Time),103369.5,O,m,1580,,1580.0,10,yes,1,17358.09999999404,86011.40000000596,test2trial10.png,test2trial10.png,7111,PC,C,,99691.0,10
10,2,14.394999980926514,test,1,m,15605.000019073486,Thu Apr 17 2025 18:02:15 GMT-0500 (Central Daylight Time),104869.5,O,m,1485,,1485.0,11,no,1,18858.09999999404,86011.40000000596,test2trial11.png,test2trial11b.png,7111,PC,C,,101290.0,11
11,2,15.794999837875366,test,1,m,14205.000162124634,Thu Apr 17 2025 18:02:15 GMT-0500 (Central Daylight Time),106269.0,O,m,1393,,1393.0,12,no,1,20257.59999999404,86011.40000000596,test2trial12.png,test2trial12b.png,7111,PC,C,,102790.0,12
12,2,16.76099991798401,test,1,z,13239.000082015991,Thu Apr 17 2025 18:02:15 GMT-0500 (Central Daylight Time),107235.20000000298,O,z,954,,954.0,13,yes,1,21223.79999999702,86011.40000000596,test2trial13.png,test2trial13.png,7111,PC,C,,104189.0,13
13,2,17.859999895095825,test,1,m,12140.000104904175,Thu Apr 17 2025 18:02:15 GMT-0500 (Central Daylight Time),108334.5,O,m,1080,,1080.0,14,no,1,22323.09999999404,86011.40000000596,test2trial14.png,test2trial14b.png,7111,PC,C,,105159.0,14
14,2,18.942999839782715,test,1,m,11057.000160217285,Thu Apr 17 2025 18:02:15 GMT-0500 (Central Daylight Time),109417.5,O,m,1064,,1064.0,15,no,1,23406.09999999404,86011.40000000596,test2trial15.png,test2trial15b.png,7111,PC,C,,106255.0,15
14,2,20.043999910354614,test,0,m,9956.000089645386,Thu Apr 17 2025 18:02:15 GMT-0500 (Central Daylight Time),110517.60000000149,O,z,1093,,1093.0,16,no,1,24506.19999999553,86011.40000000596,test2trial16.png,test2trial16b.png,7111,PC,C,,107338.0,16
15,2,21.776000022888184,test,1,z,8223.999977111816,Thu Apr 17 2025 18:02:15 GMT-0500 (Central Daylight Time),112250.30000000447,O,z,1721,,1721.0,17,yes,1,26238.89999999851,86011.40000000596,test2trial17.png,test2trial17.png,7111,PC,C,,108438.0,17
16,2,22.942999839782715,test,1,z,7057.000160217285,Thu Apr 17 2025 18:02:15 GMT-0500 (Central Daylight Time),113416.70000000298,O,z,1157,,1157.0,18,yes,1,27405.29999999702,86011.40000000596,test2trial18.png,test2trial18.png,7111,PC,C,,110170.0,18
17,2,24.04199981689453,test,1,z,5958.000183105469,Thu Apr 17 2025 18:02:15 GMT-0500 (Central Daylight Time),114516.20000000298,O,z,1094,,1094.0,19,yes,1,28504.79999999702,86011.40000000596,test2trial19.png,test2trial19.png,7111,PC,C,,111337.0,19
18,2,24.991999864578247,test,1,z,5008.000135421753,Thu Apr 17 2025 18:02:15 GMT-0500 (Central Daylight Time),115465.90000000596,O,z,939,,939.0,20,yes,1,29454.5,86011.40000000596,test2trial20.png,test2trial20.png,7111,PC,C,,112436.0,20
19,2,28.073999881744385,test,1,z,1926.0001182556152,Thu Apr 17 2025 18:02:15 GMT-0500 (Central Daylight Time),118548.5,O,z,3077,,3077.0,21,yes,1,32537.09999999404,86011.40000000596,test2trial21.png,test2trial21.png,7111,PC,C,,113386.0,21
20,2,29.556999921798706,test,1,m,443.00007820129395,Thu Apr 17 2025 18:02:15 GMT-0500 (Central Daylight Time),120031.60000000149,O,m,1466,,1466.0,22,no,1,34020.19999999553,86011.40000000596,test2trial22.png,test2trial22b.png,7111,PC,C,,116469.0,22
20,2,30.006999969482422,test,0,m,-6.999969482421875,Thu Apr 17 2025 18:02:15 GMT-0500 (Central Daylight Time),120481.30000000447,O,None,446,,446.0,23,no,1,34469.89999999851,86011.40000000596,test2trial23.png,test2trial23b.png,7111,PC,C,,117952.0,23
