acc_sum,block,block_c,condition,correct,correct_response,datetime,endtime,flanker,jitter,project,response,response_test_buffer_response,response_test_target_response,response_time,response_time_test_buffer_response,response_time_test_target_response,row_sel,session_number,start_end,starttime,subject_id,target,task,task_vers,time_test_buffer,time_test_buffer_response,time_test_constants,time_test_flanker,time_test_jitter,time_test_logger,time_test_target,time_test_target_response,time_test_variables,trial
0,prac,1,con,0,z,Wed Mar 26 2025 10:16:26 GMT-0400 (Eastern Daylight Time),175385.5,banana,800,I,None,,,1815,,,1,2,4874.400000095367,170511.09999990463,9005,banana,NF,C,,,,,,,,,,1
1,prac,1,con,1,m,Wed Mar 26 2025 10:16:26 GMT-0400 (Eastern Daylight Time),178102.09999990463,bronze,800,I,m,,,600,,,9,2,2706.699999809265,175395.40000009537,9005,bronze,NF,C,,,,,,,,,,2
2,prac,1,inc,1,z,Wed Mar 26 2025 10:16:26 GMT-0400 (Eastern Daylight Time),181102.09999990463,cobalt,1100,I,z,,,592,,,4,2,2990.5999999046326,178111.5,9005,raisin,NF,C,,,,,,,,,,3
3,prac,1,inc,1,m,Wed Mar 26 2025 10:16:26 GMT-0400 (Eastern Daylight Time),184085.2000002861,raisin,1100,I,m,,,569,,,12,2,2970.2000002861023,181115.0,9005,cobalt,NF,C,,,,,,,,,,4
4,prac,1,con,1,m,Wed Mar 26 2025 10:16:26 GMT-0400 (Eastern Daylight Time),186668.5,gold,800,I,m,,,476,,,13,2,2574.0,184094.5,9005,gold,NF,C,,,,,,,,,,5
5,prac,1,con,1,z,Wed Mar 26 2025 10:16:26 GMT-0400 (Eastern Daylight Time),189335.2000002861,lime,800,I,z,,,549,,,5,2,2655.6000003814697,186679.59999990463,9005,lime,NF,C,,,,,,,,,,6
5,prac,1,inc,0,z,Wed Mar 26 2025 10:16:26 GMT-0400 (Eastern Daylight Time),192218.59999990463,lead,1100,I,m,,,479,,,8,2,2872.699999809265,189345.90000009537,9005,plum,NF,C,,,,,,,,,,7
6,prac,1,inc,1,m,Wed Mar 26 2025 10:16:26 GMT-0400 (Eastern Daylight Time),195035.2000002861,pear,900,I,m,,,612,,,14,2,2806.2000002861023,192229.0,9005,iron,NF,C,,,,,,,,,,8
7,prac,1,con,1,m,Wed Mar 26 2025 10:16:26 GMT-0400 (Eastern Daylight Time),197885.40000009537,zinc,1000,I,m,,,543,,,15,2,2839.5,195045.90000009537,9005,zinc,NF,C,,,,,,,,,,9
8,prac,1,con,1,z,Wed Mar 26 2025 10:16:26 GMT-0400 (Eastern Daylight Time),200718.59999990463,kiwi,1000,I,z,,,525,,,7,2,2821.199999809265,197897.40000009537,9005,kiwi,NF,C,,,,,,,,,,10
9,prac,1,con,1,z,Wed Mar 26 2025 10:16:26 GMT-0400 (Eastern Daylight Time),203485.2000002861,orange,1000,I,z,,,460,,,3,2,2756.1000003814697,200729.09999990463,9005,orange,NF,C,,,,,,,,,,11
10,prac,1,inc,1,z,Wed Mar 26 2025 10:16:26 GMT-0400 (Eastern Daylight Time),206301.90000009537,iron,900,I,z,,,608,,,6,2,2807.0,203494.90000009537,9005,pear,NF,C,,,,,,,,,,12
11,prac,1,inc,1,m,Wed Mar 26 2025 10:16:26 GMT-0400 (Eastern Daylight Time),209285.09999990463,plum,1100,I,m,,,568,,,16,2,2971.8999996185303,206313.2000002861,9005,lead,NF,C,,,,,,,,,,13
12,prac,1,inc,1,m,Wed Mar 26 2025 10:16:26 GMT-0400 (Eastern Daylight Time),211985.09999990463,cherry,900,I,m,,,489,,,10,2,2688.699999809265,209296.40000009537,9005,copper,NF,C,,,,,,,,,,14
12,prac,1,inc,0,z,Wed Mar 26 2025 10:16:26 GMT-0400 (Eastern Daylight Time),214668.5,copper,900,I,m,,,477,,,2,2,2674.5999999046326,211993.90000009537,9005,cherry,NF,C,,,,,,,,,,15
13,prac,1,con,1,m,Wed Mar 26 2025 10:16:26 GMT-0400 (Eastern Daylight Time),217451.90000009537,silver,1000,I,m,,,478,,,11,2,2774.4000000953674,214677.5,9005,silver,NF,C,,,,,,,,,,16
1,test,1,con,1,m,Wed Mar 26 2025 10:16:26 GMT-0400 (Eastern Daylight Time),278304.30000019073,lead,800,I,m,m,None,500,285.0,215.0,121,2,1827.8000001907349,276476.5,9005,lead,NF,C,272865,272865,271322,272132,271323,273150,272649,272649,273150,1
2,test,1,inc,1,m,Wed Mar 26 2025 10:16:26 GMT-0400 (Eastern Daylight Time),280435.30000019073,plum,1100,I,m,m,None,488,289.0,199.0,128,2,2125.0,278310.30000019073,9005,lead,NF,C,274981,274982,273156,274265,273157,275281,274782,274782,275281,2
2,test,1,inc,0,m,Wed Mar 26 2025 10:16:26 GMT-0400 (Eastern Daylight Time),282285.0,banana,800,I,z,z,None,511,312.0,199.0,77,2,1839.5,280445.5,9005,copper,NF,C,276815,276815,275292,276098,275292,277131,276615,276615,277131,3
3,test,1,inc,1,m,Wed Mar 26 2025 10:16:26 GMT-0400 (Eastern Daylight Time),284351.7000002861,kiwi,1000,I,m,m,None,525,326.0,199.0,127,2,2058.1000003814697,282293.59999990463,9005,lead,NF,C,278865,278865,277140,278148,277140,279198,278665,278665,279198,4
4,test,1,inc,1,m,Wed Mar 26 2025 10:16:26 GMT-0400 (Eastern Daylight Time),286451.80000019073,orange,1000,I,m,m,None,554,355.0,199.0,95,2,2090.9000000953674,284360.90000009537,9005,cobalt,NF,C,280932,280932,279207,280215,279207,281298,280732,280732,281298,5
5,test,1,inc,1,z,Wed Mar 26 2025 10:16:26 GMT-0400 (Eastern Daylight Time),288785.0,lead,1100,I,z,z,None,690,491.0,199.0,64,2,2324.2999997138977,286460.7000002861,9005,plum,NF,C,283132,283132,281307,282415,281307,283631,282932,282932,283631,6
6,test,1,con,1,z,Wed Mar 26 2025 10:16:26 GMT-0400 (Eastern Daylight Time),291018.2000002861,pear,1100,I,z,z,None,597,398.0,199.0,44,2,2221.9000000953674,288796.30000019073,9005,pear,NF,C,285465,285465,283642,284748,283643,285864,285265,285265,285864,7
7,test,1,con,1,m,Wed Mar 26 2025 10:16:26 GMT-0400 (Eastern Daylight Time),293084.90000009537,lead,1000,I,m,m,None,529,329.0,200.0,123,2,2058.0,291026.90000009537,9005,lead,NF,C,287598,287598,285873,286882,285873,287931,287398,287398,287931,8
8,test,1,inc,1,m,Wed Mar 26 2025 10:16:26 GMT-0400 (Eastern Daylight Time),295285.0,raisin,1100,I,m,m,None,553,354.0,199.0,80,2,2190.699999809265,293094.30000019073,9005,copper,NF,C,289765,289765,287940,289048,287941,290131,289565,289565,290131,9
9,test,1,con,1,z,Wed Mar 26 2025 10:16:26 GMT-0400 (Eastern Daylight Time),297434.90000009537,lime,1000,I,z,z,None,613,414.0,199.0,35,2,2140.800000190735,295294.09999990463,9005,lime,NF,C,291865,291865,290140,291148,290141,292281,291665,291665,292281,10
10,test,1,inc,1,m,Wed Mar 26 2025 10:16:26 GMT-0400 (Eastern Daylight Time),299418.2000002861,pear,900,I,m,m,None,548,349.0,199.0,126,2,1969.9000000953674,297448.30000019073,9005,lead,NF,C,293914,293914,292294,293199,292295,294264,293715,293715,294264,11
11,test,1,con,1,z,Wed Mar 26 2025 10:16:26 GMT-0400 (Eastern Daylight Time),301618.30000019073,cherry,900,I,z,z,None,755,540.0,215.0,10,2,2188.800000190735,299429.5,9005,cherry,NF,C,295915,295915,294276,295182,294276,296464,295699,295699,296464,12
12,test,1,con,1,m,Wed Mar 26 2025 10:16:26 GMT-0400 (Eastern Daylight Time),303401.59999990463,iron,800,I,m,m,None,449,249.0,200.0,105,2,1774.5999999046326,301627.0,9005,iron,NF,C,297998,297998,296473,297282,296474,298248,297798,297798,298248,13
13,test,1,inc,1,z,Wed Mar 26 2025 10:16:26 GMT-0400 (Eastern Daylight Time),305551.59999990463,zinc,1000,I,z,z,None,608,409.0,199.0,47,2,2141.2999997138977,303410.30000019073,9005,pear,NF,C,299982,299982,298256,299265,298257,300398,299782,299782,300398,14
14,test,1,con,1,z,Wed Mar 26 2025 10:16:26 GMT-0400 (Eastern Daylight Time),307634.90000009537,kiwi,1000,I,z,z,None,538,339.0,199.0,51,2,2073.0,305561.90000009537,9005,kiwi,NF,C,302132,302132,300408,301415,300408,302481,301932,301932,302481,15
15,test,1,con,1,m,Wed Mar 26 2025 10:16:26 GMT-0400 (Eastern Daylight Time),309885.09999990463,bronze,1100,I,m,m,None,611,412.0,199.0,68,2,2239.5,307645.59999990463,9005,bronze,NF,C,304315,304315,302492,303598,302492,304731,304115,304115,304731,16
16,test,1,con,1,z,Wed Mar 26 2025 10:16:26 GMT-0400 (Eastern Daylight Time),312035.0,orange,1000,I,z,z,None,604,405.0,199.0,19,2,2141.0,309894.0,9005,orange,NF,C,306465,306465,304740,305748,304741,306881,306265,306265,306881,17
17,test,1,inc,1,m,Wed Mar 26 2025 10:16:26 GMT-0400 (Eastern Daylight Time),313868.0,lime,800,I,m,m,None,478,279.0,199.0,101,2,1818.4000000953674,312049.59999990463,9005,gold,NF,C,308431,308431,306896,307715,306897,308714,308231,308231,308714,18
18,test,1,inc,1,z,Wed Mar 26 2025 10:16:26 GMT-0400 (Eastern Daylight Time),316085.0,zinc,1000,I,z,z,None,671,471.0,200.0,63,2,2203.4000000953674,313881.59999990463,9005,plum,NF,C,310448,310448,308728,309732,308729,310931,310248,310248,310931,19
19,test,1,inc,1,z,Wed Mar 26 2025 10:16:26 GMT-0400 (Eastern Daylight Time),318001.5,bronze,800,I,z,z,None,573,374.0,199.0,5,2,1908.2999997138977,316093.2000002861,9005,banana,NF,C,312465,312465,310939,311748,310940,312848,312265,312265,312848,20
20,test,1,con,1,z,Wed Mar 26 2025 10:16:26 GMT-0400 (Eastern Daylight Time),319918.30000019073,banana,900,I,z,z,None,476,277.0,199.0,2,2,1907.2000002861023,318011.09999990463,9005,banana,NF,C,314482,314482,312857,313765,312858,314764,314282,314282,314764,21
21,test,1,con,1,m,Wed Mar 26 2025 10:16:26 GMT-0400 (Eastern Daylight Time),322068.40000009537,iron,1100,I,m,m,None,504,305.0,199.0,108,2,2138.800000190735,319929.59999990463,9005,iron,NF,C,316598,316598,314776,315882,314776,316914,316398,316398,316914,22
22,test,1,con,1,z,Wed Mar 26 2025 10:16:26 GMT-0400 (Eastern Daylight Time),324385.0,cherry,1100,I,z,z,None,674,475.0,199.0,12,2,2307.5999999046326,322077.40000009537,9005,cherry,NF,C,318748,318748,316923,318032,316924,319231,318549,318549,319231,23
23,test,1,inc,1,z,Wed Mar 26 2025 10:16:26 GMT-0400 (Eastern Daylight Time),326318.2000002861,copper,900,I,z,z,None,493,294.0,199.0,14,2,1923.7000002861023,324394.5,9005,cherry,NF,C,320865,320865,319241,320148,319241,321164,320665,320665,321164,24
24,test,1,inc,1,z,Wed Mar 26 2025 10:16:26 GMT-0400 (Eastern Daylight Time),328385.0,copper,900,I,z,z,None,624,425.0,199.0,30,2,2057.0,326328.0,9005,raisin,NF,C,322798,322798,321174,322081,321174,323231,322598,322599,323231,25
25,test,1,inc,1,m,Wed Mar 26 2025 10:16:26 GMT-0400 (Eastern Daylight Time),330201.59999990463,banana,800,I,m,m,None,482,283.0,199.0,85,2,1806.5,328395.09999990463,9005,silver,NF,C,324764,324764,323241,324049,323242,325048,324565,324565,325048,26
26,test,1,inc,1,m,Wed Mar 26 2025 10:16:26 GMT-0400 (Eastern Daylight Time),332034.90000009537,lime,800,I,m,m,None,488,289.0,199.0,109,2,1822.6999998092651,330212.2000002861,9005,iron,NF,C,326581,326582,325058,325865,325059,326881,326382,326382,326881,27
27,test,1,inc,1,z,Wed Mar 26 2025 10:16:26 GMT-0400 (Eastern Daylight Time),334468.40000009537,cobalt,1100,I,z,z,None,787,588.0,199.0,16,2,2424.9000000953674,332043.5,9005,cherry,NF,C,328715,328715,326890,327998,326890,329315,328515,328515,329314,28
28,test,1,inc,1,m,Wed Mar 26 2025 10:16:26 GMT-0400 (Eastern Daylight Time),336501.5,cherry,900,I,m,m,None,585,370.0,215.0,94,2,2023.7999997138977,334477.7000002861,9005,cobalt,NF,C,330965,330965,329324,330232,329324,331348,330748,330749,331348,29
29,test,1,inc,1,z,Wed Mar 26 2025 10:16:26 GMT-0400 (Eastern Daylight Time),338618.09999990463,silver,1000,I,z,z,None,580,381.0,199.0,23,2,2107.699999809265,336510.40000009537,9005,orange,NF,C,333081,333081,331356,332365,331357,333464,332882,332882,333464,30
30,test,1,inc,1,m,Wed Mar 26 2025 10:16:26 GMT-0400 (Eastern Daylight Time),340601.7000002861,pear,900,I,m,m,None,532,333.0,199.0,118,2,1974.8000001907349,338626.90000009537,9005,zinc,NF,C,335098,335098,333473,334382,333473,335448,334898,334899,335448,31
31,test,1,con,1,m,Wed Mar 26 2025 10:16:26 GMT-0400 (Eastern Daylight Time),342751.80000019073,cobalt,900,I,m,m,None,709,510.0,199.0,90,2,2141.0,340610.80000019073,9005,cobalt,NF,C,337081,337081,335457,336364,335457,337598,336882,336882,337598,32
32,test,1,inc,1,z,Wed Mar 26 2025 10:16:26 GMT-0400 (Eastern Daylight Time),344768.30000019073,iron,900,I,z,z,None,575,376.0,199.0,46,2,2007.4000000953674,342760.90000009537,9005,pear,NF,C,339231,339231,337607,338515,337607,339614,339032,339032,339614,33
33,test,1,inc,1,m,Wed Mar 26 2025 10:16:26 GMT-0400 (Eastern Daylight Time),346985.30000019073,plum,1100,I,m,m,None,582,383.0,199.0,104,2,2207.4000000953674,344777.90000009537,9005,gold,NF,C,341448,341448,339624,340732,339625,341831,341248,341248,341831,34
34,test,1,con,1,z,Wed Mar 26 2025 10:16:26 GMT-0400 (Eastern Daylight Time),349068.2000002861,pear,1000,I,z,z,None,545,346.0,199.0,43,2,2075.5,346992.7000002861,9005,pear,NF,C,343565,343565,341839,342848,341839,343914,343365,343365,343914,35
35,test,1,con,1,z,Wed Mar 26 2025 10:16:26 GMT-0400 (Eastern Daylight Time),351034.7000002861,lime,800,I,z,z,None,630,431.0,199.0,33,2,1955.8000001907349,349078.90000009537,9005,lime,NF,C,345448,345448,343925,344732,343925,345881,345248,345248,345881,36
36,test,1,inc,1,z,Wed Mar 26 2025 10:16:26 GMT-0400 (Eastern Daylight Time),353168.2000002861,silver,1000,I,z,z,None,590,391.0,199.0,31,2,2124.0,351044.2000002861,9005,raisin,NF,C,347615,347615,345890,346898,345891,348014,347415,347415,348014,37
37,test,1,inc,1,z,Wed Mar 26 2025 10:16:26 GMT-0400 (Eastern Daylight Time),355551.40000009537,cobalt,1100,I,z,z,None,741,542.0,199.0,24,2,2374.199999809265,353177.2000002861,9005,orange,NF,C,349848,349848,348023,349131,348024,350397,349648,349648,350397,38
38,test,1,inc,1,z,Wed Mar 26 2025 10:16:26 GMT-0400 (Eastern Daylight Time),357784.90000009537,lead,1100,I,z,z,None,583,384.0,199.0,40,2,2226.0999999046326,355558.80000019073,9005,lime,NF,C,352231,352231,350405,351515,350405,352631,352032,352032,352631,39
39,test,1,inc,1,m,Wed Mar 26 2025 10:16:26 GMT-0400 (Eastern Daylight Time),359851.5,kiwi,1000,I,m,m,None,530,330.0,200.0,103,2,2056.699999809265,357794.80000019073,9005,gold,NF,C,354365,354365,352641,353648,352641,354698,354164,354164,354697,40
40,test,1,con,1,z,Wed Mar 26 2025 10:16:26 GMT-0400 (Eastern Daylight Time),362001.59999990463,raisin,1000,I,z,z,None,607,408.0,199.0,27,2,2141.699999809265,359859.90000009537,9005,raisin,NF,C,356431,356431,354706,355715,354706,356848,356232,356232,356848,41
41,test,1,con,1,z,Wed Mar 26 2025 10:16:26 GMT-0400 (Eastern Daylight Time),364268.2000002861,banana,1100,I,z,z,None,628,429.0,199.0,4,2,2258.1000003814697,362010.09999990463,9005,banana,NF,C,358681,358681,356856,357965,356857,359114,358482,358482,359114,42
42,test,1,inc,1,z,Wed Mar 26 2025 10:16:26 GMT-0400 (Eastern Daylight Time),366301.5,gold,800,I,z,z,None,694,495.0,199.0,53,2,2023.9000000953674,364277.59999990463,9005,kiwi,NF,C,360648,360648,359124,359932,359124,361148,360448,360448,361147,43
43,test,1,con,1,m,Wed Mar 26 2025 10:16:26 GMT-0400 (Eastern Daylight Time),368351.40000009537,lead,900,I,m,m,None,609,410.0,199.0,122,2,2040.3000001907349,366311.09999990463,9005,lead,NF,C,362781,362781,361157,362065,361158,363197,362582,362582,363197,44
44,test,1,inc,1,m,Wed Mar 26 2025 10:16:26 GMT-0400 (Eastern Daylight Time),370534.80000019073,orange,1000,I,m,m,None,634,435.0,199.0,71,2,2172.5999999046326,368362.2000002861,9005,bronze,NF,C,364931,364931,363208,364215,363209,365381,364732,364732,365381,45
45,test,1,con,1,m,Wed Mar 26 2025 10:16:26 GMT-0400 (Eastern Daylight Time),372851.5,copper,1100,I,m,m,None,671,472.0,199.0,76,2,2307.4000000953674,370544.09999990463,9005,copper,NF,C,367215,367215,365390,366498,365391,367698,367015,367015,367697,46
46,test,1,con,1,m,Wed Mar 26 2025 10:16:26 GMT-0400 (Eastern Daylight Time),374735.0,silver,800,I,m,m,None,543,344.0,199.0,81,2,1873.1999998092651,372861.80000019073,9005,silver,NF,C,369231,369231,367708,368515,367708,369581,369032,369032,369581,47
47,test,1,inc,1,z,Wed Mar 26 2025 10:16:26 GMT-0400 (Eastern Daylight Time),377084.90000009537,lead,1100,I,z,z,None,695,496.0,199.0,48,2,2335.0999999046326,374749.80000019073,9005,pear,NF,C,371431,371431,369596,370715,369597,371931,371232,371232,371931,48
47,test,1,con,0,z,Wed Mar 26 2025 10:16:26 GMT-0400 (Eastern Daylight Time),380718.2000002861,lime,1100,I,None,None,None,1799,1799.0,199.0,36,2,3625.1000003814697,377093.09999990463,9005,lime,NF,C,373765,373765,371939,373048,371940,375564,373565,373565,375564,49
48,test,1,con,1,m,Wed Mar 26 2025 10:16:26 GMT-0400 (Eastern Daylight Time),382951.5,zinc,1100,I,m,m,None,584,385.0,199.0,116,2,2224.0999999046326,380727.40000009537,9005,zinc,NF,C,377398,377398,375573,376681,375574,377798,377198,377198,377797,50
49,test,1,inc,1,m,Wed Mar 26 2025 10:16:26 GMT-0400 (Eastern Daylight Time),385118.2000002861,plum,1100,I,m,m,None,527,328.0,199.0,120,2,2157.9000000953674,382960.30000019073,9005,zinc,NF,C,379631,379631,377806,378915,377807,379964,379432,379432,379964,51
50,test,1,inc,1,z,Wed Mar 26 2025 10:16:26 GMT-0400 (Eastern Daylight Time),387318.30000019073,zinc,1000,I,z,z,None,653,454.0,199.0,55,2,2191.0,385127.30000019073,9005,kiwi,NF,C,381697,381697,379973,380982,379974,382164,381498,381498,382164,52
50,test,1,con,0,z,Wed Mar 26 2025 10:16:26 GMT-0400 (Eastern Daylight Time),389501.5,orange,800,I,m,m,None,845,645.0,200.0,17,2,2174.5,387327.0,9005,orange,NF,C,383698,383698,382173,382982,382174,384348,383498,383498,384348,53
51,test,1,con,1,z,Wed Mar 26 2025 10:16:26 GMT-0400 (Eastern Daylight Time),391884.90000009537,banana,1000,I,z,z,None,844,645.0,199.0,3,2,2374.300000190735,389510.59999990463,9005,banana,NF,C,386081,386082,384357,385365,384357,386731,385882,385882,386731,54
52,test,1,con,1,m,Wed Mar 26 2025 10:16:26 GMT-0400 (Eastern Daylight Time),394185.40000009537,lead,1100,I,m,m,None,665,466.0,199.0,124,2,2291.300000190735,391894.09999990463,9005,lead,NF,C,388565,388565,386740,387848,386741,389031,388365,388365,389031,55
53,test,1,con,1,m,Wed Mar 26 2025 10:16:26 GMT-0400 (Eastern Daylight Time),396201.09999990463,copper,800,I,m,m,None,680,481.0,199.0,73,2,2007.3999996185303,394193.7000002861,9005,copper,NF,C,390565,390565,389040,389848,389040,391047,390365,390365,391047,56
54,test,1,con,1,m,Wed Mar 26 2025 10:16:26 GMT-0400 (Eastern Daylight Time),398334.90000009537,cobalt,1000,I,m,m,None,592,393.0,199.0,91,2,2125.5999999046326,396209.30000019073,9005,cobalt,NF,C,392781,392781,391055,392065,391056,393181,392582,392582,393181,57
55,test,1,con,1,m,Wed Mar 26 2025 10:16:26 GMT-0400 (Eastern Daylight Time),400234.90000009537,cobalt,800,I,m,m,None,562,363.0,199.0,89,2,1889.8000001907349,398345.09999990463,9005,cobalt,NF,C,394715,394715,393191,393997,393192,395081,394515,394515,395081,58
56,test,1,con,1,z,Wed Mar 26 2025 10:16:26 GMT-0400 (Eastern Daylight Time),402251.5,pear,800,I,z,z,None,679,480.0,199.0,41,2,2008.5999999046326,400242.90000009537,9005,pear,NF,C,396615,396615,395089,395897,395090,397098,396415,396415,397097,59
57,test,1,inc,1,m,Wed Mar 26 2025 10:16:26 GMT-0400 (Eastern Daylight Time),404151.5,lime,800,I,m,m,None,550,351.0,199.0,117,2,1891.5999999046326,402259.90000009537,9005,zinc,NF,C,398631,398631,397106,397915,397106,398998,398432,398432,398997,60
58,test,1,con,1,z,Wed Mar 26 2025 10:16:26 GMT-0400 (Eastern Daylight Time),406451.59999990463,plum,1000,I,z,z,None,755,556.0,199.0,59,2,2291.199999809265,404160.40000009537,9005,plum,NF,C,400731,400731,399006,400015,399007,401298,400532,400532,401298,61
59,test,1,con,1,m,Wed Mar 26 2025 10:16:26 GMT-0400 (Eastern Daylight Time),408634.80000019073,gold,1100,I,m,m,None,546,347.0,199.0,100,2,2173.2000002861023,406461.59999990463,9005,gold,NF,C,403131,403131,401308,402415,401308,403481,402932,402932,403481,62
60,test,1,inc,1,z,Wed Mar 26 2025 10:16:26 GMT-0400 (Eastern Daylight Time),410818.2000002861,zinc,1000,I,z,z,None,638,439.0,199.0,39,2,2175.1000003814697,408643.09999990463,9005,lime,NF,C,405215,405215,403489,404498,403490,405664,405015,405015,405664,63
61,test,1,inc,1,z,Wed Mar 26 2025 10:16:26 GMT-0400 (Eastern Daylight Time),412951.40000009537,bronze,800,I,z,z,None,783,584.0,199.0,29,2,2125.0,410826.40000009537,9005,raisin,NF,C,407198,407198,405672,406481,405673,407798,406998,406998,407797,64
62,test,1,con,1,z,Wed Mar 26 2025 10:16:26 GMT-0400 (Eastern Daylight Time),414901.30000019073,raisin,900,I,z,z,None,502,303.0,199.0,26,2,1940.0999999046326,412961.2000002861,9005,raisin,NF,C,409431,409431,407807,408715,407808,409747,409231,409232,409747,65
63,test,1,con,1,z,Wed Mar 26 2025 10:16:26 GMT-0400 (Eastern Daylight Time),416901.5,plum,900,I,z,z,None,553,354.0,199.0,58,2,1985.6999998092651,414915.80000019073,9005,plum,NF,C,411381,411381,409762,410665,409763,411748,411182,411182,411747,66
64,test,1,inc,1,z,Wed Mar 26 2025 10:16:26 GMT-0400 (Eastern Daylight Time),418901.30000019073,iron,900,I,z,z,None,552,353.0,199.0,38,2,1990.8000001907349,416910.5,9005,lime,NF,C,413381,413381,411757,412665,411757,413748,413182,413182,413747,67
65,test,1,con,1,z,Wed Mar 26 2025 10:16:26 GMT-0400 (Eastern Daylight Time),421068.30000019073,raisin,1100,I,z,z,None,529,329.0,200.0,28,2,2152.7000002861023,418915.59999990463,9005,raisin,NF,C,415581,415581,413762,414865,413763,415914,415381,415381,415914,68
65,test,1,inc,0,m,Wed Mar 26 2025 10:16:26 GMT-0400 (Eastern Daylight Time),423201.5,kiwi,1000,I,z,z,None,589,390.0,199.0,111,2,2123.7999997138977,421077.7000002861,9005,iron,NF,C,417648,417648,415924,416932,415924,418048,417448,417448,418047,69
66,test,1,con,1,z,Wed Mar 26 2025 10:16:26 GMT-0400 (Eastern Daylight Time),425284.90000009537,kiwi,900,I,z,z,None,636,437.0,199.0,50,2,2073.0999999046326,423211.80000019073,9005,kiwi,NF,C,419681,419681,418058,418965,418058,420131,419482,419482,420131,70
67,test,1,con,1,z,Wed Mar 26 2025 10:16:26 GMT-0400 (Eastern Daylight Time),427467.80000019073,cherry,1000,I,z,z,None,646,447.0,199.0,11,2,2172.5999999046326,425295.2000002861,9005,cherry,NF,C,421864,421864,420141,421148,420142,422314,421664,421665,422314,71
68,test,1,con,1,z,Wed Mar 26 2025 10:16:26 GMT-0400 (Eastern Daylight Time),429501.40000009537,banana,800,I,z,z,None,693,494.0,199.0,1,2,2019.1999998092651,427482.2000002861,9005,banana,NF,C,423848,423848,422328,423132,422329,424348,423648,423648,424347,72
69,test,1,con,1,m,Wed Mar 26 2025 10:16:26 GMT-0400 (Eastern Daylight Time),431484.7000002861,zinc,900,I,m,m,None,545,346.0,199.0,114,2,1974.0,429510.7000002861,9005,zinc,NF,C,425981,425981,424357,425265,424357,426331,425782,425782,426331,73
70,test,1,con,1,m,Wed Mar 26 2025 10:16:26 GMT-0400 (Eastern Daylight Time),433601.40000009537,silver,1100,I,m,m,None,472,273.0,199.0,84,2,2107.4000000953674,431494.0,9005,silver,NF,C,428165,428165,426340,427448,426341,428448,427965,427965,428447,74
71,test,1,con,1,m,Wed Mar 26 2025 10:16:26 GMT-0400 (Eastern Daylight Time),435668.2000002861,zinc,1000,I,m,m,None,521,321.0,200.0,115,2,2057.9000000953674,433610.30000019073,9005,zinc,NF,C,430181,430181,428456,429465,428457,430514,429981,429981,430514,75
72,test,1,inc,1,z,Wed Mar 26 2025 10:16:26 GMT-0400 (Eastern Daylight Time),437884.80000019073,cobalt,1100,I,z,z,None,578,379.0,199.0,32,2,2206.800000190735,435678.0,9005,raisin,NF,C,432348,432348,430524,431631,430524,432731,432148,432148,432731,76
73,test,1,inc,1,m,Wed Mar 26 2025 10:16:26 GMT-0400 (Eastern Daylight Time),439901.30000019073,banana,800,I,m,m,None,676,477.0,199.0,69,2,2008.0,437893.30000019073,9005,bronze,NF,C,434265,434265,432739,433548,432740,434747,434065,434065,434747,77
74,test,1,inc,1,z,Wed Mar 26 2025 10:16:26 GMT-0400 (Eastern Daylight Time),441934.5,gold,800,I,z,z,None,692,493.0,199.0,37,2,2024.9000000953674,439909.59999990463,9005,lime,NF,C,436281,436281,434756,435565,434756,436781,436082,436082,436781,78
75,test,1,con,1,m,Wed Mar 26 2025 10:16:26 GMT-0400 (Eastern Daylight Time),443851.40000009537,zinc,800,I,m,m,None,578,379.0,199.0,113,2,1911.5999999046326,441939.80000019073,9005,zinc,NF,C,438315,438315,436786,437598,436786,438697,438115,438115,438697,79
76,test,1,inc,1,m,Wed Mar 26 2025 10:16:26 GMT-0400 (Eastern Daylight Time),446301.30000019073,orange,1000,I,m,m,None,911,711.0,200.0,79,2,2440.5999999046326,443860.7000002861,9005,copper,NF,C,440431,440431,438707,439715,438707,441147,440231,440231,441147,80
77,test,1,con,1,m,Wed Mar 26 2025 10:16:26 GMT-0400 (Eastern Daylight Time),448268.09999990463,gold,1000,I,m,m,None,430,230.0,200.0,99,2,1958.5,446309.59999990463,9005,gold,NF,C,442881,442881,441156,442165,441156,443114,442681,442681,443114,81
78,test,1,con,1,z,Wed Mar 26 2025 10:16:26 GMT-0400 (Eastern Daylight Time),450434.90000009537,plum,1100,I,z,z,None,522,323.0,199.0,60,2,2157.800000190735,448277.09999990463,9005,plum,NF,C,444948,444948,443123,444231,443124,445281,444748,444748,445281,82
79,test,1,inc,1,m,Wed Mar 26 2025 10:16:26 GMT-0400 (Eastern Daylight Time),452585.5,orange,1000,I,m,m,None,615,416.0,199.0,87,2,2141.699999809265,450443.80000019073,9005,silver,NF,C,447015,447015,445290,446298,445290,447432,446815,446815,447431,83
80,test,1,inc,1,z,Wed Mar 26 2025 10:16:26 GMT-0400 (Eastern Daylight Time),454684.80000019073,iron,900,I,z,z,None,660,461.0,199.0,54,2,2090.0999999046326,452594.7000002861,9005,kiwi,NF,C,449065,449065,447441,448348,447441,449531,448865,448865,449531,84
81,test,1,con,1,m,Wed Mar 26 2025 10:16:26 GMT-0400 (Eastern Daylight Time),456701.30000019073,silver,900,I,m,m,None,576,377.0,199.0,82,2,2007.2000002861023,454694.09999990463,9005,silver,NF,C,451164,451165,449540,450448,449541,451547,450965,450965,451547,85
82,test,1,inc,1,z,Wed Mar 26 2025 10:16:26 GMT-0400 (Eastern Daylight Time),458867.90000009537,silver,1000,I,z,z,None,621,422.0,199.0,15,2,2157.699999809265,456710.2000002861,9005,cherry,NF,C,453281,453281,451556,452565,451557,453714,453082,453082,453714,86
83,test,1,con,1,m,Wed Mar 26 2025 10:16:26 GMT-0400 (Eastern Daylight Time),461184.80000019073,bronze,800,I,m,m,None,973,774.0,199.0,65,2,2306.800000190735,458878.0,9005,bronze,NF,C,455248,455248,453724,454532,453725,456031,455048,455048,456031,87
84,test,1,inc,1,m,Wed Mar 26 2025 10:16:26 GMT-0400 (Eastern Daylight Time),463234.80000019073,cherry,900,I,m,m,None,604,405.0,199.0,86,2,2040.5999999046326,461194.2000002861,9005,silver,NF,C,457665,457665,456040,456948,456041,458081,457465,457465,458081,88
85,test,1,con,1,z,Wed Mar 26 2025 10:16:26 GMT-0400 (Eastern Daylight Time),465501.09999990463,kiwi,1100,I,z,z,None,626,427.0,199.0,52,2,2258.2999997138977,463242.80000019073,9005,kiwi,NF,C,459915,459915,458089,459198,458089,460347,459715,459715,460347,89
86,test,1,inc,1,z,Wed Mar 26 2025 10:16:26 GMT-0400 (Eastern Daylight Time),467401.0,gold,800,I,z,z,None,564,365.0,199.0,61,2,1894.5999999046326,465506.40000009537,9005,plum,NF,C,461881,461881,460352,461165,460353,462247,461681,461682,462247,90
87,test,1,inc,1,z,Wed Mar 26 2025 10:16:26 GMT-0400 (Eastern Daylight Time),469651.5,cobalt,1100,I,z,z,None,605,406.0,199.0,8,2,2242.5999999046326,467408.90000009537,9005,banana,NF,C,464081,464081,462255,463365,462255,464498,463881,463882,464497,91
88,test,1,con,1,m,Wed Mar 26 2025 10:16:26 GMT-0400 (Eastern Daylight Time),471785.2000002861,bronze,1000,I,m,m,None,599,400.0,199.0,67,2,2124.4000000953674,469660.80000019073,9005,bronze,NF,C,466231,466231,464507,465515,464507,466631,466032,466032,466631,92
89,test,1,inc,1,m,Wed Mar 26 2025 10:16:26 GMT-0400 (Eastern Daylight Time),474185.09999990463,plum,1100,I,m,m,None,767,567.0,200.0,112,2,2389.7999997138977,471795.30000019073,9005,iron,NF,C,468464,468464,466641,467748,466642,469031,468264,468264,469031,93
90,test,1,con,1,z,Wed Mar 26 2025 10:16:26 GMT-0400 (Eastern Daylight Time),476368.09999990463,orange,900,I,z,z,None,740,541.0,199.0,18,2,2171.199999809265,474196.90000009537,9005,orange,NF,C,470665,470665,469043,469948,469043,471214,470465,470465,471214,94
91,test,1,inc,1,z,Wed Mar 26 2025 10:16:26 GMT-0400 (Eastern Daylight Time),478368.0,bronze,800,I,z,z,None,657,458.0,199.0,21,2,1990.2999997138977,476377.7000002861,9005,orange,NF,C,472748,472748,471224,472032,471224,473214,472548,472548,473214,95
92,test,1,con,1,z,Wed Mar 26 2025 10:16:26 GMT-0400 (Eastern Daylight Time),480484.80000019073,plum,800,I,z,z,None,770,571.0,199.0,57,2,2108.7000002861023,478376.09999990463,9005,plum,NF,C,474748,474748,473222,474032,473223,475331,474548,474548,475331,96
93,test,1,inc,1,m,Wed Mar 26 2025 10:16:26 GMT-0400 (Eastern Daylight Time),482851.40000009537,raisin,1100,I,m,m,None,720,521.0,199.0,96,2,2355.300000190735,480496.09999990463,9005,cobalt,NF,C,477164,477165,475342,476448,475342,477697,476965,476965,477697,97
94,test,1,con,1,m,Wed Mar 26 2025 10:16:26 GMT-0400 (Eastern Daylight Time),485001.0,gold,800,I,m,m,None,815,615.0,200.0,97,2,2138.4000000953674,482862.59999990463,9005,gold,NF,C,479231,479231,477709,478515,477709,479847,479031,479031,479847,98
95,test,1,con,1,z,Wed Mar 26 2025 10:16:26 GMT-0400 (Eastern Daylight Time),486985.0,kiwi,800,I,z,z,None,646,432.0,214.0,49,2,1975.0,485010.0,9005,kiwi,NF,C,481398,481398,479856,480665,479857,481831,481182,481183,481831,99
96,test,1,con,1,m,Wed Mar 26 2025 10:16:26 GMT-0400 (Eastern Daylight Time),489101.40000009537,gold,900,I,m,m,None,676,477.0,199.0,98,2,2108.0999999046326,486993.30000019073,9005,gold,NF,C,483465,483465,481839,482748,481840,483947,483265,483265,483947,100
97,test,1,inc,1,m,Wed Mar 26 2025 10:16:26 GMT-0400 (Eastern Daylight Time),491068.09999990463,banana,800,I,m,m,None,629,430.0,199.0,93,2,1958.0,489110.09999990463,9005,cobalt,NF,C,485481,485481,483956,484765,483957,485914,485282,485282,485914,101
98,test,1,inc,1,m,Wed Mar 26 2025 10:16:26 GMT-0400 (Eastern Daylight Time),493268.09999990463,pear,900,I,m,m,None,754,554.0,200.0,110,2,2190.699999809265,491077.40000009537,9005,iron,NF,C,487548,487548,485923,486831,485924,488114,487347,487347,488114,102
99,test,1,con,1,z,Wed Mar 26 2025 10:16:26 GMT-0400 (Eastern Daylight Time),495384.59999990463,pear,900,I,z,z,None,666,467.0,199.0,42,2,2107.5,493277.09999990463,9005,pear,NF,C,489748,489748,488123,489031,488124,490231,489548,489548,490231,103
100,test,1,con,1,z,Wed Mar 26 2025 10:16:26 GMT-0400 (Eastern Daylight Time),497417.90000009537,raisin,800,I,z,z,None,696,497.0,199.0,25,2,2025.5999999046326,495392.30000019073,9005,raisin,NF,C,491765,491765,490238,491048,490239,492264,491565,491565,492264,104
101,test,1,inc,1,z,Wed Mar 26 2025 10:16:26 GMT-0400 (Eastern Daylight Time),499401.09999990463,copper,900,I,z,z,None,547,348.0,199.0,22,2,1972.5,497428.59999990463,9005,orange,NF,C,493898,493898,492275,493181,492275,494247,493698,493698,494247,105
102,test,1,inc,1,z,Wed Mar 26 2025 10:16:26 GMT-0400 (Eastern Daylight Time),501384.80000019073,copper,900,I,z,z,None,533,334.0,199.0,6,2,1969.2000002861023,499415.59999990463,9005,banana,NF,C,495881,495881,494262,495165,494263,496231,495681,495681,496231,106
103,test,1,inc,1,m,Wed Mar 26 2025 10:16:26 GMT-0400 (Eastern Daylight Time),503501.30000019073,kiwi,1000,I,m,m,None,577,378.0,199.0,119,2,2107.300000190735,501394.0,9005,zinc,NF,C,497964,497964,496240,497248,496240,498347,497765,497765,498347,107
104,test,1,con,1,m,Wed Mar 26 2025 10:16:26 GMT-0400 (Eastern Daylight Time),505668.09999990463,copper,1000,I,m,m,None,620,421.0,199.0,75,2,2156.5,503511.59999990463,9005,copper,NF,C,500081,500081,498358,499365,498358,500514,499881,499881,500514,108
105,test,1,inc,1,m,Wed Mar 26 2025 10:16:26 GMT-0400 (Eastern Daylight Time),507584.7000002861,lime,800,I,m,m,None,573,374.0,199.0,125,2,1908.0,505676.7000002861,9005,lead,NF,C,502048,502048,500523,501331,500523,502431,501848,501848,502431,109
106,test,1,inc,1,m,Wed Mar 26 2025 10:16:26 GMT-0400 (Eastern Daylight Time),509567.80000019073,cherry,900,I,m,m,None,540,341.0,199.0,70,2,1973.3000001907349,507594.5,9005,bronze,NF,C,504065,504065,502441,503348,502441,504414,503865,503865,504414,110
107,test,1,con,1,m,Wed Mar 26 2025 10:16:26 GMT-0400 (Eastern Daylight Time),511801.40000009537,iron,1000,I,m,m,None,698,499.0,199.0,107,2,2220.4000000953674,509581.0,9005,iron,NF,C,506148,506148,504427,505431,504428,506647,505948,505948,506647,111
108,test,1,inc,1,m,Wed Mar 26 2025 10:16:26 GMT-0400 (Eastern Daylight Time),513918.0,raisin,1100,I,m,m,None,477,277.0,200.0,72,2,2107.199999809265,511810.80000019073,9005,bronze,NF,C,508481,508481,506657,507765,506657,508764,508281,508281,508764,112
109,test,1,inc,1,m,Wed Mar 26 2025 10:16:26 GMT-0400 (Eastern Daylight Time),515834.30000019073,pear,900,I,m,m,None,479,280.0,199.0,102,2,1907.3000001907349,513927.0,9005,gold,NF,C,510398,510398,508773,509681,508773,510680,510198,510198,510680,113
110,test,1,inc,1,z,Wed Mar 26 2025 10:16:26 GMT-0400 (Eastern Daylight Time),517817.90000009537,gold,800,I,z,z,None,646,447.0,199.0,45,2,1978.1999998092651,515839.7000002861,9005,pear,NF,C,512215,512215,510686,511498,510686,512664,512015,512015,512664,114
111,test,1,con,1,z,Wed Mar 26 2025 10:16:26 GMT-0400 (Eastern Daylight Time),519868.0,lime,900,I,z,z,None,611,412.0,199.0,34,2,2039.5999999046326,517828.40000009537,9005,lime,NF,C,514298,514298,512674,513581,512675,514714,514098,514098,514714,115
112,test,1,inc,1,m,Wed Mar 26 2025 10:16:26 GMT-0400 (Eastern Daylight Time),521817.7000002861,cherry,900,I,m,m,None,514,315.0,199.0,78,2,1940.5,519877.2000002861,9005,copper,NF,C,516348,516348,514723,515631,514724,516664,516148,516148,516664,116
113,test,1,con,1,m,Wed Mar 26 2025 10:16:26 GMT-0400 (Eastern Daylight Time),523734.7000002861,iron,900,I,m,m,None,467,268.0,199.0,106,2,1907.2000002861023,521827.5,9005,iron,NF,C,518298,518298,516674,517581,516674,518581,518098,518098,518581,117
114,test,1,con,1,m,Wed Mar 26 2025 10:16:26 GMT-0400 (Eastern Daylight Time),525918.0999999046,copper,900,I,m,m,None,742,543.0,199.0,74,2,2174.2999997138977,523743.80000019073,9005,copper,NF,C,520214,520215,518590,519498,518590,520764,520015,520015,520764,118
115,test,1,con,1,m,Wed Mar 26 2025 10:16:26 GMT-0400 (Eastern Daylight Time),527785.0,bronze,900,I,m,m,None,431,232.0,199.0,66,2,1858.1999998092651,525926.8000001907,9005,bronze,NF,C,522398,522398,520773,521681,520773,522631,522198,522198,522631,119
116,test,1,inc,1,m,Wed Mar 26 2025 10:16:26 GMT-0400 (Eastern Daylight Time),530034.8000001907,raisin,1100,I,m,m,None,605,406.0,199.0,88,2,2240.7000002861023,527794.0999999046,9005,silver,NF,C,524464,524464,522640,523748,522641,524881,524265,524265,524881,120
117,test,1,con,1,m,Wed Mar 26 2025 10:16:26 GMT-0400 (Eastern Daylight Time),532018.0,silver,1000,I,m,m,None,438,239.0,199.0,83,2,1974.5999999046326,530043.4000000954,9005,silver,NF,C,526614,526615,524889,525898,524890,526864,526415,526415,526864,121
118,test,1,inc,1,z,Wed Mar 26 2025 10:16:26 GMT-0400 (Eastern Daylight Time),533884.7000002861,bronze,800,I,z,z,None,527,328.0,199.0,13,2,1858.2000002861023,532026.5,9005,cherry,NF,C,528398,528398,526873,527681,526873,528731,528198,528198,528731,122
119,test,1,inc,1,z,Wed Mar 26 2025 10:16:26 GMT-0400 (Eastern Daylight Time),535868.0,iron,900,I,z,z,None,544,345.0,199.0,62,2,1972.9000000953674,533895.0999999046,9005,plum,NF,C,530365,530365,528741,529648,528742,530714,530165,530165,530714,123
120,test,1,inc,1,z,Wed Mar 26 2025 10:16:26 GMT-0400 (Eastern Daylight Time),538034.5999999046,lead,1100,I,z,z,None,521,322.0,199.0,56,2,2157.0,535877.5999999046,9005,kiwi,NF,C,532548,532548,530724,531831,530724,532881,532348,532348,532881,124
120,test,1,inc,0,z,Wed Mar 26 2025 10:16:26 GMT-0400 (Eastern Daylight Time),540051.2000002861,silver,1000,I,m,m,None,472,272.0,200.0,7,2,2008.3000001907349,538042.9000000954,9005,banana,NF,C,534614,534614,532889,533898,532889,534897,534414,534414,534897,125
121,test,1,con,1,z,Wed Mar 26 2025 10:16:26 GMT-0400 (Eastern Daylight Time),542051.3000001907,cherry,800,I,z,z,None,655,456.0,199.0,9,2,1990.0,540061.3000001907,9005,cherry,NF,C,536431,536431,534907,535715,534908,536897,536231,536231,536897,126
122,test,1,con,1,z,Wed Mar 26 2025 10:16:26 GMT-0400 (Eastern Daylight Time),544617.9000000954,orange,1100,I,z,z,None,931,731.0,200.0,20,2,2557.5,542060.4000000954,9005,orange,NF,C,538731,538731,536906,538015,536907,539464,538531,538531,539464,127
123,test,1,con,1,m,Wed Mar 26 2025 10:16:26 GMT-0400 (Eastern Daylight Time),546801.3000001907,cobalt,1100,I,m,m,None,539,340.0,199.0,92,2,2173.9000000953674,544627.4000000954,9005,cobalt,NF,C,541298,541298,539473,540581,539474,541647,541098,541098,541647,128
