block_c,block_dur,condition,countdown,datetime,endtime,list,multichar_response,project,response,response_time,session_number,start_end,starttime,subject_id,task,task_vers,trial
,,,,Wed Dec 18 2024 13:28:02 GMT-0600 (Central Standard Time),,,,O,space,1933,1,,,7031,WL,A,
prac,,0,,Wed Dec 18 2024 13:28:02 GMT-0600 (Central Standard Time),,NA,b,O,b,2085,1,,,7031,WL,A,1.0
prac,,0,,Wed Dec 18 2024 13:28:02 GMT-0600 (Central Standard Time),,NA,bo,O,o,459,1,,,7031,WL,A,1.0
prac,,0,,Wed Dec 18 2024 13:28:02 GMT-0600 (Central Standard Time),,NA,boo,O,o,135,1,,,7031,WL,A,1.0
prac,,0,,Wed Dec 18 2024 13:28:02 GMT-0600 (Central Standard Time),,NA,boos,O,s,109,1,,,7031,WL,A,1.0
prac,,0,,Wed Dec 18 2024 13:28:02 GMT-0600 (Central Standard Time),,NA,boost,O,t,86,1,,,7031,WL,A,1.0
prac,,0,,Wed Dec 18 2024 13:28:02 GMT-0600 (Central Standard Time),,NA,boostenter,O,enter,728,1,,,7031,WL,A,1.0
1,0.46700000762939453,learn,59532.999992370605,Wed Dec 18 2024 13:28:02 GMT-0600 (Central Standard Time),138856.40000009537,A,b,O,b,451,1,466.30000019073486,138390.09999990463,7031,WL,A,1.0
1,0.9169998168945312,learn,59083.00018310547,Wed Dec 18 2024 13:28:02 GMT-0600 (Central Standard Time),139306.40000009537,A,bo,O,o,430,1,916.3000001907349,138390.09999990463,7031,WL,A,1.0
1,1.0999999046325684,learn,58900.00009536743,Wed Dec 18 2024 13:28:02 GMT-0600 (Central Standard Time),139489.40000009537,A,boo,O,o,166,1,1099.3000001907349,138390.09999990463,7031,WL,A,1.0
1,1.4159998893737793,learn,58584.00011062622,Wed Dec 18 2024 13:28:02 GMT-0600 (Central Standard Time),139805.90000009537,A,book,O,k,295,1,1415.8000001907349,138390.09999990463,7031,WL,A,1.0
1,3.4489998817443848,learn,56551.000118255615,Wed Dec 18 2024 13:28:02 GMT-0600 (Central Standard Time),141838.59999990463,A,bookenter,O,enter,2018,1,3448.5,138390.09999990463,7031,WL,A,1.0
1,4.181999921798706,learn,55818.000078201294,Wed Dec 18 2024 13:28:02 GMT-0600 (Central Standard Time),142571.59999990463,A,m,O,m,723,1,732.5,141839.09999990463,7031,WL,A,2.0
1,4.281999826431274,learn,55718.000173568726,Wed Dec 18 2024 13:28:02 GMT-0600 (Central Standard Time),142671.7000002861,A,me,O,e,85,1,832.6000003814697,141839.09999990463,7031,WL,A,2.0
1,4.31499981880188,learn,55685.00018119812,Wed Dec 18 2024 13:28:02 GMT-0600 (Central Standard Time),142705.09999990463,A,mea,O,a,8,1,866.0,141839.09999990463,7031,WL,A,2.0
1,4.7149999141693115,learn,55285.00008583069,Wed Dec 18 2024 13:28:02 GMT-0600 (Central Standard Time),143104.90000009537,A,mead,O,d,375,1,1265.8000001907349,141839.09999990463,7031,WL,A,2.0
1,4.81499981880188,learn,55185.00018119812,Wed Dec 18 2024 13:28:02 GMT-0600 (Central Standard Time),143204.80000019073,A,meado,O,o,89,1,1365.7000002861023,141839.09999990463,7031,WL,A,2.0
1,5.347999811172485,learn,54652.000188827515,Wed Dec 18 2024 13:28:02 GMT-0600 (Central Standard Time),143738.09999990463,A,meadow,O,w,506,1,1899.0,141839.09999990463,7031,WL,A,2.0
1,5.514999866485596,learn,54485.000133514404,Wed Dec 18 2024 13:28:02 GMT-0600 (Central Standard Time),143904.7000002861,A,meadowenter,O,enter,142,1,2065.6000003814697,141839.09999990463,7031,WL,A,2.0
1,5.880999803543091,learn,54119.00019645691,Wed Dec 18 2024 13:28:02 GMT-0600 (Central Standard Time),144271.30000019073,A,t,O,t,345,1,366.2000002861023,143905.09999990463,7031,WL,A,3.0
1,6.06499981880188,learn,53935.00018119812,Wed Dec 18 2024 13:28:02 GMT-0600 (Central Standard Time),144454.40000009537,A,tr,O,r,169,1,549.3000001907349,143905.09999990463,7031,WL,A,3.0
1,6.164999961853027,learn,53835.00003814697,Wed Dec 18 2024 13:28:02 GMT-0600 (Central Standard Time),144554.5,A,tra,O,a,83,1,649.4000000953674,143905.09999990463,7031,WL,A,3.0
1,6.297999858856201,learn,53702.0001411438,Wed Dec 18 2024 13:28:02 GMT-0600 (Central Standard Time),144687.59999990463,A,trai,O,i,119,1,782.5,143905.09999990463,7031,WL,A,3.0
1,6.648000001907349,learn,53351.99999809265,Wed Dec 18 2024 13:28:02 GMT-0600 (Central Standard Time),145037.5,A,train,O,n,337,1,1132.4000000953674,143905.09999990463,7031,WL,A,3.0
1,6.913999795913696,learn,53086.000204086304,Wed Dec 18 2024 13:28:02 GMT-0600 (Central Standard Time),145304.09999990463,A,trainenter,O,enter,243,1,1399.0,143905.09999990463,7031,WL,A,3.0
1,7.148000001907349,learn,52851.99999809265,Wed Dec 18 2024 13:28:02 GMT-0600 (Central Standard Time),145537.5,A,r,O,r,209,1,233.09999990463257,145304.40000009537,7031,WL,A,4.0
1,7.313999891281128,learn,52686.00010871887,Wed Dec 18 2024 13:28:02 GMT-0600 (Central Standard Time),145704.0,A,ru,O,u,144,1,399.59999990463257,145304.40000009537,7031,WL,A,4.0
1,7.496999979019165,learn,52503.000020980835,Wed Dec 18 2024 13:28:02 GMT-0600 (Central Standard Time),145887.30000019073,A,rug,O,g,168,1,582.9000000953674,145304.40000009537,7031,WL,A,4.0
1,7.863999843597412,learn,52136.00015640259,Wed Dec 18 2024 13:28:02 GMT-0600 (Central Standard Time),146253.80000019073,A,rugenter,O,enter,353,1,949.4000000953674,145304.40000009537,7031,WL,A,4.0
1,8.146999835968018,learn,51853.00016403198,Wed Dec 18 2024 13:28:02 GMT-0600 (Central Standard Time),146537.0,A,h,O,h,266,1,282.69999980926514,146254.30000019073,7031,WL,A,5.0
1,8.263999938964844,learn,51736.000061035156,Wed Dec 18 2024 13:28:02 GMT-0600 (Central Standard Time),146653.7000002861,A,ha,O,a,96,1,399.40000009536743,146254.30000019073,7031,WL,A,5.0
1,8.646999835968018,learn,51353.00016403198,Wed Dec 18 2024 13:28:02 GMT-0600 (Central Standard Time),147036.90000009537,A,har,O,r,371,1,782.5999999046326,146254.30000019073,7031,WL,A,5.0
1,8.77999997138977,learn,51220.00002861023,Wed Dec 18 2024 13:28:02 GMT-0600 (Central Standard Time),147170.09999990463,A,harp,O,p,107,1,915.7999997138977,146254.30000019073,7031,WL,A,5.0
1,9.29699993133545,learn,50703.00006866455,Wed Dec 18 2024 13:28:02 GMT-0600 (Central Standard Time),147686.59999990463,A,harpenter,O,enter,493,1,1432.2999997138977,146254.30000019073,7031,WL,A,5.0
1,9.812999963760376,learn,50187.000036239624,Wed Dec 18 2024 13:28:02 GMT-0600 (Central Standard Time),148203.09999990463,A,g,O,g,506,1,516.0999999046326,147687.0,7031,WL,A,6.0
1,10.04699993133545,learn,49953.00006866455,Wed Dec 18 2024 13:28:02 GMT-0600 (Central Standard Time),148436.40000009537,A,go,O,o,213,1,749.4000000953674,147687.0,7031,WL,A,6.0
1,10.36299991607666,learn,49637.00008392334,Wed Dec 18 2024 13:28:02 GMT-0600 (Central Standard Time),148753.0,A,gol,O,l,293,1,1066.0,147687.0,7031,WL,A,6.0
1,10.513000011444092,learn,49486.99998855591,Wed Dec 18 2024 13:28:02 GMT-0600 (Central Standard Time),148903.0,A,gold,O,d,128,1,1216.0,147687.0,7031,WL,A,6.0
1,10.86299991607666,learn,49137.00008392334,Wed Dec 18 2024 13:28:02 GMT-0600 (Central Standard Time),149252.90000009537,A,goldenter,O,enter,329,1,1565.9000000953674,147687.0,7031,WL,A,6.0
1,12.345999956130981,learn,47654.00004386902,Wed Dec 18 2024 13:28:02 GMT-0600 (Central Standard Time),150735.59999990463,A,h,O,h,1468,1,1482.3999996185303,149253.2000002861,7031,WL,A,7.0
1,12.428999900817871,learn,47571.00009918213,Wed Dec 18 2024 13:28:02 GMT-0600 (Central Standard Time),150819.0,A,ha,O,a,65,1,1565.7999997138977,149253.2000002861,7031,WL,A,7.0
1,12.478999853134155,learn,47521.000146865845,Wed Dec 18 2024 13:28:02 GMT-0600 (Central Standard Time),150868.90000009537,A,har,O,r,36,1,1615.6999998092651,149253.2000002861,7031,WL,A,7.0
1,12.611999988555908,learn,47388.00001144409,Wed Dec 18 2024 13:28:02 GMT-0600 (Central Standard Time),151002.2000002861,A,harp,O,p,116,1,1749.0,149253.2000002861,7031,WL,A,7.0
1,12.995999813079834,learn,47004.000186920166,Wed Dec 18 2024 13:28:02 GMT-0600 (Central Standard Time),151385.5,A,harpenter,O,enter,358,1,2132.2999997138977,149253.2000002861,7031,WL,A,7.0
1,22.608999967575073,learn,37391.00003242493,Wed Dec 18 2024 13:28:02 GMT-0600 (Central Standard Time),160999.09999990463,A,b,O,b,9601,1,9613.199999809265,151385.90000009537,7031,WL,A,8.0
1,22.70899987220764,learn,37291.00012779236,Wed Dec 18 2024 13:28:02 GMT-0600 (Central Standard Time),161099.0,A,bu,O,u,82,1,9713.099999904633,151385.90000009537,7031,WL,A,8.0
1,22.875999927520752,learn,37124.00007247925,Wed Dec 18 2024 13:28:02 GMT-0600 (Central Standard Time),161265.59999990463,A,but,O,t,143,1,9879.699999809265,151385.90000009537,7031,WL,A,8.0
1,23.008999824523926,learn,36991.000175476074,Wed Dec 18 2024 13:28:02 GMT-0600 (Central Standard Time),161398.90000009537,A,butt,O,t,121,1,10013.0,151385.90000009537,7031,WL,A,8.0
1,23.108999967575073,learn,36891.00003242493,Wed Dec 18 2024 13:28:02 GMT-0600 (Central Standard Time),161498.80000019073,A,butto,O,o,83,1,10112.900000095367,151385.90000009537,7031,WL,A,8.0
1,23.30900001525879,learn,36690.99998474121,Wed Dec 18 2024 13:28:02 GMT-0600 (Central Standard Time),161698.7000002861,A,button,O,n,175,1,10312.800000190735,151385.90000009537,7031,WL,A,8.0
1,23.592000007629395,learn,36407.999992370605,Wed Dec 18 2024 13:28:02 GMT-0600 (Central Standard Time),161982.0,A,buttonenter,O,enter,272,1,10596.099999904633,151385.90000009537,7031,WL,A,8.0
1,29.756999969482422,learn,30243.000030517578,Wed Dec 18 2024 13:28:02 GMT-0600 (Central Standard Time),168146.80000019073,A,enter,O,enter,6148,1,6164.400000095367,161982.40000009537,7031,WL,A,9.0
1,30.33999991416931,learn,29660.00008583069,Wed Dec 18 2024 13:28:02 GMT-0600 (Central Standard Time),168729.80000019073,A,enter,O,enter,559,1,582.5,168147.30000019073,7031,WL,A,10.0
1,30.77300000190735,learn,29226.99999809265,Wed Dec 18 2024 13:28:02 GMT-0600 (Central Standard Time),169163.0,A,enter,O,enter,425,1,432.7999997138977,168730.2000002861,7031,WL,A,11.0
1,31.155999898910522,learn,28844.000101089478,Wed Dec 18 2024 13:28:02 GMT-0600 (Central Standard Time),169546.30000019073,A,enter,O,enter,360,1,383.0,169163.30000019073,7031,WL,A,12.0
1,31.555999994277954,learn,28444.000005722046,Wed Dec 18 2024 13:28:02 GMT-0600 (Central Standard Time),169946.0,A,enter,O,enter,385,1,399.40000009536743,169546.59999990463,7031,WL,A,13.0
1,31.905999898910522,learn,28094.000101089478,Wed Dec 18 2024 13:28:02 GMT-0600 (Central Standard Time),170296.0,A,enter,O,enter,336,1,349.59999990463257,169946.40000009537,7031,WL,A,14.0
1,32.4229998588562,learn,27577.0001411438,Wed Dec 18 2024 13:28:02 GMT-0600 (Central Standard Time),170812.5,A,enter,O,enter,499,1,516.0999999046326,170296.40000009537,7031,WL,A,15.0
2,0.39999985694885254,learn,59600.00014305115,Wed Dec 18 2024 13:28:02 GMT-0600 (Central Standard Time),239890.90000009537,A,s,O,s,363,1,399.40000009536743,239491.5,7031,WL,A,1.0
2,0.44899988174438477,learn,59551.000118255615,Wed Dec 18 2024 13:28:02 GMT-0600 (Central Standard Time),239940.09999990463,A,sa,O,a,17,1,448.59999990463257,239491.5,7031,WL,A,1.0
2,0.6339998245239258,learn,59366.000175476074,Wed Dec 18 2024 13:28:02 GMT-0600 (Central Standard Time),240124.0,A,sal,O,l,154,1,632.5,239491.5,7031,WL,A,1.0
2,0.9169998168945312,learn,59083.00018310547,Wed Dec 18 2024 13:28:02 GMT-0600 (Central Standard Time),240407.30000019073,A,salt,O,t,237,1,915.8000001907349,239491.5,7031,WL,A,1.0
2,1.4489998817443848,learn,58551.000118255615,Wed Dec 18 2024 13:28:02 GMT-0600 (Central Standard Time),240939.59999990463,A,saltenter,O,enter,495,1,1448.0999999046326,239491.5,7031,WL,A,1.0
2,1.866999864578247,learn,58133.00013542175,Wed Dec 18 2024 13:28:02 GMT-0600 (Central Standard Time),241357.30000019073,A,r,O,r,409,1,417.5,240939.80000019073,7031,WL,A,2.0
2,2.116999864578247,learn,57883.00013542175,Wed Dec 18 2024 13:28:02 GMT-0600 (Central Standard Time),241606.90000009537,A,ru,O,u,214,1,667.0999999046326,240939.80000019073,7031,WL,A,2.0
2,2.2669999599456787,learn,57733.00004005432,Wed Dec 18 2024 13:28:02 GMT-0600 (Central Standard Time),241756.80000019073,A,rug,O,g,104,1,817.0,240939.80000019073,7031,WL,A,2.0
2,2.4819998741149902,learn,57518.00012588501,Wed Dec 18 2024 13:28:02 GMT-0600 (Central Standard Time),241972.5,A,rugenter,O,enter,179,1,1032.6999998092651,240939.80000019073,7031,WL,A,2.0
2,2.75,learn,57250.0,Wed Dec 18 2024 13:28:02 GMT-0600 (Central Standard Time),242240.0,A,b,O,b,248,1,267.19999980926514,241972.80000019073,7031,WL,A,3.0
2,2.8999998569488525,learn,57100.00014305115,Wed Dec 18 2024 13:28:02 GMT-0600 (Central Standard Time),242389.7000002861,A,bo,O,o,121,1,416.90000009536743,241972.80000019073,7031,WL,A,3.0
2,3.066999912261963,learn,56933.00008773804,Wed Dec 18 2024 13:28:02 GMT-0600 (Central Standard Time),242557.0,A,boo,O,o,140,1,584.1999998092651,241972.80000019073,7031,WL,A,3.0
2,3.2669999599456787,learn,56733.00004005432,Wed Dec 18 2024 13:28:02 GMT-0600 (Central Standard Time),242756.80000019073,A,book,O,k,168,1,784.0,241972.80000019073,7031,WL,A,3.0
2,3.5149998664855957,learn,56485.000133514404,Wed Dec 18 2024 13:28:02 GMT-0600 (Central Standard Time),243005.40000009537,A,bookenter,O,enter,216,1,1032.5999999046326,241972.80000019073,7031,WL,A,3.0
2,3.8989999294281006,learn,56101.0000705719,Wed Dec 18 2024 13:28:02 GMT-0600 (Central Standard Time),243389.30000019073,A,e,O,e,375,1,383.59999990463257,243005.7000002861,7031,WL,A,4.0
2,4.0329999923706055,learn,55967.000007629395,Wed Dec 18 2024 13:28:02 GMT-0600 (Central Standard Time),243522.90000009537,A,ea,O,a,87,1,517.1999998092651,243005.7000002861,7031,WL,A,4.0
2,4.549000024795532,learn,55450.99997520447,Wed Dec 18 2024 13:28:02 GMT-0600 (Central Standard Time),244039.2000002861,A,e,O,backspace,484,1,1033.5,243005.7000002861,7031,WL,A,4.0
2,4.732999801635742,learn,55267.00019836426,Wed Dec 18 2024 13:28:02 GMT-0600 (Central Standard Time),244222.80000019073,A,,O,backspace,153,1,1217.0999999046326,243005.7000002861,7031,WL,A,4.0
2,5.348999977111816,learn,54651.00002288818,Wed Dec 18 2024 13:28:02 GMT-0600 (Central Standard Time),244839.09999990463,A,m,O,m,583,1,1833.3999996185303,243005.7000002861,7031,WL,A,4.0
2,5.414999961853027,learn,54585.00003814697,Wed Dec 18 2024 13:28:02 GMT-0600 (Central Standard Time),244904.90000009537,A,me,O,e,20,1,1899.1999998092651,243005.7000002861,7031,WL,A,4.0
2,5.4649999141693115,learn,54535.00008583069,Wed Dec 18 2024 13:28:02 GMT-0600 (Central Standard Time),244954.90000009537,A,mea,O,a,22,1,1949.1999998092651,243005.7000002861,7031,WL,A,4.0
2,5.681999921798706,learn,54318.000078201294,Wed Dec 18 2024 13:28:02 GMT-0600 (Central Standard Time),245172.5,A,mead,O,d,189,1,2166.7999997138977,243005.7000002861,7031,WL,A,4.0
2,5.797999858856201,learn,54202.0001411438,Wed Dec 18 2024 13:28:02 GMT-0600 (Central Standard Time),245288.40000009537,A,meado,O,o,72,1,2282.699999809265,243005.7000002861,7031,WL,A,4.0
2,6.031999826431274,learn,53968.000173568726,Wed Dec 18 2024 13:28:02 GMT-0600 (Central Standard Time),245522.2000002861,A,meadow,O,w,197,1,2516.5,243005.7000002861,7031,WL,A,4.0
2,6.513999938964844,learn,53486.000061035156,Wed Dec 18 2024 13:28:02 GMT-0600 (Central Standard Time),246004.5,A,meadowenter,O,enter,441,1,2998.7999997138977,243005.7000002861,7031,WL,A,4.0
2,6.73199987411499,learn,53268.00012588501,Wed Dec 18 2024 13:28:02 GMT-0600 (Central Standard Time),246222.0,A,t,O,t,200,1,217.19999980926514,246004.80000019073,7031,WL,A,5.0
2,6.914999961853027,learn,53085.00003814697,Wed Dec 18 2024 13:28:02 GMT-0600 (Central Standard Time),246405.2000002861,A,tr,O,r,142,1,400.40000009536743,246004.80000019073,7031,WL,A,5.0
2,6.997999906539917,learn,53002.00009346008,Wed Dec 18 2024 13:28:02 GMT-0600 (Central Standard Time),246487.80000019073,A,tra,O,a,45,1,483.0,246004.80000019073,7031,WL,A,5.0
2,7.063999891281128,learn,52936.00010871887,Wed Dec 18 2024 13:28:02 GMT-0600 (Central Standard Time),246554.5,A,trai,O,i,37,1,549.6999998092651,246004.80000019073,7031,WL,A,5.0
2,7.247999906539917,learn,52752.00009346008,Wed Dec 18 2024 13:28:02 GMT-0600 (Central Standard Time),246738.5,A,train,O,n,155,1,733.6999998092651,246004.80000019073,7031,WL,A,5.0
2,7.480999946594238,learn,52519.00005340576,Wed Dec 18 2024 13:28:02 GMT-0600 (Central Standard Time),246971.2000002861,A,trainenter,O,enter,191,1,966.4000000953674,246004.80000019073,7031,WL,A,5.0
2,7.664999961853027,learn,52335.00003814697,Wed Dec 18 2024 13:28:02 GMT-0600 (Central Standard Time),247154.90000009537,A,r,O,r,161,1,183.40000009536743,246971.5,7031,WL,A,6.0
2,7.847999811172485,learn,52152.000188827515,Wed Dec 18 2024 13:28:02 GMT-0600 (Central Standard Time),247338.30000019073,A,ru,O,u,140,1,366.80000019073486,246971.5,7031,WL,A,6.0
2,8.030999898910522,learn,51969.00010108948,Wed Dec 18 2024 13:28:02 GMT-0600 (Central Standard Time),247521.59999990463,A,rug,O,g,138,1,550.0999999046326,246971.5,7031,WL,A,6.0
2,8.19700002670288,learn,51802.99997329712,Wed Dec 18 2024 13:28:02 GMT-0600 (Central Standard Time),247687.30000019073,A,rugenter,O,enter,134,1,715.8000001907349,246971.5,7031,WL,A,6.0
2,8.497999906539917,learn,51502.00009346008,Wed Dec 18 2024 13:28:02 GMT-0600 (Central Standard Time),247988.09999990463,A,h,O,h,277,1,300.5,247687.59999990463,7031,WL,A,7.0
2,8.563999891281128,learn,51436.00010871887,Wed Dec 18 2024 13:28:02 GMT-0600 (Central Standard Time),248054.09999990463,A,ha,O,a,31,1,366.5,247687.59999990463,7031,WL,A,7.0
2,8.680999994277954,learn,51319.000005722046,Wed Dec 18 2024 13:28:02 GMT-0600 (Central Standard Time),248171.40000009537,A,har,O,r,91,1,483.80000019073486,247687.59999990463,7031,WL,A,7.0
2,8.813999891281128,learn,51186.00010871887,Wed Dec 18 2024 13:28:02 GMT-0600 (Central Standard Time),248304.59999990463,A,harp,O,p,87,1,617.0,247687.59999990463,7031,WL,A,7.0
2,9.113999843597412,learn,50886.00015640259,Wed Dec 18 2024 13:28:02 GMT-0600 (Central Standard Time),248604.40000009537,A,harpenter,O,enter,266,1,916.8000001907349,247687.59999990463,7031,WL,A,7.0
2,9.413999795913696,learn,50586.000204086304,Wed Dec 18 2024 13:28:02 GMT-0600 (Central Standard Time),248904.40000009537,A,g,O,g,280,1,299.69999980926514,248604.7000002861,7031,WL,A,8.0
2,9.480000019073486,learn,50519.999980926514,Wed Dec 18 2024 13:28:02 GMT-0600 (Central Standard Time),248970.5,A,go,O,o,26,1,365.7999997138977,248604.7000002861,7031,WL,A,8.0
2,9.69700002670288,learn,50302.99997329712,Wed Dec 18 2024 13:28:02 GMT-0600 (Central Standard Time),249187.59999990463,A,gol,O,l,184,1,582.8999996185303,248604.7000002861,7031,WL,A,8.0
2,9.763999938964844,learn,50236.000061035156,Wed Dec 18 2024 13:28:02 GMT-0600 (Central Standard Time),249253.7000002861,A,gold,O,d,31,1,649.0,248604.7000002861,7031,WL,A,8.0
2,10.11299991607666,learn,49887.00008392334,Wed Dec 18 2024 13:28:02 GMT-0600 (Central Standard Time),249603.2000002861,A,goldenter,O,enter,326,1,998.5,248604.7000002861,7031,WL,A,8.0
2,10.363999843597412,learn,49636.00015640259,Wed Dec 18 2024 13:28:02 GMT-0600 (Central Standard Time),249853.90000009537,A,f,O,f,240,1,250.40000009536743,249603.5,7031,WL,A,9.0
2,10.44700002670288,learn,49552.99997329712,Wed Dec 18 2024 13:28:02 GMT-0600 (Central Standard Time),249936.90000009537,A,fi,O,i,40,1,333.40000009536743,249603.5,7031,WL,A,9.0
2,10.646999835968018,learn,49353.00016403198,Wed Dec 18 2024 13:28:02 GMT-0600 (Central Standard Time),250137.30000019073,A,fin,O,n,178,1,533.8000001907349,249603.5,7031,WL,A,9.0
2,10.77999997138977,learn,49220.00002861023,Wed Dec 18 2024 13:28:02 GMT-0600 (Central Standard Time),250270.5,A,fing,O,g,91,1,667.0,249603.5,7031,WL,A,9.0
2,10.94700002670288,learn,49052.99997329712,Wed Dec 18 2024 13:28:02 GMT-0600 (Central Standard Time),250437.30000019073,A,finge,O,e,126,1,833.8000001907349,249603.5,7031,WL,A,9.0
2,11.02999997138977,learn,48970.00002861023,Wed Dec 18 2024 13:28:02 GMT-0600 (Central Standard Time),250519.80000019073,A,finger,O,r,47,1,916.3000001907349,249603.5,7031,WL,A,9.0
2,11.329999923706055,learn,48670.000076293945,Wed Dec 18 2024 13:28:02 GMT-0600 (Central Standard Time),250820.40000009537,A,fingerenter,O,enter,286,1,1216.9000000953674,249603.5,7031,WL,A,9.0
2,11.69700002670288,learn,48302.99997329712,Wed Dec 18 2024 13:28:02 GMT-0600 (Central Standard Time),251187.09999990463,A,r,O,r,344,1,366.3999996185303,250820.7000002861,7031,WL,A,10.0
2,11.812999963760376,learn,48187.000036239624,Wed Dec 18 2024 13:28:02 GMT-0600 (Central Standard Time),251303.59999990463,A,ra,O,a,71,1,482.8999996185303,250820.7000002861,7031,WL,A,10.0
2,11.912999868392944,learn,48087.000131607056,Wed Dec 18 2024 13:28:02 GMT-0600 (Central Standard Time),251403.0,A,rat,O,t,51,1,582.2999997138977,250820.7000002861,7031,WL,A,10.0
2,12.079999923706055,learn,47920.000076293945,Wed Dec 18 2024 13:28:02 GMT-0600 (Central Standard Time),251570.30000019073,A,ratt,O,t,142,1,749.5999999046326,250820.7000002861,7031,WL,A,10.0
2,12.228999853134155,learn,47771.000146865845,Wed Dec 18 2024 13:28:02 GMT-0600 (Central Standard Time),251719.40000009537,A,rattl,O,l,117,1,898.6999998092651,250820.7000002861,7031,WL,A,10.0
2,12.361999988555908,learn,47638.00001144409,Wed Dec 18 2024 13:28:02 GMT-0600 (Central Standard Time),251852.5,A,rattle,O,e,108,1,1031.7999997138977,250820.7000002861,7031,WL,A,10.0
2,12.611999988555908,learn,47388.00001144409,Wed Dec 18 2024 13:28:02 GMT-0600 (Central Standard Time),252102.5,A,rattleenter,O,enter,230,1,1281.7999997138977,250820.7000002861,7031,WL,A,10.0
2,14.52899980545044,learn,45471.00019454956,Wed Dec 18 2024 13:28:02 GMT-0600 (Central Standard Time),254019.5,A,s,O,s,1894,1,1916.6999998092651,252102.80000019073,7031,WL,A,11.0
2,14.611999988555908,learn,45388.00001144409,Wed Dec 18 2024 13:28:02 GMT-0600 (Central Standard Time),254102.2000002861,A,sa,O,a,48,1,1999.4000000953674,252102.80000019073,7031,WL,A,11.0
2,14.763000011444092,learn,45236.99998855591,Wed Dec 18 2024 13:28:02 GMT-0600 (Central Standard Time),254252.59999990463,A,sal,O,l,115,1,2149.7999997138977,252102.80000019073,7031,WL,A,11.0
2,14.928999900817871,learn,45071.00009918213,Wed Dec 18 2024 13:28:02 GMT-0600 (Central Standard Time),254419.2000002861,A,salt,O,t,128,1,2316.4000000953674,252102.80000019073,7031,WL,A,11.0
2,15.194999933242798,learn,44805.0000667572,Wed Dec 18 2024 13:28:02 GMT-0600 (Central Standard Time),254684.90000009537,A,saltenter,O,enter,237,1,2582.0999999046326,252102.80000019073,7031,WL,A,11.0
2,20.944000005722046,learn,39055.999994277954,Wed Dec 18 2024 13:28:02 GMT-0600 (Central Standard Time),260434.09999990463,A,g,O,g,5727,1,5748.89999961853,254685.2000002861,7031,WL,A,12.0
2,21.01099991798401,learn,38989.00008201599,Wed Dec 18 2024 13:28:02 GMT-0600 (Central Standard Time),260501.40000009537,A,go,O,o,32,1,5816.199999809265,254685.2000002861,7031,WL,A,12.0
2,21.210999965667725,learn,38789.000034332275,Wed Dec 18 2024 13:28:02 GMT-0600 (Central Standard Time),260701.0,A,gol,O,l,184,1,6015.799999713898,254685.2000002861,7031,WL,A,12.0
2,21.293999910354614,learn,38706.000089645386,Wed Dec 18 2024 13:28:02 GMT-0600 (Central Standard Time),260783.90000009537,A,gold,O,d,46,1,6098.699999809265,254685.2000002861,7031,WL,A,12.0
2,21.608999967575073,learn,38391.00003242493,Wed Dec 18 2024 13:28:02 GMT-0600 (Central Standard Time),261099.5,A,goldenter,O,enter,282,1,6414.299999713898,254685.2000002861,7031,WL,A,12.0
2,24.608999967575073,learn,35391.00003242493,Wed Dec 18 2024 13:28:02 GMT-0600 (Central Standard Time),264099.40000009537,A,l,O,l,2977,1,2999.5999999046326,261099.80000019073,7031,WL,A,13.0
2,24.776000022888184,learn,35223.99997711182,Wed Dec 18 2024 13:28:02 GMT-0600 (Central Standard Time),264266.09999990463,A,lo,O,o,121,1,3166.2999997138977,261099.80000019073,7031,WL,A,13.0
2,24.858999967575073,learn,35141.00003242493,Wed Dec 18 2024 13:28:02 GMT-0600 (Central Standard Time),264348.7000002861,A,log,O,g,48,1,3248.9000000953674,261099.80000019073,7031,WL,A,13.0
2,25.22499990463257,learn,34775.00009536743,Wed Dec 18 2024 13:28:02 GMT-0600 (Central Standard Time),264715.0,A,logenter,O,enter,337,1,3615.199999809265,261099.80000019073,7031,WL,A,13.0
2,26.307999849319458,learn,33692.00015068054,Wed Dec 18 2024 13:28:02 GMT-0600 (Central Standard Time),265798.0,A,enter,O,enter,1064,1,1082.5999999046326,264715.40000009537,7031,WL,A,14.0
2,26.490999937057495,learn,33509.000062942505,Wed Dec 18 2024 13:28:02 GMT-0600 (Central Standard Time),265981.30000019073,A,enter,O,enter,165,1,183.0,265798.30000019073,7031,WL,A,15.0
3,0.5169999599456787,learn,59483.00004005432,Wed Dec 18 2024 13:28:02 GMT-0600 (Central Standard Time),331993.80000019073,A,f,O,f,473,1,516.0999999046326,331477.7000002861,7031,WL,A,1.0
3,0.6500000953674316,learn,59349.99990463257,Wed Dec 18 2024 13:28:02 GMT-0600 (Central Standard Time),332127.2000002861,A,fl,O,l,100,1,649.5,331477.7000002861,7031,WL,A,1.0
3,0.8659999370574951,learn,59134.000062942505,Wed Dec 18 2024 13:28:02 GMT-0600 (Central Standard Time),332343.59999990463,A,flo,O,o,184,1,865.8999996185303,331477.7000002861,7031,WL,A,1.0
3,0.9830000400543213,learn,59016.99995994568,Wed Dec 18 2024 13:28:02 GMT-0600 (Central Standard Time),332460.30000019073,A,flow,O,w,77,1,982.5999999046326,331477.7000002861,7031,WL,A,1.0
3,1.065000057220459,learn,58934.99994277954,Wed Dec 18 2024 13:28:02 GMT-0600 (Central Standard Time),332542.7000002861,A,flowe,O,e,47,1,1065.0,331477.7000002861,7031,WL,A,1.0
3,1.183000087738037,learn,58816.99991226196,Wed Dec 18 2024 13:28:02 GMT-0600 (Central Standard Time),332660.59999990463,A,flower,O,r,106,1,1182.8999996185303,331477.7000002861,7031,WL,A,1.0
3,1.3819999694824219,learn,58618.00003051758,Wed Dec 18 2024 13:28:02 GMT-0600 (Central Standard Time),332859.2000002861,A,flowerenter,O,enter,170,1,1381.5,331477.7000002861,7031,WL,A,1.0
3,1.6489999294281006,learn,58351.0000705719,Wed Dec 18 2024 13:28:02 GMT-0600 (Central Standard Time),333125.90000009537,A,c,O,c,248,1,266.40000009536743,332859.5,7031,WL,A,2.0
3,1.7990000247955322,learn,58200.99997520447,Wed Dec 18 2024 13:28:02 GMT-0600 (Central Standard Time),333276.7000002861,A,ch,O,h,133,1,417.2000002861023,332859.5,7031,WL,A,2.0
3,1.8650000095367432,learn,58134.99999046326,Wed Dec 18 2024 13:28:02 GMT-0600 (Central Standard Time),333342.59999990463,A,chi,O,i,28,1,483.09999990463257,332859.5,7031,WL,A,2.0
3,2.1659998893737793,learn,57834.00011062622,Wed Dec 18 2024 13:28:02 GMT-0600 (Central Standard Time),333643.40000009537,A,chin,O,n,280,1,783.9000000953674,332859.5,7031,WL,A,2.0
3,3.4489998817443848,learn,56551.000118255615,Wed Dec 18 2024 13:28:02 GMT-0600 (Central Standard Time),334926.09999990463,A,chi,O,backspace,1244,1,2066.5999999046326,332859.5,7031,WL,A,2.0
3,3.7990000247955322,learn,56200.99997520447,Wed Dec 18 2024 13:28:02 GMT-0600 (Central Standard Time),335276.2000002861,A,chim,O,m,309,1,2416.7000002861023,332859.5,7031,WL,A,2.0
3,4.131999969482422,learn,55868.00003051758,Wed Dec 18 2024 13:28:02 GMT-0600 (Central Standard Time),335609.7000002861,A,chimn,O,n,295,1,2750.2000002861023,332859.5,7031,WL,A,2.0
3,4.365000009536743,learn,55634.99999046326,Wed Dec 18 2024 13:28:02 GMT-0600 (Central Standard Time),335842.40000009537,A,chimny,O,y,187,1,2982.9000000953674,332859.5,7031,WL,A,2.0
3,4.832000017166138,learn,55167.99998283386,Wed Dec 18 2024 13:28:02 GMT-0600 (Central Standard Time),336309.30000019073,A,chimn,O,backspace,433,1,3449.800000190735,332859.5,7031,WL,A,2.0
3,5.015000104904175,learn,54984.999895095825,Wed Dec 18 2024 13:28:02 GMT-0600 (Central Standard Time),336492.40000009537,A,chimne,O,e,144,1,3632.9000000953674,332859.5,7031,WL,A,2.0
3,5.197999954223633,learn,54802.00004577637,Wed Dec 18 2024 13:28:02 GMT-0600 (Central Standard Time),336675.7000002861,A,chimney,O,y,138,1,3816.2000002861023,332859.5,7031,WL,A,2.0
3,6.246999979019165,learn,53753.000020980835,Wed Dec 18 2024 13:28:02 GMT-0600 (Central Standard Time),337724.40000009537,A,chimneyenter,O,enter,1020,1,4864.900000095367,332859.5,7031,WL,A,2.0
3,6.596999883651733,learn,53403.00011634827,Wed Dec 18 2024 13:28:02 GMT-0600 (Central Standard Time),338074.59999990463,A,s,O,s,327,1,349.8999996185303,337724.7000002861,7031,WL,A,3.0
3,6.680999994277954,learn,53319.000005722046,Wed Dec 18 2024 13:28:02 GMT-0600 (Central Standard Time),338158.2000002861,A,sa,O,a,54,1,433.5,337724.7000002861,7031,WL,A,3.0
3,6.930999994277954,learn,53069.000005722046,Wed Dec 18 2024 13:28:02 GMT-0600 (Central Standard Time),338408.30000019073,A,sal,O,l,207,1,683.5999999046326,337724.7000002861,7031,WL,A,3.0
3,7.063999891281128,learn,52936.00010871887,Wed Dec 18 2024 13:28:02 GMT-0600 (Central Standard Time),338541.40000009537,A,salt,O,t,99,1,816.6999998092651,337724.7000002861,7031,WL,A,3.0
3,7.413000106811523,learn,52586.99989318848,Wed Dec 18 2024 13:28:02 GMT-0600 (Central Standard Time),338890.7000002861,A,saltenter,O,enter,316,1,1166.0,337724.7000002861,7031,WL,A,3.0
3,7.897000074386597,learn,52102.9999256134,Wed Dec 18 2024 13:28:02 GMT-0600 (Central Standard Time),339374.59999990463,A,b,O,b,474,1,483.69999980926514,338890.90000009537,7031,WL,A,4.0
3,8.04800009727478,learn,51951.99990272522,Wed Dec 18 2024 13:28:02 GMT-0600 (Central Standard Time),339525.2000002861,A,bo,O,o,121,1,634.3000001907349,338890.90000009537,7031,WL,A,4.0
3,8.19700002670288,learn,51802.99997329712,Wed Dec 18 2024 13:28:02 GMT-0600 (Central Standard Time),339674.7000002861,A,boo,O,o,107,1,783.8000001907349,338890.90000009537,7031,WL,A,4.0
3,8.364000082015991,learn,51635.99991798401,Wed Dec 18 2024 13:28:02 GMT-0600 (Central Standard Time),339841.30000019073,A,book,O,k,132,1,950.4000000953674,338890.90000009537,7031,WL,A,4.0
3,8.629999876022339,learn,51370.00012397766,Wed Dec 18 2024 13:28:02 GMT-0600 (Central Standard Time),340106.90000009537,A,bookenter,O,enter,226,1,1216.0,338890.90000009537,7031,WL,A,4.0
3,8.980000019073486,learn,51019.999980926514,Wed Dec 18 2024 13:28:02 GMT-0600 (Central Standard Time),340457.7000002861,A,m,O,m,337,1,350.6000003814697,340107.09999990463,7031,WL,A,5.0
3,9.062999963760376,learn,50937.000036239624,Wed Dec 18 2024 13:28:02 GMT-0600 (Central Standard Time),340540.30000019073,A,me,O,e,53,1,433.2000002861023,340107.09999990463,7031,WL,A,5.0
3,9.11299991607666,learn,50887.00008392334,Wed Dec 18 2024 13:28:02 GMT-0600 (Central Standard Time),340590.5,A,mea,O,a,8,1,483.40000009536743,340107.09999990463,7031,WL,A,5.0
3,9.379999876022339,learn,50620.00012397766,Wed Dec 18 2024 13:28:02 GMT-0600 (Central Standard Time),340857.7000002861,A,mead,O,d,243,1,750.6000003814697,340107.09999990463,7031,WL,A,5.0
3,9.54699993133545,learn,50453.00006866455,Wed Dec 18 2024 13:28:02 GMT-0600 (Central Standard Time),341024.30000019073,A,meado,O,o,130,1,917.2000002861023,340107.09999990463,7031,WL,A,5.0
3,9.730000019073486,learn,50269.999980926514,Wed Dec 18 2024 13:28:02 GMT-0600 (Central Standard Time),341207.7000002861,A,meadow,O,w,143,1,1100.6000003814697,340107.09999990463,7031,WL,A,5.0
3,10.163000106811523,learn,49836.99989318848,Wed Dec 18 2024 13:28:02 GMT-0600 (Central Standard Time),341639.80000019073,A,meadowenter,O,enter,401,1,1532.7000002861023,340107.09999990463,7031,WL,A,5.0
3,13.578999996185303,learn,46421.0000038147,Wed Dec 18 2024 13:28:02 GMT-0600 (Central Standard Time),345056.09999990463,A,t,O,t,3405,1,3416.0,341640.09999990463,7031,WL,A,6.0
3,13.779000043869019,learn,46220.99995613098,Wed Dec 18 2024 13:28:02 GMT-0600 (Central Standard Time),345256.09999990463,A,tr,O,r,165,1,3616.0,341640.09999990463,7031,WL,A,6.0
3,13.84500002861023,learn,46154.99997138977,Wed Dec 18 2024 13:28:02 GMT-0600 (Central Standard Time),345321.90000009537,A,tra,O,a,31,1,3681.800000190735,341640.09999990463,7031,WL,A,6.0
3,13.994999885559082,learn,46005.00011444092,Wed Dec 18 2024 13:28:02 GMT-0600 (Central Standard Time),345472.7000002861,A,trai,O,i,122,1,3832.6000003814697,341640.09999990463,7031,WL,A,6.0
3,14.161999940872192,learn,45838.00005912781,Wed Dec 18 2024 13:28:02 GMT-0600 (Central Standard Time),345639.30000019073,A,train,O,n,132,1,3999.2000002861023,341640.09999990463,7031,WL,A,6.0
3,14.878000020980835,learn,45121.999979019165,Wed Dec 18 2024 13:28:02 GMT-0600 (Central Standard Time),346354.90000009537,A,trainenter,O,enter,676,1,4714.800000190735,341640.09999990463,7031,WL,A,6.0
3,20.55999994277954,learn,39440.00005722046,Wed Dec 18 2024 13:28:02 GMT-0600 (Central Standard Time),352037.09999990463,A,b,O,b,5666,1,5682.0,346355.09999990463,7031,WL,A,7.0
3,20.66000008583069,learn,39339.99991416931,Wed Dec 18 2024 13:28:02 GMT-0600 (Central Standard Time),352137.2000002861,A,bo,O,o,67,1,5782.10000038147,346355.09999990463,7031,WL,A,7.0
3,20.792999982833862,learn,39207.00001716614,Wed Dec 18 2024 13:28:02 GMT-0600 (Central Standard Time),352270.7000002861,A,boo,O,o,98,1,5915.60000038147,346355.09999990463,7031,WL,A,7.0
3,20.993000030517578,learn,39006.99996948242,Wed Dec 18 2024 13:28:02 GMT-0600 (Central Standard Time),352470.40000009537,A,book,O,k,159,1,6115.300000190735,346355.09999990463,7031,WL,A,7.0
3,21.29200005531311,learn,38707.99994468689,Wed Dec 18 2024 13:28:02 GMT-0600 (Central Standard Time),352769.5,A,bookenter,O,enter,252,1,6414.400000095367,346355.09999990463,7031,WL,A,7.0
3,24.407999992370605,learn,35592.000007629395,Wed Dec 18 2024 13:28:02 GMT-0600 (Central Standard Time),355885.7000002861,A,l,O,l,3107,1,3115.9000000953674,352769.80000019073,7031,WL,A,8.0
3,24.657999992370605,learn,35342.000007629395,Wed Dec 18 2024 13:28:02 GMT-0600 (Central Standard Time),356135.80000019073,A,lo,O,o,214,1,3366.0,352769.80000019073,7031,WL,A,8.0
3,26.075000047683716,learn,33924.999952316284,Wed Dec 18 2024 13:28:02 GMT-0600 (Central Standard Time),357552.0,A,l,O,backspace,1372,1,4782.199999809265,352769.80000019073,7031,WL,A,8.0
3,26.27500009536743,learn,33724.99990463257,Wed Dec 18 2024 13:28:02 GMT-0600 (Central Standard Time),357752.09999990463,A,,O,backspace,158,1,4982.299999713898,352769.80000019073,7031,WL,A,8.0
3,26.79200005531311,learn,33207.99994468689,Wed Dec 18 2024 13:28:02 GMT-0600 (Central Standard Time),358269.09999990463,A,f,O,f,486,1,5499.299999713898,352769.80000019073,7031,WL,A,8.0
3,27.125,learn,32875.0,Wed Dec 18 2024 13:28:02 GMT-0600 (Central Standard Time),358601.7000002861,A,fi,O,i,295,1,5831.900000095367,352769.80000019073,7031,WL,A,8.0
3,27.308000087738037,learn,32691.999912261963,Wed Dec 18 2024 13:28:02 GMT-0600 (Central Standard Time),358785.2000002861,A,fin,O,n,148,1,6015.400000095367,352769.80000019073,7031,WL,A,8.0
3,27.407000064849854,learn,32592.999935150146,Wed Dec 18 2024 13:28:02 GMT-0600 (Central Standard Time),358884.5,A,fing,O,g,60,1,6114.699999809265,352769.80000019073,7031,WL,A,8.0
3,27.558000087738037,learn,32441.999912261963,Wed Dec 18 2024 13:28:02 GMT-0600 (Central Standard Time),359035.09999990463,A,finge,O,e,127,1,6265.299999713898,352769.80000019073,7031,WL,A,8.0
3,27.60699987411499,learn,32393.00012588501,Wed Dec 18 2024 13:28:02 GMT-0600 (Central Standard Time),359084.5,A,finger,O,r,15,1,6314.699999809265,352769.80000019073,7031,WL,A,8.0
3,27.85699987411499,learn,32143.00012588501,Wed Dec 18 2024 13:28:02 GMT-0600 (Central Standard Time),359334.0,A,fingerenter,O,enter,228,1,6564.199999809265,352769.80000019073,7031,WL,A,8.0
3,28.141000032424927,learn,31858.999967575073,Wed Dec 18 2024 13:28:02 GMT-0600 (Central Standard Time),359618.09999990463,A,r,O,r,270,1,283.7999997138977,359334.30000019073,7031,WL,A,9.0
3,28.306999921798706,learn,31693.000078201294,Wed Dec 18 2024 13:28:02 GMT-0600 (Central Standard Time),359784.7000002861,A,ra,O,a,130,1,450.40000009536743,359334.30000019073,7031,WL,A,9.0
3,28.391000032424927,learn,31608.999967575073,Wed Dec 18 2024 13:28:02 GMT-0600 (Central Standard Time),359867.80000019073,A,rat,O,t,51,1,533.5,359334.30000019073,7031,WL,A,9.0
3,28.54099988937378,learn,31459.00011062622,Wed Dec 18 2024 13:28:02 GMT-0600 (Central Standard Time),360018.0,A,ratt,O,t,125,1,683.6999998092651,359334.30000019073,7031,WL,A,9.0
3,28.674999952316284,learn,31325.000047683716,Wed Dec 18 2024 13:28:02 GMT-0600 (Central Standard Time),360151.09999990463,A,rattl,O,l,94,1,816.7999997138977,359334.30000019073,7031,WL,A,9.0
3,28.825000047683716,learn,31174.999952316284,Wed Dec 18 2024 13:28:02 GMT-0600 (Central Standard Time),360301.30000019073,A,rattle,O,e,109,1,967.0,359334.30000019073,7031,WL,A,9.0
3,29.073999881744385,learn,30926.000118255615,Wed Dec 18 2024 13:28:02 GMT-0600 (Central Standard Time),360550.30000019073,A,rattleenter,O,enter,205,1,1216.0,359334.30000019073,7031,WL,A,9.0
3,31.306999921798706,learn,28693.000078201294,Wed Dec 18 2024 13:28:02 GMT-0600 (Central Standard Time),362783.59999990463,A,g,O,g,2215,1,2233.0999999046326,360550.5,7031,WL,A,10.0
3,31.407000064849854,learn,28592.999935150146,Wed Dec 18 2024 13:28:02 GMT-0600 (Central Standard Time),362883.0,A,go,O,o,60,1,2332.5,360550.5,7031,WL,A,10.0
3,31.573999881744385,learn,28426.000118255615,Wed Dec 18 2024 13:28:02 GMT-0600 (Central Standard Time),363050.2000002861,A,gol,O,l,146,1,2499.7000002861023,360550.5,7031,WL,A,10.0
3,31.657000064849854,learn,28342.999935150146,Wed Dec 18 2024 13:28:02 GMT-0600 (Central Standard Time),363132.90000009537,A,gold,O,d,44,1,2582.4000000953674,360550.5,7031,WL,A,10.0
3,31.94000005722046,learn,28059.99994277954,Wed Dec 18 2024 13:28:02 GMT-0600 (Central Standard Time),363416.0,A,goldenter,O,enter,263,1,2865.5,360550.5,7031,WL,A,10.0
3,48.3510000705719,learn,11648.9999294281,Wed Dec 18 2024 13:28:02 GMT-0600 (Central Standard Time),379827.59999990463,A,enter,O,enter,16395,1,16411.39999961853,363416.2000002861,7031,WL,A,11.0
3,48.568000078201294,learn,11431.999921798706,Wed Dec 18 2024 13:28:02 GMT-0600 (Central Standard Time),380044.59999990463,A,enter,O,enter,200,1,216.69999980926514,379827.90000009537,7031,WL,A,12.0
3,48.73399996757507,learn,11266.000032424927,Wed Dec 18 2024 13:28:02 GMT-0600 (Central Standard Time),380210.5,A,enter,O,enter,143,1,165.5,380045.0,7031,WL,A,13.0
3,49.00099992752075,learn,10999.000072479248,Wed Dec 18 2024 13:28:02 GMT-0600 (Central Standard Time),380477.7000002861,A,enter,O,enter,249,1,266.90000009536743,380210.80000019073,7031,WL,A,14.0
3,49.41700005531311,learn,10582.99994468689,Wed Dec 18 2024 13:28:02 GMT-0600 (Central Standard Time),380893.59999990463,A,enter,O,enter,406,1,415.59999990463257,380478.0,7031,WL,A,15.0
4,1.0329999923706055,learn,58967.000007629395,Wed Dec 18 2024 13:28:02 GMT-0600 (Central Standard Time),447072.80000019073,A,b,O,b,1000,1,1032.3000001907349,446040.5,7031,WL,A,1.0
4,1.1500000953674316,learn,58849.99990463257,Wed Dec 18 2024 13:28:02 GMT-0600 (Central Standard Time),447189.30000019073,A,bo,O,o,89,1,1148.8000001907349,446040.5,7031,WL,A,1.0
4,1.4500000476837158,learn,58549.999952316284,Wed Dec 18 2024 13:28:02 GMT-0600 (Central Standard Time),447489.30000019073,A,boo,O,o,270,1,1448.8000001907349,446040.5,7031,WL,A,1.0
4,1.6660001277923584,learn,58333.99987220764,Wed Dec 18 2024 13:28:02 GMT-0600 (Central Standard Time),447706.0,A,book,O,k,186,1,1665.5,446040.5,7031,WL,A,1.0
4,2.2990000247955322,learn,57700.99997520447,Wed Dec 18 2024 13:28:02 GMT-0600 (Central Standard Time),448338.09999990463,A,bookenter,O,enter,593,1,2297.5999999046326,446040.5,7031,WL,A,1.0
4,2.6490001678466797,learn,57350.99983215332,Wed Dec 18 2024 13:28:02 GMT-0600 (Central Standard Time),448688.90000009537,A,f,O,f,338,1,350.59999990463257,448338.30000019073,7031,WL,A,2.0
4,2.8320000171661377,learn,57167.99998283386,Wed Dec 18 2024 13:28:02 GMT-0600 (Central Standard Time),448871.90000009537,A,fl,O,l,153,1,533.5999999046326,448338.30000019073,7031,WL,A,2.0
4,3.0329999923706055,learn,56967.000007629395,Wed Dec 18 2024 13:28:02 GMT-0600 (Central Standard Time),449072.09999990463,A,flo,O,o,166,1,733.7999997138977,448338.30000019073,7031,WL,A,2.0
4,3.132000207901001,learn,56867.999792099,Wed Dec 18 2024 13:28:02 GMT-0600 (Central Standard Time),449172.09999990463,A,flow,O,w,59,1,833.7999997138977,448338.30000019073,7031,WL,A,2.0
4,3.1690001487731934,learn,56830.99985122681,Wed Dec 18 2024 13:28:02 GMT-0600 (Central Standard Time),449208.59999990463,A,flowe,O,e,3,1,870.2999997138977,448338.30000019073,7031,WL,A,2.0
4,3.265000104904175,learn,56734.999895095825,Wed Dec 18 2024 13:28:02 GMT-0600 (Central Standard Time),449304.5,A,flower,O,r,67,1,966.1999998092651,448338.30000019073,7031,WL,A,2.0
4,3.5980000495910645,learn,56401.999950408936,Wed Dec 18 2024 13:28:02 GMT-0600 (Central Standard Time),449637.80000019073,A,flowerenter,O,enter,313,1,1299.5,448338.30000019073,7031,WL,A,2.0
4,3.9820001125335693,learn,56017.99988746643,Wed Dec 18 2024 13:28:02 GMT-0600 (Central Standard Time),450021.5,A,m,O,m,374,1,383.40000009536743,449638.09999990463,7031,WL,A,3.0
4,4.082000017166138,learn,55917.99998283386,Wed Dec 18 2024 13:28:02 GMT-0600 (Central Standard Time),450121.09999990463,A,me,O,e,62,1,483.0,449638.09999990463,7031,WL,A,3.0
4,4.115000009536743,learn,55884.99999046326,Wed Dec 18 2024 13:28:02 GMT-0600 (Central Standard Time),450154.2000002861,A,mea,O,a,7,1,516.1000003814697,449638.09999990463,7031,WL,A,3.0
4,4.29800009727478,learn,55701.99990272522,Wed Dec 18 2024 13:28:02 GMT-0600 (Central Standard Time),450338.0,A,mead,O,d,160,1,699.9000000953674,449638.09999990463,7031,WL,A,3.0
4,4.449000120162964,learn,55550.999879837036,Wed Dec 18 2024 13:28:02 GMT-0600 (Central Standard Time),450488.30000019073,A,meado,O,o,113,1,850.2000002861023,449638.09999990463,7031,WL,A,3.0
4,4.615000009536743,learn,55384.99999046326,Wed Dec 18 2024 13:28:02 GMT-0600 (Central Standard Time),450654.90000009537,A,meadow,O,w,133,1,1016.8000001907349,449638.09999990463,7031,WL,A,3.0
4,4.8480000495910645,learn,55151.999950408936,Wed Dec 18 2024 13:28:02 GMT-0600 (Central Standard Time),450887.30000019073,A,meadowenter,O,enter,198,1,1249.2000002861023,449638.09999990463,7031,WL,A,3.0
4,5.0990002155303955,learn,54900.999784469604,Wed Dec 18 2024 13:28:02 GMT-0600 (Central Standard Time),451138.2000002861,A,r,O,r,229,1,250.60000038146973,450887.59999990463,7031,WL,A,4.0
4,5.232000112533569,learn,54767.99988746643,Wed Dec 18 2024 13:28:02 GMT-0600 (Central Standard Time),451271.40000009537,A,ru,O,u,92,1,383.80000019073486,450887.59999990463,7031,WL,A,4.0
4,5.448000192642212,learn,54551.99980735779,Wed Dec 18 2024 13:28:02 GMT-0600 (Central Standard Time),451488.0,A,rug,O,g,188,1,600.4000000953674,450887.59999990463,7031,WL,A,4.0
4,5.680999994277954,learn,54319.000005722046,Wed Dec 18 2024 13:28:02 GMT-0600 (Central Standard Time),451720.30000019073,A,rugenter,O,enter,195,1,832.7000002861023,450887.59999990463,7031,WL,A,4.0
4,6.5980000495910645,learn,53401.999950408936,Wed Dec 18 2024 13:28:02 GMT-0600 (Central Standard Time),452637.40000009537,A,c,O,c,900,1,916.9000000953674,451720.5,7031,WL,A,5.0
4,6.63100004196167,learn,53368.99995803833,Wed Dec 18 2024 13:28:02 GMT-0600 (Central Standard Time),452670.40000009537,A,ch,O,h,2,1,949.9000000953674,451720.5,7031,WL,A,5.0
4,7.38100004196167,learn,52618.99995803833,Wed Dec 18 2024 13:28:02 GMT-0600 (Central Standard Time),453420.7000002861,A,chi,O,i,716,1,1700.2000002861023,451720.5,7031,WL,A,5.0
4,7.582000017166138,learn,52417.99998283386,Wed Dec 18 2024 13:28:02 GMT-0600 (Central Standard Time),453621.09999990463,A,chim,O,m,170,1,1900.5999999046326,451720.5,7031,WL,A,5.0
4,7.898000001907349,learn,52101.99999809265,Wed Dec 18 2024 13:28:02 GMT-0600 (Central Standard Time),453937.2000002861,A,chimn,O,n,271,1,2216.7000002861023,451720.5,7031,WL,A,5.0
4,8.014000177383423,learn,51985.99982261658,Wed Dec 18 2024 13:28:02 GMT-0600 (Central Standard Time),454053.5,A,chimne,O,e,89,1,2333.0,451720.5,7031,WL,A,5.0
4,8.21399998664856,learn,51786.00001335144,Wed Dec 18 2024 13:28:02 GMT-0600 (Central Standard Time),454253.5,A,chimney,O,y,171,1,2533.0,451720.5,7031,WL,A,5.0
4,8.664000034332275,learn,51335.999965667725,Wed Dec 18 2024 13:28:02 GMT-0600 (Central Standard Time),454703.7000002861,A,chimneyenter,O,enter,405,1,2983.2000002861023,451720.5,7031,WL,A,5.0
4,9.147000074386597,learn,50852.9999256134,Wed Dec 18 2024 13:28:02 GMT-0600 (Central Standard Time),455186.7000002861,A,a,O,a,469,1,482.7000002861023,454704.0,7031,WL,A,6.0
4,9.263000011444092,learn,50736.99998855591,Wed Dec 18 2024 13:28:02 GMT-0600 (Central Standard Time),455302.5,A,ap,O,p,82,1,598.5,454704.0,7031,WL,A,6.0
4,9.414000034332275,learn,50585.999965667725,Wed Dec 18 2024 13:28:02 GMT-0600 (Central Standard Time),455453.30000019073,A,app,O,p,137,1,749.3000001907349,454704.0,7031,WL,A,6.0
4,9.614000082015991,learn,50385.99991798401,Wed Dec 18 2024 13:28:02 GMT-0600 (Central Standard Time),455653.40000009537,A,appl,O,l,158,1,949.4000000953674,454704.0,7031,WL,A,6.0
4,9.713000059127808,learn,50286.99994087219,Wed Dec 18 2024 13:28:02 GMT-0600 (Central Standard Time),455752.59999990463,A,apple,O,e,53,1,1048.5999999046326,454704.0,7031,WL,A,6.0
4,9.979000091552734,learn,50020.999908447266,Wed Dec 18 2024 13:28:02 GMT-0600 (Central Standard Time),456018.90000009537,A,appleenter,O,enter,243,1,1314.9000000953674,454704.0,7031,WL,A,6.0
4,10.28000020980835,learn,49719.99979019165,Wed Dec 18 2024 13:28:02 GMT-0600 (Central Standard Time),456319.80000019073,A,f,O,f,291,1,300.59999990463257,456019.2000002861,7031,WL,A,7.0
4,11.063000202178955,learn,48936.999797821045,Wed Dec 18 2024 13:28:02 GMT-0600 (Central Standard Time),457102.7000002861,A,fi,O,i,747,1,1083.5,456019.2000002861,7031,WL,A,7.0
4,11.313000202178955,learn,48686.999797821045,Wed Dec 18 2024 13:28:02 GMT-0600 (Central Standard Time),457352.7000002861,A,fin,O,n,214,1,1333.5,456019.2000002861,7031,WL,A,7.0
4,11.563000202178955,learn,48436.999797821045,Wed Dec 18 2024 13:28:02 GMT-0600 (Central Standard Time),457602.7000002861,A,fing,O,g,208,1,1583.5,456019.2000002861,7031,WL,A,7.0
4,11.746000051498413,learn,48253.99994850159,Wed Dec 18 2024 13:28:02 GMT-0600 (Central Standard Time),457785.90000009537,A,finge,O,e,137,1,1766.6999998092651,456019.2000002861,7031,WL,A,7.0
4,11.782999992370605,learn,48217.000007629395,Wed Dec 18 2024 13:28:02 GMT-0600 (Central Standard Time),457822.80000019073,A,finger,O,r,4,1,1803.5999999046326,456019.2000002861,7031,WL,A,7.0
4,12.09500002861023,learn,47904.99997138977,Wed Dec 18 2024 13:28:02 GMT-0600 (Central Standard Time),458134.90000009537,A,fingerenter,O,enter,287,1,2115.699999809265,456019.2000002861,7031,WL,A,7.0
4,12.361999988555908,learn,47638.00001144409,Wed Dec 18 2024 13:28:02 GMT-0600 (Central Standard Time),458401.40000009537,A,r,O,r,252,1,266.30000019073486,458135.09999990463,7031,WL,A,8.0
4,12.445000171661377,learn,47554.99982833862,Wed Dec 18 2024 13:28:02 GMT-0600 (Central Standard Time),458484.59999990463,A,ra,O,a,65,1,349.5,458135.09999990463,7031,WL,A,8.0
4,12.662000179290771,learn,47337.99982070923,Wed Dec 18 2024 13:28:02 GMT-0600 (Central Standard Time),458702.0,A,rat,O,t,206,1,566.9000000953674,458135.09999990463,7031,WL,A,8.0
4,12.813000202178955,learn,47186.999797821045,Wed Dec 18 2024 13:28:02 GMT-0600 (Central Standard Time),458852.2000002861,A,ratt,O,t,113,1,717.1000003814697,458135.09999990463,7031,WL,A,8.0
4,12.962000131607056,learn,47037.999868392944,Wed Dec 18 2024 13:28:02 GMT-0600 (Central Standard Time),459002.0,A,rattl,O,l,108,1,866.9000000953674,458135.09999990463,7031,WL,A,8.0
4,13.078999996185303,learn,46921.0000038147,Wed Dec 18 2024 13:28:02 GMT-0600 (Central Standard Time),459118.80000019073,A,rattle,O,e,86,1,983.7000002861023,458135.09999990463,7031,WL,A,8.0
4,13.32800006866455,learn,46671.99993133545,Wed Dec 18 2024 13:28:02 GMT-0600 (Central Standard Time),459367.80000019073,A,rattleenter,O,enter,213,1,1232.7000002861023,458135.09999990463,7031,WL,A,8.0
4,13.578999996185303,learn,46421.0000038147,Wed Dec 18 2024 13:28:02 GMT-0600 (Central Standard Time),459618.59999990463,A,g,O,g,237,1,250.59999990463257,459368.0,7031,WL,A,9.0
4,13.696000099182129,learn,46303.99990081787,Wed Dec 18 2024 13:28:02 GMT-0600 (Central Standard Time),459735.2000002861,A,go,O,o,81,1,367.2000002861023,459368.0,7031,WL,A,9.0
4,13.912000179290771,learn,46087.99982070923,Wed Dec 18 2024 13:28:02 GMT-0600 (Central Standard Time),459951.90000009537,A,gol,O,l,179,1,583.9000000953674,459368.0,7031,WL,A,9.0
4,14.062000036239624,learn,45937.999963760376,Wed Dec 18 2024 13:28:02 GMT-0600 (Central Standard Time),460101.80000019073,A,gold,O,d,107,1,733.8000001907349,459368.0,7031,WL,A,9.0
4,14.328999996185303,learn,45671.0000038147,Wed Dec 18 2024 13:28:02 GMT-0600 (Central Standard Time),460368.7000002861,A,goldenter,O,enter,228,1,1000.7000002861023,459368.0,7031,WL,A,9.0
4,16.111999988555908,learn,43888.00001144409,Wed Dec 18 2024 13:28:02 GMT-0600 (Central Standard Time),462151.09999990463,A,h,O,h,1772,1,1782.0,460369.09999990463,7031,WL,A,10.0
4,16.228000164031982,learn,43771.99983596802,Wed Dec 18 2024 13:28:02 GMT-0600 (Central Standard Time),462267.90000009537,A,ha,O,a,78,1,1898.8000001907349,460369.09999990463,7031,WL,A,10.0
4,16.395000219345093,learn,43604.99978065491,Wed Dec 18 2024 13:28:02 GMT-0600 (Central Standard Time),462434.30000019073,A,har,O,r,121,1,2065.2000002861023,460369.09999990463,7031,WL,A,10.0
4,16.561000108718872,learn,43438.99989128113,Wed Dec 18 2024 13:28:02 GMT-0600 (Central Standard Time),462600.5,A,harp,O,p,120,1,2231.4000000953674,460369.09999990463,7031,WL,A,10.0
4,16.91000008583069,learn,43089.99991416931,Wed Dec 18 2024 13:28:02 GMT-0600 (Central Standard Time),462950.0,A,harpenter,O,enter,318,1,2580.9000000953674,460369.09999990463,7031,WL,A,10.0
4,17.544000148773193,learn,42455.99985122681,Wed Dec 18 2024 13:28:02 GMT-0600 (Central Standard Time),463583.90000009537,A,l,O,l,623,1,633.5999999046326,462950.30000019073,7031,WL,A,11.0
4,17.711000204086304,learn,42288.999795913696,Wed Dec 18 2024 13:28:02 GMT-0600 (Central Standard Time),463750.59999990463,A,lo,O,o,133,1,800.2999997138977,462950.30000019073,7031,WL,A,11.0
4,17.82800006866455,learn,42171.99993133545,Wed Dec 18 2024 13:28:02 GMT-0600 (Central Standard Time),463867.2000002861,A,log,O,g,76,1,916.9000000953674,462950.30000019073,7031,WL,A,11.0
4,18.0770001411438,learn,41922.9998588562,Wed Dec 18 2024 13:28:02 GMT-0600 (Central Standard Time),464116.30000019073,A,logenter,O,enter,213,1,1166.0,462950.30000019073,7031,WL,A,11.0
4,21.943000078201294,learn,38056.999921798706,Wed Dec 18 2024 13:28:02 GMT-0600 (Central Standard Time),467982.5,A,k,O,k,3850,1,3866.0,464116.5,7031,WL,A,12.0
4,22.026000022888184,learn,37973.99997711182,Wed Dec 18 2024 13:28:02 GMT-0600 (Central Standard Time),468065.2000002861,A,ke,O,e,36,1,3948.7000002861023,464116.5,7031,WL,A,12.0
4,22.210000038146973,learn,37789.99996185303,Wed Dec 18 2024 13:28:02 GMT-0600 (Central Standard Time),468249.2000002861,A,key,O,y,159,1,4132.700000286102,464116.5,7031,WL,A,12.0
4,22.892000198364258,learn,37107.99980163574,Wed Dec 18 2024 13:28:02 GMT-0600 (Central Standard Time),468931.30000019073,A,keyenter,O,enter,650,1,4814.800000190735,464116.5,7031,WL,A,12.0
4,33.9060001373291,learn,26093.9998626709,Wed Dec 18 2024 13:28:02 GMT-0600 (Central Standard Time),479945.30000019073,A,r,O,r,11002,1,11013.700000286102,468931.59999990463,7031,WL,A,13.0
4,34.123000144958496,learn,25876.999855041504,Wed Dec 18 2024 13:28:02 GMT-0600 (Central Standard Time),480161.80000019073,A,ru,O,u,184,1,11230.200000286102,468931.59999990463,7031,WL,A,13.0
4,34.32300019264221,learn,25676.999807357788,Wed Dec 18 2024 13:28:02 GMT-0600 (Central Standard Time),480361.80000019073,A,rug,O,g,171,1,11430.200000286102,468931.59999990463,7031,WL,A,13.0
4,34.5550000667572,learn,25444.999933242798,Wed Dec 18 2024 13:28:02 GMT-0600 (Central Standard Time),480594.2000002861,A,rugenter,O,enter,197,1,11662.60000038147,468931.59999990463,7031,WL,A,13.0
4,43.40300011634827,learn,16596.999883651733,Wed Dec 18 2024 13:28:02 GMT-0600 (Central Standard Time),489442.2000002861,A,l,O,l,8826,1,8847.800000190735,480594.40000009537,7031,WL,A,14.0
4,43.5530002117157,learn,16446.9997882843,Wed Dec 18 2024 13:28:02 GMT-0600 (Central Standard Time),489591.59999990463,A,lo,O,o,111,1,8997.199999809265,480594.40000009537,7031,WL,A,14.0
4,43.6710000038147,learn,16328.999996185303,Wed Dec 18 2024 13:28:02 GMT-0600 (Central Standard Time),489709.7000002861,A,log,O,g,99,1,9115.300000190735,480594.40000009537,7031,WL,A,14.0
4,44.01900005340576,learn,15980.999946594238,Wed Dec 18 2024 13:28:02 GMT-0600 (Central Standard Time),490057.90000009537,A,logenter,O,enter,309,1,9463.5,480594.40000009537,7031,WL,A,14.0
4,56.06599998474121,learn,3934.000015258789,Wed Dec 18 2024 13:28:02 GMT-0600 (Central Standard Time),502104.59999990463,A,k,O,k,12028,1,12046.39999961853,490058.2000002861,7031,WL,A,15.0
4,56.13499999046326,learn,3865.000009536743,Wed Dec 18 2024 13:28:02 GMT-0600 (Central Standard Time),502173.40000009537,A,ke,O,e,35,1,12115.199999809265,490058.2000002861,7031,WL,A,15.0
4,56.282999992370605,learn,3717.0000076293945,Wed Dec 18 2024 13:28:02 GMT-0600 (Central Standard Time),502321.30000019073,A,key,O,y,123,1,12263.099999904633,490058.2000002861,7031,WL,A,15.0
4,56.61500000953674,learn,3384.999990463257,Wed Dec 18 2024 13:28:02 GMT-0600 (Central Standard Time),502653.7000002861,A,keyenter,O,enter,301,1,12595.5,490058.2000002861,7031,WL,A,15.0
5,0.7669999599456787,learn,60000.0,Wed Dec 18 2024 13:28:02 GMT-0600 (Central Standard Time),569499.5999999046,A,b,O,b,730,1,766.5,568733.0999999046,7031,WL,A,1.0
5,0.9159998893737793,learn,60000.0,Wed Dec 18 2024 13:28:02 GMT-0600 (Central Standard Time),569649.4000000954,A,bo,O,o,105,1,916.3000001907349,568733.0999999046,7031,WL,A,1.0
5,1.0829999446868896,learn,60000.0,Wed Dec 18 2024 13:28:02 GMT-0600 (Central Standard Time),569815.9000000954,A,boo,O,o,128,1,1082.8000001907349,568733.0999999046,7031,WL,A,1.0
5,1.2159998416900635,learn,60000.0,Wed Dec 18 2024 13:28:02 GMT-0600 (Central Standard Time),569949.4000000954,A,book,O,k,101,1,1216.3000001907349,568733.0999999046,7031,WL,A,1.0
5,1.5149998664855957,learn,60000.0,Wed Dec 18 2024 13:28:02 GMT-0600 (Central Standard Time),570248.0999999046,A,bookenter,O,enter,259,1,1515.0,568733.0999999046,7031,WL,A,1.0
5,2.132999897003174,learn,60000.0,Wed Dec 18 2024 13:28:02 GMT-0600 (Central Standard Time),570865.5999999046,A,f,O,f,596,1,617.1999998092651,570248.4000000954,7031,WL,A,2.0
5,2.2149999141693115,learn,60000.0,Wed Dec 18 2024 13:28:02 GMT-0600 (Central Standard Time),570947.9000000954,A,fl,O,l,41,1,699.5,570248.4000000954,7031,WL,A,2.0
5,2.381999969482422,learn,60000.0,Wed Dec 18 2024 13:28:02 GMT-0600 (Central Standard Time),571115.4000000954,A,flo,O,o,143,1,867.0,570248.4000000954,7031,WL,A,2.0
5,2.497999906539917,learn,60000.0,Wed Dec 18 2024 13:28:02 GMT-0600 (Central Standard Time),571231.4000000954,A,flow,O,w,77,1,983.0,570248.4000000954,7031,WL,A,2.0
5,2.5319998264312744,learn,60000.0,Wed Dec 18 2024 13:28:02 GMT-0600 (Central Standard Time),571264.4000000954,A,flowe,O,e,11,1,1016.0,570248.4000000954,7031,WL,A,2.0
5,2.6659998893737793,learn,60000.0,Wed Dec 18 2024 13:28:02 GMT-0600 (Central Standard Time),571398.7000002861,A,flower,O,r,117,1,1150.3000001907349,570248.4000000954,7031,WL,A,2.0
5,2.8980000019073486,learn,60000.0,Wed Dec 18 2024 13:28:02 GMT-0600 (Central Standard Time),571630.9000000954,A,flowerenter,O,enter,188,1,1382.5,570248.4000000954,7031,WL,A,2.0
5,3.3989999294281006,learn,60000.0,Wed Dec 18 2024 13:28:02 GMT-0600 (Central Standard Time),572131.8000001907,A,m,O,m,478,1,500.59999990463257,571631.2000002861,7031,WL,A,3.0
5,4.347999811172485,learn,60000.0,Wed Dec 18 2024 13:28:02 GMT-0600 (Central Standard Time),573081.4000000954,A,me,O,e,909,1,1450.1999998092651,571631.2000002861,7031,WL,A,3.0
5,4.514999866485596,learn,60000.0,Wed Dec 18 2024 13:28:02 GMT-0600 (Central Standard Time),573248.0,A,mea,O,a,134,1,1616.7999997138977,571631.2000002861,7031,WL,A,3.0
5,4.631999969482422,learn,60000.0,Wed Dec 18 2024 13:28:02 GMT-0600 (Central Standard Time),573365.2000002861,A,mead,O,d,92,1,1734.0,571631.2000002861,7031,WL,A,3.0
5,4.865000009536743,learn,60000.0,Wed Dec 18 2024 13:28:02 GMT-0600 (Central Standard Time),573597.5999999046,A,meado,O,o,204,1,1966.3999996185303,571631.2000002861,7031,WL,A,3.0
5,5.365000009536743,learn,60000.0,Wed Dec 18 2024 13:28:02 GMT-0600 (Central Standard Time),574097.7000002861,A,meadow,O,w,463,1,2466.5,571631.2000002861,7031,WL,A,3.0
5,5.63100004196167,learn,60000.0,Wed Dec 18 2024 13:28:02 GMT-0600 (Central Standard Time),574363.5,A,meadowenter,O,enter,234,1,2732.2999997138977,571631.2000002861,7031,WL,A,3.0
5,6.230999946594238,learn,60000.0,Wed Dec 18 2024 13:28:02 GMT-0600 (Central Standard Time),574964.0999999046,A,l,O,l,577,1,600.2999997138977,574363.8000001907,7031,WL,A,4.0
5,6.430999994277954,learn,60000.0,Wed Dec 18 2024 13:28:02 GMT-0600 (Central Standard Time),575164.0,A,lo,O,o,160,1,800.1999998092651,574363.8000001907,7031,WL,A,4.0
5,6.597999811172485,learn,60000.0,Wed Dec 18 2024 13:28:02 GMT-0600 (Central Standard Time),575330.7000002861,A,log,O,g,124,1,966.9000000953674,574363.8000001907,7031,WL,A,4.0
5,6.879999876022339,learn,60000.0,Wed Dec 18 2024 13:28:02 GMT-0600 (Central Standard Time),575612.9000000954,A,logenter,O,enter,249,1,1249.0999999046326,574363.8000001907,7031,WL,A,4.0
5,7.263999938964844,learn,60000.0,Wed Dec 18 2024 13:28:02 GMT-0600 (Central Standard Time),575997.2000002861,A,f,O,f,361,1,384.0,575613.2000002861,7031,WL,A,5.0
5,7.379999876022339,learn,60000.0,Wed Dec 18 2024 13:28:02 GMT-0600 (Central Standard Time),576113.2000002861,A,fi,O,i,72,1,500.0,575613.2000002861,7031,WL,A,5.0
5,7.613999843597412,learn,60000.0,Wed Dec 18 2024 13:28:02 GMT-0600 (Central Standard Time),576347.0,A,fin,O,n,200,1,733.7999997138977,575613.2000002861,7031,WL,A,5.0
5,7.679999828338623,learn,60000.0,Wed Dec 18 2024 13:28:02 GMT-0600 (Central Standard Time),576412.9000000954,A,fing,O,g,33,1,799.6999998092651,575613.2000002861,7031,WL,A,5.0
5,7.863999843597412,learn,60000.0,Wed Dec 18 2024 13:28:02 GMT-0600 (Central Standard Time),576597.0,A,finge,O,e,157,1,983.7999997138977,575613.2000002861,7031,WL,A,5.0
5,7.912999868392944,learn,60000.0,Wed Dec 18 2024 13:28:02 GMT-0600 (Central Standard Time),576646.0999999046,A,finger,O,r,15,1,1032.8999996185303,575613.2000002861,7031,WL,A,5.0
5,8.263999938964844,learn,60000.0,Wed Dec 18 2024 13:28:02 GMT-0600 (Central Standard Time),576996.7000002861,A,fingerenter,O,enter,336,1,1383.5,575613.2000002861,7031,WL,A,5.0
5,8.579999923706055,learn,60000.0,Wed Dec 18 2024 13:28:02 GMT-0600 (Central Standard Time),577313.4000000954,A,r,O,r,296,1,316.40000009536743,576997.0,7031,WL,A,6.0
5,8.71399998664856,learn,60000.0,Wed Dec 18 2024 13:28:02 GMT-0600 (Central Standard Time),577446.5999999046,A,ra,O,a,90,1,449.59999990463257,576997.0,7031,WL,A,6.0
5,8.812999963760376,learn,60000.0,Wed Dec 18 2024 13:28:02 GMT-0600 (Central Standard Time),577546.3000001907,A,rat,O,t,60,1,549.3000001907349,576997.0,7031,WL,A,6.0
5,8.980000019073486,learn,60000.0,Wed Dec 18 2024 13:28:02 GMT-0600 (Central Standard Time),577713.3000001907,A,ratt,O,t,121,1,716.3000001907349,576997.0,7031,WL,A,6.0
5,9.062999963760376,learn,60000.0,Wed Dec 18 2024 13:28:02 GMT-0600 (Central Standard Time),577795.7000002861,A,rattl,O,l,34,1,798.7000002861023,576997.0,7031,WL,A,6.0
5,9.212999820709229,learn,60000.0,Wed Dec 18 2024 13:28:02 GMT-0600 (Central Standard Time),577946.4000000954,A,rattle,O,e,113,1,949.4000000953674,576997.0,7031,WL,A,6.0
5,9.462999820709229,learn,60000.0,Wed Dec 18 2024 13:28:02 GMT-0600 (Central Standard Time),578195.5999999046,A,rattleenter,O,enter,209,1,1198.5999999046326,576997.0,7031,WL,A,6.0
5,9.746999979019165,learn,60000.0,Wed Dec 18 2024 13:28:02 GMT-0600 (Central Standard Time),578479.7000002861,A,h,O,h,265,1,283.80000019073486,578195.9000000954,7031,WL,A,7.0
5,9.86299991607666,learn,60000.0,Wed Dec 18 2024 13:28:02 GMT-0600 (Central Standard Time),578596.3000001907,A,ha,O,a,68,1,400.40000009536743,578195.9000000954,7031,WL,A,7.0
5,9.94599986076355,learn,60000.0,Wed Dec 18 2024 13:28:02 GMT-0600 (Central Standard Time),578678.9000000954,A,har,O,r,48,1,483.0,578195.9000000954,7031,WL,A,7.0
5,10.096999883651733,learn,60000.0,Wed Dec 18 2024 13:28:02 GMT-0600 (Central Standard Time),578830.0,A,harp,O,p,133,1,634.0999999046326,578195.9000000954,7031,WL,A,7.0
5,10.461999893188477,learn,60000.0,Wed Dec 18 2024 13:28:02 GMT-0600 (Central Standard Time),579195.0999999046,A,harpenter,O,enter,326,1,999.1999998092651,578195.9000000954,7031,WL,A,7.0
5,12.895999908447266,learn,60000.0,Wed Dec 18 2024 13:28:02 GMT-0600 (Central Standard Time),581629.2000002861,A,r,O,r,2425,1,2433.800000190735,579195.4000000954,7031,WL,A,8.0
5,13.046000003814697,learn,60000.0,Wed Dec 18 2024 13:28:02 GMT-0600 (Central Standard Time),581778.5,A,ra,O,a,110,1,2583.0999999046326,579195.4000000954,7031,WL,A,8.0
5,13.144999980926514,learn,60000.0,Wed Dec 18 2024 13:28:02 GMT-0600 (Central Standard Time),581878.0999999046,A,rat,O,t,58,1,2682.699999809265,579195.4000000954,7031,WL,A,8.0
5,13.294999837875366,learn,60000.0,Wed Dec 18 2024 13:28:02 GMT-0600 (Central Standard Time),582028.4000000954,A,ratt,O,t,104,1,2833.0,579195.4000000954,7031,WL,A,8.0
5,13.394999980926514,learn,60000.0,Wed Dec 18 2024 13:28:02 GMT-0600 (Central Standard Time),582128.4000000954,A,rattl,O,l,65,1,2933.0,579195.4000000954,7031,WL,A,8.0
5,13.544999837875366,learn,60000.0,Wed Dec 18 2024 13:28:02 GMT-0600 (Central Standard Time),582278.4000000954,A,rattle,O,e,114,1,3083.0,579195.4000000954,7031,WL,A,8.0
5,13.777999877929688,learn,60000.0,Wed Dec 18 2024 13:28:02 GMT-0600 (Central Standard Time),582510.7000002861,A,rattleenter,O,enter,195,1,3315.300000190735,579195.4000000954,7031,WL,A,8.0
5,14.078999996185303,learn,60000.0,Wed Dec 18 2024 13:28:02 GMT-0600 (Central Standard Time),582811.5,A,g,O,g,285,1,300.5,582511.0,7031,WL,A,9.0
5,14.16100001335144,learn,60000.0,Wed Dec 18 2024 13:28:02 GMT-0600 (Central Standard Time),582894.0,A,go,O,o,52,1,383.0,582511.0,7031,WL,A,9.0
5,14.411999940872192,learn,60000.0,Wed Dec 18 2024 13:28:02 GMT-0600 (Central Standard Time),583144.8000001907,A,gol,O,l,208,1,633.8000001907349,582511.0,7031,WL,A,9.0
5,14.562000036239624,learn,60000.0,Wed Dec 18 2024 13:28:02 GMT-0600 (Central Standard Time),583294.7000002861,A,gold,O,d,119,1,783.7000002861023,582511.0,7031,WL,A,9.0
5,14.796000003814697,learn,60000.0,Wed Dec 18 2024 13:28:02 GMT-0600 (Central Standard Time),583528.8000001907,A,goldenter,O,enter,194,1,1017.8000001907349,582511.0,7031,WL,A,9.0
5,15.111999988555908,learn,60000.0,Wed Dec 18 2024 13:28:02 GMT-0600 (Central Standard Time),583844.5999999046,A,k,O,k,292,1,315.3999996185303,583529.2000002861,7031,WL,A,10.0
5,15.227999925613403,learn,60000.0,Wed Dec 18 2024 13:28:02 GMT-0600 (Central Standard Time),583961.0999999046,A,ke,O,e,72,1,431.8999996185303,583529.2000002861,7031,WL,A,10.0
5,15.460999965667725,learn,60000.0,Wed Dec 18 2024 13:28:02 GMT-0600 (Central Standard Time),584194.4000000954,A,key,O,y,187,1,665.1999998092651,583529.2000002861,7031,WL,A,10.0
5,15.843999862670898,learn,60000.0,Wed Dec 18 2024 13:28:02 GMT-0600 (Central Standard Time),584576.7000002861,A,keyenter,O,enter,343,1,1047.5,583529.2000002861,7031,WL,A,10.0
5,17.060999870300293,learn,60000.0,Wed Dec 18 2024 13:28:02 GMT-0600 (Central Standard Time),585793.9000000954,A,l,O,l,1196,1,1216.9000000953674,584577.0,7031,WL,A,11.0
5,18.16100001335144,learn,60000.0,Wed Dec 18 2024 13:28:02 GMT-0600 (Central Standard Time),586893.5999999046,A,,O,backspace,1059,1,2316.5999999046326,584577.0,7031,WL,A,11.0
5,19.960000038146973,learn,60000.0,Wed Dec 18 2024 13:28:02 GMT-0600 (Central Standard Time),588693.0,A,t,O,t,1765,1,4116.0,584577.0,7031,WL,A,11.0
5,20.15999984741211,learn,60000.0,Wed Dec 18 2024 13:28:02 GMT-0600 (Central Standard Time),588892.7000002861,A,tr,O,r,157,1,4315.700000286102,584577.0,7031,WL,A,11.0
5,20.243000030517578,learn,60000.0,Wed Dec 18 2024 13:28:02 GMT-0600 (Central Standard Time),588975.5,A,tra,O,a,39,1,4398.5,584577.0,7031,WL,A,11.0
5,20.376999855041504,learn,60000.0,Wed Dec 18 2024 13:28:02 GMT-0600 (Central Standard Time),589109.7000002861,A,trai,O,i,105,1,4532.700000286102,584577.0,7031,WL,A,11.0
5,20.55999994277954,learn,60000.0,Wed Dec 18 2024 13:28:02 GMT-0600 (Central Standard Time),589293.4000000954,A,train,O,n,151,1,4716.400000095367,584577.0,7031,WL,A,11.0
5,20.89199995994568,learn,60000.0,Wed Dec 18 2024 13:28:02 GMT-0600 (Central Standard Time),589625.0,A,trainenter,O,enter,291,1,5048.0,584577.0,7031,WL,A,11.0
5,25.241999864578247,learn,60000.0,Wed Dec 18 2024 13:28:02 GMT-0600 (Central Standard Time),593974.4000000954,A,a,O,a,4331,1,4349.0,589625.4000000954,7031,WL,A,12.0
5,25.39199995994568,learn,60000.0,Wed Dec 18 2024 13:28:02 GMT-0600 (Central Standard Time),594124.5,A,ap,O,p,107,1,4499.099999904633,589625.4000000954,7031,WL,A,12.0
5,25.54199981689453,learn,60000.0,Wed Dec 18 2024 13:28:02 GMT-0600 (Central Standard Time),594274.5,A,app,O,p,109,1,4649.099999904633,589625.4000000954,7031,WL,A,12.0
5,25.70799994468689,learn,60000.0,Wed Dec 18 2024 13:28:02 GMT-0600 (Central Standard Time),594441.0999999046,A,appl,O,l,135,1,4815.699999809265,589625.4000000954,7031,WL,A,12.0
5,25.807999849319458,learn,60000.0,Wed Dec 18 2024 13:28:02 GMT-0600 (Central Standard Time),594540.8000001907,A,apple,O,e,67,1,4915.400000095367,589625.4000000954,7031,WL,A,12.0
5,26.073999881744385,learn,60000.0,Wed Dec 18 2024 13:28:02 GMT-0600 (Central Standard Time),594806.7000002861,A,appleenter,O,enter,232,1,5181.300000190735,589625.4000000954,7031,WL,A,12.0
5,45.88599991798401,learn,60000.0,Wed Dec 18 2024 13:28:02 GMT-0600 (Central Standard Time),614618.0,A,b,O,b,19799,1,19811.0,594807.0,7031,WL,A,13.0
5,46.01799988746643,learn,60000.0,Wed Dec 18 2024 13:28:02 GMT-0600 (Central Standard Time),614750.5999999046,A,bu,O,u,102,1,19943.599999904633,594807.0,7031,WL,A,13.0
5,46.168999910354614,learn,60000.0,Wed Dec 18 2024 13:28:02 GMT-0600 (Central Standard Time),614900.9000000954,A,but,O,t,122,1,20093.900000095367,594807.0,7031,WL,A,13.0
5,46.30200004577637,learn,60000.0,Wed Dec 18 2024 13:28:02 GMT-0600 (Central Standard Time),615034.4000000954,A,butt,O,t,96,1,20227.400000095367,594807.0,7031,WL,A,13.0
5,46.418999910354614,learn,60000.0,Wed Dec 18 2024 13:28:02 GMT-0600 (Central Standard Time),615150.9000000954,A,butto,O,o,85,1,20343.900000095367,594807.0,7031,WL,A,13.0
5,46.651999950408936,learn,60000.0,Wed Dec 18 2024 13:28:02 GMT-0600 (Central Standard Time),615384.2000002861,A,button,O,n,192,1,20577.200000286102,594807.0,7031,WL,A,13.0
5,46.93400001525879,learn,60000.0,Wed Dec 18 2024 13:28:02 GMT-0600 (Central Standard Time),615666.5999999046,A,buttonenter,O,enter,244,1,20859.599999904633,594807.0,7031,WL,A,13.0
5,75.8420000076294,learn,60000.0,Wed Dec 18 2024 13:28:02 GMT-0600 (Central Standard Time),644574.4000000954,A,b,O,b,28898,1,28907.599999904633,615666.8000001907,7031,WL,A,14.0
6,0.46700000762939453,distr,59532.999992370605,Wed Dec 18 2024 13:28:02 GMT-0600 (Central Standard Time),710653.0999999046,B,b,O,b,429,1,466.19999980926514,710186.9000000954,7031,WL,A,1.0
6,0.6500000953674316,distr,59349.99990463257,Wed Dec 18 2024 13:28:02 GMT-0600 (Central Standard Time),710835.8000001907,B,bo,O,o,134,1,648.9000000953674,710186.9000000954,7031,WL,A,1.0
6,0.8159999847412109,distr,59184.00001525879,Wed Dec 18 2024 13:28:02 GMT-0600 (Central Standard Time),711002.8000001907,B,bow,O,w,143,1,815.9000000953674,710186.9000000954,7031,WL,A,1.0
6,1.2669999599456787,distr,58733.00004005432,Wed Dec 18 2024 13:28:02 GMT-0600 (Central Standard Time),711453.2000002861,B,bowl,O,l,419,1,1266.3000001907349,710186.9000000954,7031,WL,A,1.0
6,1.681999921798706,distr,58318.000078201294,Wed Dec 18 2024 13:28:02 GMT-0600 (Central Standard Time),711868.3000001907,B,bowlenter,O,enter,379,1,1681.4000000953674,710186.9000000954,7031,WL,A,1.0
6,2.0490000247955322,distr,57950.99997520447,Wed Dec 18 2024 13:28:02 GMT-0600 (Central Standard Time),712235.7000002861,B,j,O,j,354,1,367.1000003814697,711868.5999999046,7031,WL,A,2.0
6,2.2829999923706055,distr,57717.000007629395,Wed Dec 18 2024 13:28:02 GMT-0600 (Central Standard Time),712469.0,B,ju,O,u,190,1,600.4000000953674,711868.5999999046,7031,WL,A,2.0
6,2.433000087738037,distr,57566.99991226196,Wed Dec 18 2024 13:28:02 GMT-0600 (Central Standard Time),712618.9000000954,B,jud,O,d,107,1,750.3000001907349,711868.5999999046,7031,WL,A,2.0
6,2.5989999771118164,distr,57401.00002288818,Wed Dec 18 2024 13:28:02 GMT-0600 (Central Standard Time),712785.5,B,judg,O,g,124,1,916.9000000953674,711868.5999999046,7031,WL,A,2.0
6,2.7330000400543213,distr,57266.99995994568,Wed Dec 18 2024 13:28:02 GMT-0600 (Central Standard Time),712918.9000000954,B,judge,O,e,97,1,1050.3000001907349,711868.5999999046,7031,WL,A,2.0
6,2.9649999141693115,distr,57035.00008583069,Wed Dec 18 2024 13:28:02 GMT-0600 (Central Standard Time),713151.2000002861,B,judgeenter,O,enter,198,1,1282.6000003814697,711868.5999999046,7031,WL,A,2.0
6,3.2660000324249268,distr,56733.99996757507,Wed Dec 18 2024 13:28:02 GMT-0600 (Central Standard Time),713452.0999999046,B,i,O,i,285,1,300.69999980926514,713151.4000000954,7031,WL,A,3.0
6,3.515000104904175,distr,56484.999895095825,Wed Dec 18 2024 13:28:02 GMT-0600 (Central Standard Time),713701.7000002861,B,in,O,n,216,1,550.3000001907349,713151.4000000954,7031,WL,A,3.0
6,3.7660000324249268,distr,56233.99996757507,Wed Dec 18 2024 13:28:02 GMT-0600 (Central Standard Time),713951.9000000954,B,ins,O,s,217,1,800.5,713151.4000000954,7031,WL,A,3.0
6,3.8989999294281006,distr,56101.0000705719,Wed Dec 18 2024 13:28:02 GMT-0600 (Central Standard Time),714085.2000002861,B,inse,O,e,93,1,933.8000001907349,713151.4000000954,7031,WL,A,3.0
6,4.232000112533569,distr,55767.99988746643,Wed Dec 18 2024 13:28:02 GMT-0600 (Central Standard Time),714418.2000002861,B,insec,O,c,296,1,1266.8000001907349,713151.4000000954,7031,WL,A,3.0
6,4.499000072479248,distr,55500.99992752075,Wed Dec 18 2024 13:28:02 GMT-0600 (Central Standard Time),714685.5,B,insect,O,t,248,1,1534.0999999046326,713151.4000000954,7031,WL,A,3.0
6,4.864000082015991,distr,55135.99991798401,Wed Dec 18 2024 13:28:02 GMT-0600 (Central Standard Time),715050.5,B,insectenter,O,enter,317,1,1899.0999999046326,713151.4000000954,7031,WL,A,3.0
6,5.115000009536743,distr,54884.99999046326,Wed Dec 18 2024 13:28:02 GMT-0600 (Central Standard Time),715301.4000000954,B,s,O,s,234,1,250.59999990463257,715050.8000001907,7031,WL,A,4.0
6,5.299000024795532,distr,54700.99997520447,Wed Dec 18 2024 13:28:02 GMT-0600 (Central Standard Time),715484.8000001907,B,sh,O,h,151,1,434.0,715050.8000001907,7031,WL,A,4.0
6,5.482000112533569,distr,54517.99988746643,Wed Dec 18 2024 13:28:02 GMT-0600 (Central Standard Time),715668.0,B,she,O,e,142,1,617.1999998092651,715050.8000001907,7031,WL,A,4.0
6,5.648000001907349,distr,54351.99999809265,Wed Dec 18 2024 13:28:02 GMT-0600 (Central Standard Time),715834.5999999046,B,shee,O,e,128,1,783.7999997138977,715050.8000001907,7031,WL,A,4.0
6,5.8480000495910645,distr,54151.999950408936,Wed Dec 18 2024 13:28:02 GMT-0600 (Central Standard Time),716034.5999999046,B,sheep,O,p,157,1,983.7999997138977,715050.8000001907,7031,WL,A,4.0
6,6.21399998664856,distr,53786.00001335144,Wed Dec 18 2024 13:28:02 GMT-0600 (Central Standard Time),716400.2000002861,B,sheepenter,O,enter,330,1,1349.4000000953674,715050.8000001907,7031,WL,A,4.0
6,6.565000057220459,distr,53434.99994277954,Wed Dec 18 2024 13:28:02 GMT-0600 (Central Standard Time),716751.5,B,d,O,d,340,1,351.09999990463257,716400.4000000954,7031,WL,A,5.0
6,6.730999946594238,distr,53269.00005340576,Wed Dec 18 2024 13:28:02 GMT-0600 (Central Standard Time),716917.5,B,da,O,a,134,1,517.0999999046326,716400.4000000954,7031,WL,A,5.0
6,6.831000089645386,distr,53168.999910354614,Wed Dec 18 2024 13:28:02 GMT-0600 (Central Standard Time),717017.5,B,daw,O,w,69,1,617.0999999046326,716400.4000000954,7031,WL,A,5.0
6,7.04800009727478,distr,52951.99990272522,Wed Dec 18 2024 13:28:02 GMT-0600 (Central Standard Time),717234.0999999046,B,dawn,O,n,179,1,833.6999998092651,716400.4000000954,7031,WL,A,5.0
6,7.3470001220703125,distr,52652.99987792969,Wed Dec 18 2024 13:28:02 GMT-0600 (Central Standard Time),717533.0999999046,B,dawnenter,O,enter,257,1,1132.6999998092651,716400.4000000954,7031,WL,A,5.0
6,30.574000120162964,distr,29425.999879837036,Wed Dec 18 2024 13:28:02 GMT-0600 (Central Standard Time),740759.9000000954,B,p,O,p,23216,1,23226.400000095367,717533.5,7031,WL,A,6.0
6,30.85800004005432,distr,29141.99995994568,Wed Dec 18 2024 13:28:02 GMT-0600 (Central Standard Time),741043.0,B,po,O,o,244,1,23509.5,717533.5,7031,WL,A,6.0
6,31.0239999294281,distr,28976.0000705719,Wed Dec 18 2024 13:28:02 GMT-0600 (Central Standard Time),741209.5,B,poo,O,o,121,1,23676.0,717533.5,7031,WL,A,6.0
6,31.19099998474121,distr,28809.00001525879,Wed Dec 18 2024 13:28:02 GMT-0600 (Central Standard Time),741376.2000002861,B,pool,O,l,134,1,23842.700000286102,717533.5,7031,WL,A,6.0
6,31.50600004196167,distr,28493.99995803833,Wed Dec 18 2024 13:28:02 GMT-0600 (Central Standard Time),741691.8000001907,B,poolenter,O,enter,276,1,24158.300000190735,717533.5,7031,WL,A,6.0
6,39.05399990081787,distr,20946.00009918213,Wed Dec 18 2024 13:28:02 GMT-0600 (Central Standard Time),749239.4000000954,B,enter,O,enter,7536,1,7547.199999809265,741692.2000002861,7031,WL,A,7.0
6,39.4210000038147,distr,20578.999996185303,Wed Dec 18 2024 13:28:02 GMT-0600 (Central Standard Time),749606.0,B,enter,O,enter,348,1,366.2999997138977,749239.7000002861,7031,WL,A,8.0
6,39.670000076293945,distr,20329.999923706055,Wed Dec 18 2024 13:28:02 GMT-0600 (Central Standard Time),749855.8000001907,B,enter,O,enter,230,1,249.5,749606.3000001907,7031,WL,A,9.0
6,39.854000091552734,distr,20145.999908447266,Wed Dec 18 2024 13:28:02 GMT-0600 (Central Standard Time),750039.0999999046,B,enter,O,enter,164,1,182.89999961853027,749856.2000002861,7031,WL,A,10.0
6,40.0699999332428,distr,19930.000066757202,Wed Dec 18 2024 13:28:02 GMT-0600 (Central Standard Time),750255.8000001907,B,enter,O,enter,197,1,216.40000009536743,750039.4000000954,7031,WL,A,11.0
6,40.30399990081787,distr,19696.00009918213,Wed Dec 18 2024 13:28:02 GMT-0600 (Central Standard Time),750489.0,B,enter,O,enter,220,1,232.90000009536743,750256.0999999046,7031,WL,A,12.0
6,40.63700008392334,distr,19362.99991607666,Wed Dec 18 2024 13:28:02 GMT-0600 (Central Standard Time),750822.2000002861,B,enter,O,enter,315,1,332.90000009536743,750489.3000001907,7031,WL,A,13.0
6,40.98799991607666,distr,19012.00008392334,Wed Dec 18 2024 13:28:02 GMT-0600 (Central Standard Time),751173.0,B,enter,O,enter,341,1,350.5,750822.5,7031,WL,A,14.0
6,41.47000002861023,distr,18529.99997138977,Wed Dec 18 2024 13:28:02 GMT-0600 (Central Standard Time),751655.2000002861,B,enter,O,enter,463,1,481.80000019073486,751173.4000000954,7031,WL,A,15.0
7,1.3499999046325684,immed,58650.00009536743,Wed Dec 18 2024 13:28:02 GMT-0600 (Central Standard Time),762669.2000002861,A,s,O,s,1310,1,1349.0,761320.2000002861,7031,WL,A,1.0
7,1.4489998817443848,immed,58551.000118255615,Wed Dec 18 2024 13:28:02 GMT-0600 (Central Standard Time),762768.8000001907,A,sa,O,a,61,1,1448.5999999046326,761320.2000002861,7031,WL,A,1.0
7,1.6499998569488525,immed,58350.00014305115,Wed Dec 18 2024 13:28:02 GMT-0600 (Central Standard Time),762969.0999999046,A,sal,O,l,168,1,1648.8999996185303,761320.2000002861,7031,WL,A,1.0
7,2.049999952316284,immed,57950.000047683716,Wed Dec 18 2024 13:28:02 GMT-0600 (Central Standard Time),763369.0,A,salt,O,t,364,1,2048.7999997138977,761320.2000002861,7031,WL,A,1.0
7,2.248999834060669,immed,57751.00016593933,Wed Dec 18 2024 13:28:02 GMT-0600 (Central Standard Time),763568.0,A,saltenter,O,enter,163,1,2247.7999997138977,761320.2000002861,7031,WL,A,1.0
7,2.6649999618530273,immed,57335.00003814697,Wed Dec 18 2024 13:28:02 GMT-0600 (Central Standard Time),763984.4000000954,A,m,O,m,395,1,416.19999980926514,763568.2000002861,7031,WL,A,2.0
7,2.747999906539917,immed,57252.00009346008,Wed Dec 18 2024 13:28:02 GMT-0600 (Central Standard Time),764067.7000002861,A,me,O,e,74,1,499.5,763568.2000002861,7031,WL,A,2.0
7,2.815000057220459,immed,57184.99994277954,Wed Dec 18 2024 13:28:02 GMT-0600 (Central Standard Time),764134.4000000954,A,mea,O,a,48,1,566.1999998092651,763568.2000002861,7031,WL,A,2.0
7,2.9649999141693115,immed,57035.00008583069,Wed Dec 18 2024 13:28:02 GMT-0600 (Central Standard Time),764284.3000001907,A,mead,O,d,140,1,716.0999999046326,763568.2000002861,7031,WL,A,2.0
7,3.131999969482422,immed,56868.00003051758,Wed Dec 18 2024 13:28:02 GMT-0600 (Central Standard Time),764450.9000000954,A,meado,O,o,150,1,882.6999998092651,763568.2000002861,7031,WL,A,2.0
7,3.297999858856201,immed,56702.0001411438,Wed Dec 18 2024 13:28:02 GMT-0600 (Central Standard Time),764617.7000002861,A,meadow,O,w,151,1,1049.5,763568.2000002861,7031,WL,A,2.0
7,3.5309998989105225,immed,56469.00010108948,Wed Dec 18 2024 13:28:02 GMT-0600 (Central Standard Time),764850.9000000954,A,meadowenter,O,enter,216,1,1282.6999998092651,763568.2000002861,7031,WL,A,2.0
7,3.7309999465942383,immed,56269.00005340576,Wed Dec 18 2024 13:28:02 GMT-0600 (Central Standard Time),765050.9000000954,A,t,O,t,176,1,199.69999980926514,764851.2000002861,7031,WL,A,3.0
7,3.8980000019073486,immed,56101.99999809265,Wed Dec 18 2024 13:28:02 GMT-0600 (Central Standard Time),765217.3000001907,A,tr,O,r,152,1,366.09999990463257,764851.2000002861,7031,WL,A,3.0
7,3.997999906539917,immed,56002.00009346008,Wed Dec 18 2024 13:28:02 GMT-0600 (Central Standard Time),765317.4000000954,A,tra,O,a,90,1,466.19999980926514,764851.2000002861,7031,WL,A,3.0
7,4.0980000495910645,immed,55901.999950408936,Wed Dec 18 2024 13:28:02 GMT-0600 (Central Standard Time),765417.3000001907,A,trai,O,i,76,1,566.0999999046326,764851.2000002861,7031,WL,A,3.0
7,4.247999906539917,immed,55752.00009346008,Wed Dec 18 2024 13:28:02 GMT-0600 (Central Standard Time),765567.3000001907,A,train,O,n,138,1,716.0999999046326,764851.2000002861,7031,WL,A,3.0
7,4.5980000495910645,immed,55401.999950408936,Wed Dec 18 2024 13:28:02 GMT-0600 (Central Standard Time),765917.0999999046,A,trainenter,O,enter,340,1,1065.8999996185303,764851.2000002861,7031,WL,A,3.0
7,7.247999906539917,immed,52752.00009346008,Wed Dec 18 2024 13:28:02 GMT-0600 (Central Standard Time),768567.3000001907,A,g,O,g,2638,1,2649.9000000953674,765917.4000000954,7031,WL,A,4.0
7,7.346999883651733,immed,52653.00011634827,Wed Dec 18 2024 13:28:02 GMT-0600 (Central Standard Time),768666.2000002861,A,go,O,o,61,1,2748.800000190735,765917.4000000954,7031,WL,A,4.0
7,7.563999891281128,immed,52436.00010871887,Wed Dec 18 2024 13:28:02 GMT-0600 (Central Standard Time),768883.9000000954,A,gol,O,l,199,1,2966.5,765917.4000000954,7031,WL,A,4.0
7,7.7809998989105225,immed,52219.00010108948,Wed Dec 18 2024 13:28:02 GMT-0600 (Central Standard Time),769100.3000001907,A,gold,O,d,167,1,3182.9000000953674,765917.4000000954,7031,WL,A,4.0
7,8.02999997138977,immed,51970.00002861023,Wed Dec 18 2024 13:28:02 GMT-0600 (Central Standard Time),769349.4000000954,A,goldenter,O,enter,207,1,3432.0,765917.4000000954,7031,WL,A,4.0
7,8.346999883651733,immed,51653.00011634827,Wed Dec 18 2024 13:28:02 GMT-0600 (Central Standard Time),769666.9000000954,A,l,O,l,295,1,317.09999990463257,769349.8000001907,7031,WL,A,5.0
7,8.530999898910522,immed,51469.00010108948,Wed Dec 18 2024 13:28:02 GMT-0600 (Central Standard Time),769850.0999999046,A,lo,O,o,138,1,500.2999997138977,769349.8000001907,7031,WL,A,5.0
7,8.664000034332275,immed,51335.999965667725,Wed Dec 18 2024 13:28:02 GMT-0600 (Central Standard Time),769983.3000001907,A,log,O,g,100,1,633.5,769349.8000001907,7031,WL,A,5.0
7,8.912999868392944,immed,51087.000131607056,Wed Dec 18 2024 13:28:02 GMT-0600 (Central Standard Time),770232.4000000954,A,logenter,O,enter,209,1,882.5999999046326,769349.8000001907,7031,WL,A,5.0
7,9.179999828338623,immed,50820.00017166138,Wed Dec 18 2024 13:28:02 GMT-0600 (Central Standard Time),770498.9000000954,A,k,O,k,251,1,266.19999980926514,770232.7000002861,7031,WL,A,6.0
7,9.313999891281128,immed,50686.00010871887,Wed Dec 18 2024 13:28:02 GMT-0600 (Central Standard Time),770633.3000001907,A,ke,O,e,113,1,400.59999990463257,770232.7000002861,7031,WL,A,6.0
7,9.44700002670288,immed,50552.99997329712,Wed Dec 18 2024 13:28:02 GMT-0600 (Central Standard Time),770766.5,A,key,O,y,92,1,533.7999997138977,770232.7000002861,7031,WL,A,6.0
7,9.763000011444092,immed,50236.99998855591,Wed Dec 18 2024 13:28:02 GMT-0600 (Central Standard Time),771082.3000001907,A,keyenter,O,enter,276,1,849.5999999046326,770232.7000002861,7031,WL,A,6.0
7,13.895999908447266,immed,46104.000091552734,Wed Dec 18 2024 13:28:02 GMT-0600 (Central Standard Time),775215.2000002861,A,f,O,f,4123,1,4132.700000286102,771082.5,7031,WL,A,7.0
7,13.994999885559082,immed,46005.00011444092,Wed Dec 18 2024 13:28:02 GMT-0600 (Central Standard Time),775314.8000001907,A,fl,O,l,54,1,4232.300000190735,771082.5,7031,WL,A,7.0
7,14.145999908447266,immed,45854.000091552734,Wed Dec 18 2024 13:28:02 GMT-0600 (Central Standard Time),775464.9000000954,A,flo,O,o,114,1,4382.400000095367,771082.5,7031,WL,A,7.0
7,14.244999885559082,immed,45755.00011444092,Wed Dec 18 2024 13:28:02 GMT-0600 (Central Standard Time),775564.5999999046,A,flow,O,w,52,1,4482.099999904633,771082.5,7031,WL,A,7.0
7,14.2739999294281,immed,45726.0000705719,Wed Dec 18 2024 13:28:02 GMT-0600 (Central Standard Time),775593.7000002861,A,flowe,O,e,2,1,4511.200000286102,771082.5,7031,WL,A,7.0
7,14.361000061035156,immed,45638.999938964844,Wed Dec 18 2024 13:28:02 GMT-0600 (Central Standard Time),775680.7000002861,A,flower,O,r,57,1,4598.200000286102,771082.5,7031,WL,A,7.0
7,14.67799997329712,immed,45322.00002670288,Wed Dec 18 2024 13:28:02 GMT-0600 (Central Standard Time),775997.3000001907,A,flowerenter,O,enter,298,1,4914.800000190735,771082.5,7031,WL,A,7.0
7,15.42799997329712,immed,44572.00002670288,Wed Dec 18 2024 13:28:02 GMT-0600 (Central Standard Time),776747.8000001907,A,l,O,l,735,1,750.2000002861023,775997.5999999046,7031,WL,A,8.0
7,15.59500002861023,immed,44404.99997138977,Wed Dec 18 2024 13:28:02 GMT-0600 (Central Standard Time),776914.5,A,lo,O,o,129,1,916.9000000953674,775997.5999999046,7031,WL,A,8.0
7,15.644999980926514,immed,44355.000019073486,Wed Dec 18 2024 13:28:02 GMT-0600 (Central Standard Time),776964.0999999046,A,log,O,g,23,1,966.5,775997.5999999046,7031,WL,A,8.0
7,15.927000045776367,immed,44072.99995422363,Wed Dec 18 2024 13:28:02 GMT-0600 (Central Standard Time),777246.9000000954,A,logenter,O,enter,264,1,1249.3000001907349,775997.5999999046,7031,WL,A,8.0
7,17.744999885559082,immed,42255.00011444092,Wed Dec 18 2024 13:28:02 GMT-0600 (Central Standard Time),779064.0,A,b,O,b,1798,1,1816.9000000953674,777247.0999999046,7031,WL,A,9.0
7,17.810999870300293,immed,42189.00012969971,Wed Dec 18 2024 13:28:02 GMT-0600 (Central Standard Time),779129.9000000954,A,bu,O,u,20,1,1882.8000001907349,777247.0999999046,7031,WL,A,9.0
7,17.92799997329712,immed,42072.00002670288,Wed Dec 18 2024 13:28:02 GMT-0600 (Central Standard Time),779247.0999999046,A,but,O,t,97,1,2000.0,777247.0999999046,7031,WL,A,9.0
7,18.07799983024597,immed,41922.00016975403,Wed Dec 18 2024 13:28:02 GMT-0600 (Central Standard Time),779397.0,A,butt,O,t,110,1,2149.9000000953674,777247.0999999046,7031,WL,A,9.0
7,18.14400005340576,immed,41855.99994659424,Wed Dec 18 2024 13:28:02 GMT-0600 (Central Standard Time),779463.0999999046,A,butto,O,o,32,1,2216.0,777247.0999999046,7031,WL,A,9.0
7,18.32799983024597,immed,41672.00016975403,Wed Dec 18 2024 13:28:02 GMT-0600 (Central Standard Time),779647.0,A,button,O,n,162,1,2399.9000000953674,777247.0999999046,7031,WL,A,9.0
7,18.57699990272522,immed,41423.00009727478,Wed Dec 18 2024 13:28:02 GMT-0600 (Central Standard Time),779895.9000000954,A,buttonenter,O,enter,211,1,2648.800000190735,777247.0999999046,7031,WL,A,9.0
7,22.842999935150146,immed,37157.00006484985,Wed Dec 18 2024 13:28:02 GMT-0600 (Central Standard Time),784162.0999999046,A,h,O,h,4246,1,4265.89999961853,779896.2000002861,7031,WL,A,10.0
7,22.960000038146973,immed,37039.99996185303,Wed Dec 18 2024 13:28:02 GMT-0600 (Central Standard Time),784278.4000000954,A,ha,O,a,84,1,4382.199999809265,779896.2000002861,7031,WL,A,10.0
7,23.008999824523926,immed,36991.000175476074,Wed Dec 18 2024 13:28:02 GMT-0600 (Central Standard Time),784327.8000001907,A,har,O,r,25,1,4431.599999904633,779896.2000002861,7031,WL,A,10.0
7,23.14299988746643,immed,36857.00011253357,Wed Dec 18 2024 13:28:02 GMT-0600 (Central Standard Time),784461.3000001907,A,harp,O,p,117,1,4565.099999904633,779896.2000002861,7031,WL,A,10.0
7,23.442999839782715,immed,36557.000160217285,Wed Dec 18 2024 13:28:02 GMT-0600 (Central Standard Time),784761.0999999046,A,harpenter,O,enter,262,1,4864.89999961853,779896.2000002861,7031,WL,A,10.0
7,28.007999897003174,immed,31992.000102996826,Wed Dec 18 2024 13:28:02 GMT-0600 (Central Standard Time),789327.0999999046,A,t,O,t,4556,1,4565.699999809265,784761.4000000954,7031,WL,A,11.0
7,28.22499990463257,immed,31775.00009536743,Wed Dec 18 2024 13:28:02 GMT-0600 (Central Standard Time),789543.7000002861,A,tr,O,r,183,1,4782.300000190735,784761.4000000954,7031,WL,A,11.0
7,28.307999849319458,immed,31692.000150680542,Wed Dec 18 2024 13:28:02 GMT-0600 (Central Standard Time),789626.0999999046,A,tra,O,a,42,1,4864.699999809265,784761.4000000954,7031,WL,A,11.0
7,28.37399983406067,immed,31626.00016593933,Wed Dec 18 2024 13:28:02 GMT-0600 (Central Standard Time),789693.0999999046,A,trai,O,i,44,1,4931.699999809265,784761.4000000954,7031,WL,A,11.0
7,28.590999841690063,immed,31409.000158309937,Wed Dec 18 2024 13:28:02 GMT-0600 (Central Standard Time),789909.8000001907,A,train,O,n,203,1,5148.400000095367,784761.4000000954,7031,WL,A,11.0
7,28.87399983406067,immed,31126.00016593933,Wed Dec 18 2024 13:28:02 GMT-0600 (Central Standard Time),790192.5999999046,A,trainenter,O,enter,245,1,5431.199999809265,784761.4000000954,7031,WL,A,11.0
7,49.817999839782715,immed,10182.000160217285,Wed Dec 18 2024 13:28:02 GMT-0600 (Central Standard Time),811136.5999999046,A,b,O,b,20932,1,20943.699999809265,790192.9000000954,7031,WL,A,12.0
7,49.93499994277954,immed,10065.000057220459,Wed Dec 18 2024 13:28:02 GMT-0600 (Central Standard Time),811253.3000001907,A,bo,O,o,78,1,21060.400000095367,790192.9000000954,7031,WL,A,12.0
7,50.067999839782715,immed,9932.000160217285,Wed Dec 18 2024 13:28:02 GMT-0600 (Central Standard Time),811386.4000000954,A,boo,O,o,95,1,21193.5,790192.9000000954,7031,WL,A,12.0
7,50.25099992752075,immed,9749.000072479248,Wed Dec 18 2024 13:28:02 GMT-0600 (Central Standard Time),811569.8000001907,A,book,O,k,146,1,21376.900000095367,790192.9000000954,7031,WL,A,12.0
7,50.5,immed,9500.0,Wed Dec 18 2024 13:28:02 GMT-0600 (Central Standard Time),811818.9000000954,A,bookenter,O,enter,212,1,21626.0,790192.9000000954,7031,WL,A,12.0
7,55.16599988937378,immed,4834.000110626221,Wed Dec 18 2024 13:28:02 GMT-0600 (Central Standard Time),816484.8000001907,A,j,O,j,4643,1,4665.599999904633,811819.2000002861,7031,WL,A,13.0
7,55.632999897003174,immed,4367.000102996826,Wed Dec 18 2024 13:28:02 GMT-0600 (Central Standard Time),816951.4000000954,A,ju,O,u,428,1,5132.199999809265,811819.2000002861,7031,WL,A,13.0
7,55.76600003242493,immed,4233.999967575073,Wed Dec 18 2024 13:28:02 GMT-0600 (Central Standard Time),817084.5999999046,A,jud,O,d,85,1,5265.39999961853,811819.2000002861,7031,WL,A,13.0
7,55.948999881744385,immed,4051.0001182556152,Wed Dec 18 2024 13:28:02 GMT-0600 (Central Standard Time),817268.0,A,judg,O,g,149,1,5448.799999713898,811819.2000002861,7031,WL,A,13.0
7,56.46599984169006,immed,3534.0001583099365,Wed Dec 18 2024 13:28:02 GMT-0600 (Central Standard Time),817784.4000000954,A,jud,O,backspace,486,1,5965.199999809265,811819.2000002861,7031,WL,A,13.0
7,56.6489999294281,immed,3351.0000705718994,Wed Dec 18 2024 13:28:02 GMT-0600 (Central Standard Time),817967.7000002861,A,ju,O,backspace,138,1,6148.5,811819.2000002861,7031,WL,A,13.0
7,56.79900002479553,immed,3200.999975204468,Wed Dec 18 2024 13:28:02 GMT-0600 (Central Standard Time),818117.5999999046,A,j,O,backspace,110,1,6298.39999961853,811819.2000002861,7031,WL,A,13.0
7,56.948999881744385,immed,3051.0001182556152,Wed Dec 18 2024 13:28:02 GMT-0600 (Central Standard Time),818267.5999999046,A,,O,backspace,110,1,6448.39999961853,811819.2000002861,7031,WL,A,13.0
7,57.115999937057495,immed,2884.000062942505,Wed Dec 18 2024 13:28:02 GMT-0600 (Central Standard Time),818434.2000002861,A,,O,backspace,131,1,6615.0,811819.2000002861,7031,WL,A,13.0
7,60.031999826431274,immed,-31.999826431274414,Wed Dec 18 2024 13:28:02 GMT-0600 (Central Standard Time),821350.3000001907,A,None,O,None,2889,1,9531.099999904633,811819.2000002861,7031,WL,A,13.0
