acc_sum,block,block_c,condition,correct,correct_response,datetime,endtime,flanker,jitter,project,response,response_test_buffer_response,response_test_target_response,response_time,response_time_test_buffer_response,response_time_test_target_response,row_sel,session_number,start_end,starttime,subject_id,target,task,task_vers,time_test_buffer,time_test_buffer_response,time_test_constants,time_test_flanker,time_test_jitter,time_test_logger,time_test_target,time_test_target_response,time_test_variables,trial
1,prac,1,inc,1,z,Wed Mar 26 2025 15:25:06 GMT-0500 (Central Daylight Time),111944.5,film,900,O,z,,,874,,,14,1,3072.600000023842,108871.89999997616,7091,hate,AF,B,,,,,,,,,,1
2,prac,1,inc,1,z,Wed Mar 26 2025 15:25:06 GMT-0500 (Central Daylight Time),114775.60000002384,rock,900,O,z,,,608,,,10,1,2803.300000011921,111972.30000001192,7091,kind,AF,B,,,,,,,,,,2
3,prac,1,inc,1,m,Wed Mar 26 2025 15:25:06 GMT-0500 (Central Daylight Time),117559.0,elated,900,O,m,,,568,,,6,1,2776.100000023842,114782.89999997616,7091,napkin,AF,B,,,,,,,,,,3
4,prac,1,con,1,z,Wed Mar 26 2025 15:25:06 GMT-0500 (Central Daylight Time),120074.0,brutal,800,O,z,,,398,,,13,1,2489.699999988079,117584.30000001192,7091,brutal,AF,B,,,,,,,,,,4
5,prac,1,inc,1,z,Wed Mar 26 2025 15:25:06 GMT-0500 (Central Daylight Time),123073.10000002384,window,1100,O,z,,,583,,,16,1,2988.900000035763,120084.19999998808,7091,temper,AF,B,,,,,,,,,,5
5,prac,1,con,0,m,Wed Mar 26 2025 15:25:06 GMT-0500 (Central Daylight Time),125572.10000002384,step,800,O,z,,,395,,,1,1,2487.900000035763,123084.19999998808,7091,step,AF,B,,,,,,,,,,6
6,prac,1,con,1,z,Wed Mar 26 2025 15:25:06 GMT-0500 (Central Daylight Time),128288.19999998808,love,1000,O,z,,,399,,,11,1,2707.599999964237,125580.60000002384,7091,love,AF,B,,,,,,,,,,7
7,prac,1,con,1,z,Wed Mar 26 2025 15:25:06 GMT-0500 (Central Daylight Time),131037.69999998808,rage,1000,O,z,,,439,,,15,1,2736.599999964237,128301.10000002384,7091,rage,AF,B,,,,,,,,,,8
8,prac,1,inc,1,m,Wed Mar 26 2025 15:25:06 GMT-0500 (Central Daylight Time),133986.69999998808,hate,1100,O,m,,,531,,,4,1,2934.699999988079,131052.0,7091,film,AF,B,,,,,,,,,,9
9,prac,1,inc,1,m,Wed Mar 26 2025 15:25:06 GMT-0500 (Central Daylight Time),136735.39999997616,kind,900,O,m,,,518,,,2,1,2724.099999964237,134011.30000001192,7091,rock,AF,B,,,,,,,,,,10
10,prac,1,con,1,m,Wed Mar 26 2025 15:25:06 GMT-0500 (Central Daylight Time),139418.5,bell,1000,O,m,,,373,,,3,1,2668.300000011921,136750.19999998808,7091,bell,AF,B,,,,,,,,,,11
11,prac,1,con,1,m,Wed Mar 26 2025 15:25:06 GMT-0500 (Central Daylight Time),141933.69999998808,jacket,800,O,m,,,395,,,5,1,2491.800000011921,139441.89999997616,7091,jacket,AF,B,,,,,,,,,,12
12,prac,1,inc,1,m,Wed Mar 26 2025 15:25:06 GMT-0500 (Central Daylight Time),144949.80000001192,brutal,1100,O,m,,,604,,,8,1,3001.5,141948.30000001192,7091,window,AF,B,,,,,,,,,,13
13,prac,1,con,1,z,Wed Mar 26 2025 15:25:06 GMT-0500 (Central Daylight Time),147482.30000001192,elated,800,O,z,,,407,,,9,1,2509.900000035763,144972.39999997616,7091,elated,AF,B,,,,,,,,,,14
14,prac,1,inc,1,z,Wed Mar 26 2025 15:25:06 GMT-0500 (Central Daylight Time),150498.10000002384,napkin,1100,O,z,,,590,,,12,1,2993.0,147505.10000002384,7091,friend,AF,B,,,,,,,,,,15
15,prac,1,con,1,m,Wed Mar 26 2025 15:25:06 GMT-0500 (Central Daylight Time),153229.5,remote,1000,O,m,,,409,,,7,1,2712.899999976158,150516.60000002384,7091,remote,AF,B,,,,,,,,,,16
1,test,1,inc,1,m,Wed Mar 26 2025 15:25:06 GMT-0500 (Central Daylight Time),173173.10000002384,elated,800,O,m,m,None,596,397.0,199.0,117,1,1927.1000000238419,171246.0,7091,remote,AF,B,166225,166225,164697,165509,164698,166624,166025,166025,166624,1
2,test,1,con,1,z,Wed Mar 26 2025 15:25:06 GMT-0500 (Central Daylight Time),174955.69999998808,kind,900,O,z,z,None,349,149.0,200.0,10,1,1775.199999988079,173180.5,7091,kind,AF,B,168257,168257,166632,167541,166632,168407,168057,168057,168407,2
3,test,1,con,1,z,Wed Mar 26 2025 15:25:06 GMT-0500 (Central Daylight Time),176805.10000002384,elated,900,O,z,z,None,405,206.0,199.0,2,1,1842.9000000357628,174962.19999998808,7091,elated,AF,B,170040,170040,168413,169324,168414,170256,169840,169840,170256,3
4,test,1,inc,1,m,Wed Mar 26 2025 15:25:06 GMT-0500 (Central Daylight Time),178671.19999998808,brutal,900,O,m,m,None,427,227.0,200.0,102,1,1860.0,176811.19999998808,7091,jacket,AF,B,171890,171891,170262,171174,170263,172122,171689,171689,172122,4
5,test,1,inc,1,m,Wed Mar 26 2025 15:25:06 GMT-0500 (Central Daylight Time),180737.19999998808,brutal,900,O,m,m,None,618,419.0,199.0,118,1,2058.699999988079,178678.5,7091,remote,AF,B,173755,173755,172130,173039,172130,174188,173556,173556,174188,5
6,test,1,con,1,z,Wed Mar 26 2025 15:25:06 GMT-0500 (Central Daylight Time),182719.80000001192,temper,1100,O,z,z,None,345,145.0,200.0,60,1,1976.1000000238419,180743.69999998808,7091,temper,AF,B,176021,176021,174195,175305,174195,176171,175821,175821,176171,6
7,test,1,inc,1,m,Wed Mar 26 2025 15:25:06 GMT-0500 (Central Daylight Time),184785.89999997616,hate,1100,O,m,m,None,425,226.0,199.0,72,1,2060.0,182725.89999997616,7091,step,AF,B,178004,178004,176177,177287,176178,178237,177804,177804,178237,7
8,test,1,inc,1,z,Wed Mar 26 2025 15:25:06 GMT-0500 (Central Daylight Time),187018.5,film,1100,O,z,z,None,584,384.0,200.0,24,1,2227.100000023842,184791.39999997616,7091,love,AF,B,180070,180070,178242,179353,178243,180470,179870,179870,180470,8
9,test,1,con,1,z,Wed Mar 26 2025 15:25:06 GMT-0500 (Central Daylight Time),188901.0,kind,1000,O,z,z,None,339,140.0,199.0,11,1,1875.5,187025.5,7091,kind,AF,B,182202,182202,180477,181486,180477,182352,182003,182003,182352,9
10,test,1,con,1,z,Wed Mar 26 2025 15:25:06 GMT-0500 (Central Daylight Time),190850.5,elated,1000,O,z,z,None,401,201.0,200.0,3,1,1943.199999988079,188907.30000001192,7091,elated,AF,B,184085,184085,182358,183369,182359,184302,183885,183885,184301,10
11,test,1,inc,1,m,Wed Mar 26 2025 15:25:06 GMT-0500 (Central Daylight Time),192899.69999998808,hate,1100,O,m,m,None,407,208.0,199.0,80,1,2043.0999999642372,190856.60000002384,7091,rock,AF,B,186134,186134,184308,185418,184308,186351,185935,185935,186351,11
11,test,1,inc,0,z,Wed Mar 26 2025 15:25:06 GMT-0500 (Central Daylight Time),195032.39999997616,window,1100,O,m,m,None,486,286.0,200.0,40,1,2126.0,192906.39999997616,7091,brutal,AF,B,188184,188184,186357,187467,186358,188483,187984,187984,188483,12
12,test,1,con,1,m,Wed Mar 26 2025 15:25:06 GMT-0500 (Central Daylight Time),197115.0,napkin,1100,O,m,m,None,449,250.0,199.0,108,1,2076.699999988079,195038.30000001192,7091,napkin,AF,B,190316,190316,188489,189600,188490,190566,190117,190117,190566,13
13,test,1,con,1,z,Wed Mar 26 2025 15:25:06 GMT-0500 (Central Daylight Time),198998.0,hate,1000,O,z,z,None,346,147.0,199.0,43,1,1877.5,197120.5,7091,hate,AF,B,192299,192299,190572,191583,190572,192449,192100,192100,192449,14
14,test,1,inc,1,z,Wed Mar 26 2025 15:25:06 GMT-0500 (Central Daylight Time),200863.89999997616,jacket,800,O,z,z,None,520,320.0,200.0,5,1,1860.0,199003.89999997616,7091,elated,AF,B,193982,193982,192455,193266,192456,194315,193782,193782,194315,15
15,test,1,con,1,z,Wed Mar 26 2025 15:25:06 GMT-0500 (Central Daylight Time),202779.80000001192,elated,800,O,z,z,None,582,382.0,200.0,1,1,1909.199999988079,200870.60000002384,7091,elated,AF,B,195848,195848,194322,195132,194322,196231,195648,195648,196231,16
16,test,1,con,1,z,Wed Mar 26 2025 15:25:06 GMT-0500 (Central Daylight Time),204796.30000001192,friend,1100,O,z,z,None,380,165.0,215.0,28,1,2010.1000000238419,202786.19999998808,7091,friend,AF,B,198082,198082,196237,197348,196238,198247,197866,197866,198247,17
17,test,1,con,1,m,Wed Mar 26 2025 15:25:06 GMT-0500 (Central Daylight Time),206879.30000001192,jacket,900,O,m,m,None,637,422.0,215.0,98,1,2071.199999988079,204808.10000002384,7091,jacket,AF,B,199897,199897,198259,199164,198260,200330,199682,199682,200330,18
18,test,1,inc,1,m,Wed Mar 26 2025 15:25:06 GMT-0500 (Central Daylight Time),209011.60000002384,hate,1100,O,m,m,None,464,265.0,199.0,96,1,2109.600000023842,206902.0,7091,film,AF,B,202180,202181,200353,201464,200355,202463,201981,201981,202463,19
18,test,1,con,0,z,Wed Mar 26 2025 15:25:06 GMT-0500 (Central Daylight Time),211128.10000002384,elated,1100,O,m,m,None,470,255.0,215.0,4,1,2104.2000000476837,209023.89999997616,7091,elated,AF,B,204312,204312,202475,203579,202476,204579,204097,204097,204579,20
19,test,1,inc,1,z,Wed Mar 26 2025 15:25:06 GMT-0500 (Central Daylight Time),213210.80000001192,napkin,900,O,z,z,None,618,419.0,199.0,30,1,2064.199999988079,211146.60000002384,7091,friend,AF,B,206228,206228,204598,205513,204599,206662,206029,206029,206662,21
20,test,1,con,1,z,Wed Mar 26 2025 15:25:06 GMT-0500 (Central Daylight Time),215376.39999997616,friend,1000,O,z,z,None,601,402.0,199.0,27,1,2138.099999964237,213238.30000001192,7091,friend,AF,B,208412,208412,206689,207694,206691,208827,208212,208212,208827,22
21,test,1,con,1,m,Wed Mar 26 2025 15:25:06 GMT-0500 (Central Daylight Time),217293.0,bell,900,O,m,m,None,480,265.0,215.0,82,1,1903.800000011921,215389.19999998808,7091,bell,AF,B,210478,210478,208840,209744,208841,210744,210262,210262,210744,23
22,test,1,inc,1,m,Wed Mar 26 2025 15:25:06 GMT-0500 (Central Daylight Time),219391.89999997616,kind,900,O,m,m,None,636,437.0,199.0,70,1,2076.599999964237,217315.30000001192,7091,step,AF,B,212393,212393,210766,211677,210769,212843,212194,212194,212843,24
23,test,1,inc,1,z,Wed Mar 26 2025 15:25:06 GMT-0500 (Central Daylight Time),221457.39999997616,bell,1000,O,z,z,None,510,310.0,200.0,47,1,2044.8999999761581,219412.5,7091,hate,AF,B,214593,214593,212864,213876,212865,214909,214392,214392,214908,25
24,test,1,con,1,m,Wed Mar 26 2025 15:25:06 GMT-0500 (Central Daylight Time),223573.39999997616,film,1000,O,m,m,None,571,372.0,199.0,91,1,2104.099999964237,221469.30000001192,7091,film,AF,B,216642,216642,214920,215925,214921,217025,216443,216443,217024,26
25,test,1,inc,1,z,Wed Mar 26 2025 15:25:06 GMT-0500 (Central Daylight Time),225723.39999997616,bell,1000,O,z,z,None,599,400.0,199.0,15,1,2137.5,223585.89999997616,7091,kind,AF,B,218758,218759,217037,218042,217038,219175,218559,218559,219174,27
26,test,1,inc,1,m,Wed Mar 26 2025 15:25:06 GMT-0500 (Central Daylight Time),227806.0,love,1000,O,m,m,None,520,305.0,215.0,79,1,2061.899999976158,225744.10000002384,7091,rock,AF,B,220941,220941,219195,220208,219197,221257,220725,220725,221257,28
27,test,1,inc,1,z,Wed Mar 26 2025 15:25:06 GMT-0500 (Central Daylight Time),229938.19999998808,napkin,900,O,z,z,None,675,460.0,215.0,6,1,2113.599999964237,227824.60000002384,7091,elated,AF,B,222923,222923,221276,222191,221277,223389,222708,222708,223389,29
28,test,1,con,1,m,Wed Mar 26 2025 15:25:06 GMT-0500 (Central Daylight Time),232004.89999997616,napkin,900,O,m,m,None,631,432.0,199.0,106,1,2054.2999999523163,229950.60000002384,7091,napkin,AF,B,225023,225023,223402,224305,223403,225456,224823,224823,225456,30
29,test,1,inc,1,m,Wed Mar 26 2025 15:25:06 GMT-0500 (Central Daylight Time),234204.60000002384,friend,1100,O,m,m,None,549,350.0,199.0,120,1,2181.2000000476837,232023.39999997616,7091,remote,AF,B,227305,227305,225474,226589,225475,227656,227106,227106,227656,31
30,test,1,con,1,m,Wed Mar 26 2025 15:25:06 GMT-0500 (Central Daylight Time),236386.39999997616,rock,900,O,m,m,None,718,519.0,199.0,74,1,2167.2999999523163,234219.10000002384,7091,rock,AF,B,229304,229304,227670,228589,227672,229837,229105,229105,229837,32
31,test,1,inc,1,m,Wed Mar 26 2025 15:25:06 GMT-0500 (Central Daylight Time),238535.5,temper,1000,O,m,m,None,594,395.0,199.0,103,1,2126.699999988079,236408.80000001192,7091,jacket,AF,B,231588,231588,229860,230871,229861,231987,231388,231388,231986,33
32,test,1,inc,1,z,Wed Mar 26 2025 15:25:06 GMT-0500 (Central Daylight Time),240967.60000002384,window,1100,O,z,z,None,770,571.0,199.0,64,1,2411.5,238556.10000002384,7091,temper,AF,B,233836,233836,232007,233120,232009,234419,233637,233637,234419,34
33,test,1,inc,1,m,Wed Mar 26 2025 15:25:06 GMT-0500 (Central Daylight Time),243001.10000002384,kind,900,O,m,m,None,585,386.0,199.0,94,1,2021.800000011921,240979.30000001192,7091,film,AF,B,236053,236053,234430,235336,234431,236452,235853,235853,236452,35
34,test,1,con,1,z,Wed Mar 26 2025 15:25:06 GMT-0500 (Central Daylight Time),244966.19999998808,love,1000,O,z,z,None,410,195.0,215.0,19,1,1943.5999999642372,243022.60000002384,7091,love,AF,B,238219,238219,236474,237486,236475,238417,238003,238003,238417,36
35,test,1,con,1,z,Wed Mar 26 2025 15:25:06 GMT-0500 (Central Daylight Time),247049.60000002384,rage,1100,O,z,z,None,435,236.0,199.0,52,1,2072.100000023842,244977.5,7091,rage,AF,B,240251,240251,238429,239534,238430,240501,240051,240051,240501,37
36,test,1,con,1,m,Wed Mar 26 2025 15:25:06 GMT-0500 (Central Daylight Time),248998.39999997616,step,1000,O,m,m,None,395,180.0,215.0,67,1,1928.0999999642372,247070.30000001192,7091,step,AF,B,242267,242267,240521,241534,240523,242450,242051,242051,242449,38
37,test,1,inc,1,z,Wed Mar 26 2025 15:25:06 GMT-0500 (Central Daylight Time),250848.30000001192,step,800,O,z,z,None,503,304.0,199.0,53,1,1836.1000000238419,249012.19999998808,7091,rage,AF,B,243983,243983,242463,243267,242464,244299,243784,243784,244299,39
38,test,1,con,1,m,Wed Mar 26 2025 15:25:06 GMT-0500 (Central Daylight Time),252765.30000001192,napkin,800,O,m,m,None,565,350.0,215.0,105,1,1894.9000000357628,250870.39999997616,7091,napkin,AF,B,245866,245866,244321,245133,244323,246216,245650,245650,246216,40
39,test,1,inc,1,z,Wed Mar 26 2025 15:25:06 GMT-0500 (Central Daylight Time),254646.39999997616,jacket,800,O,z,z,None,520,321.0,199.0,37,1,1861.0999999642372,252785.30000001192,7091,brutal,AF,B,247765,247765,246236,247048,246237,248098,247565,247565,248097,41
40,test,1,con,1,z,Wed Mar 26 2025 15:25:06 GMT-0500 (Central Daylight Time),256512.69999998808,friend,900,O,z,z,None,426,227.0,199.0,26,1,1859.8999999761581,254652.80000001192,7091,friend,AF,B,249731,249731,248104,249015,248104,249964,249531,249531,249964,42
41,test,1,inc,1,z,Wed Mar 26 2025 15:25:06 GMT-0500 (Central Daylight Time),258645.10000002384,window,1100,O,z,z,None,496,297.0,199.0,8,1,2120.2000000476837,256524.89999997616,7091,elated,AF,B,251797,251797,249976,251080,249977,252096,251598,251598,252096,43
42,test,1,con,1,z,Wed Mar 26 2025 15:25:06 GMT-0500 (Central Daylight Time),260611.19999998808,rage,1000,O,z,z,None,423,224.0,199.0,51,1,1954.5,258656.69999998808,7091,rage,AF,B,253830,253830,252108,253113,252109,254062,253630,253630,254062,44
43,test,1,inc,1,m,Wed Mar 26 2025 15:25:06 GMT-0500 (Central Daylight Time),262544.3000000119,rage,800,O,m,m,None,594,379.0,215.0,69,1,1920.199999988079,260624.10000002384,7091,step,AF,B,255612,255612,254075,254880,254076,255995,255397,255397,255995,45
44,test,1,inc,1,m,Wed Mar 26 2025 15:25:06 GMT-0500 (Central Daylight Time),264943.8000000119,friend,1100,O,m,m,None,736,537.0,199.0,112,1,2380.699999988079,262563.10000002384,7091,napkin,AF,B,257845,257846,256014,257129,256015,258395,257646,257646,258395,46
45,test,1,con,1,z,Wed Mar 26 2025 15:25:06 GMT-0500 (Central Daylight Time),266759.8000000119,love,900,O,z,z,None,353,154.0,199.0,18,1,1794.6000000238419,264965.1999999881,7091,love,AF,B,260045,260045,258416,259328,258418,260211,259845,259845,260211,47
46,test,1,inc,1,m,Wed Mar 26 2025 15:25:06 GMT-0500 (Central Daylight Time),268925.60000002384,hate,1100,O,m,m,None,505,306.0,199.0,88,1,2145.800000011921,266779.8000000119,7091,bell,AF,B,262061,262061,260231,261345,260232,262377,261861,261861,262377,48
47,test,1,inc,1,z,Wed Mar 26 2025 15:25:06 GMT-0500 (Central Daylight Time),271041.60000002384,rock,900,O,z,z,None,659,460.0,199.0,22,1,2094.7000000476837,268946.89999997616,7091,love,AF,B,264027,264027,262398,263310,262400,264493,263827,263827,264493,49
48,test,1,inc,1,z,Wed Mar 26 2025 15:25:06 GMT-0500 (Central Daylight Time),273307.60000002384,remote,1000,O,z,z,None,707,508.0,199.0,39,1,2250.7000000476837,271056.89999997616,7091,brutal,AF,B,266243,266243,264508,265526,264509,266759,266043,266043,266759,50
49,test,1,inc,1,z,Wed Mar 26 2025 15:25:06 GMT-0500 (Central Daylight Time),275356.89999997616,bell,1000,O,z,z,None,489,290.0,199.0,23,1,2029.199999988079,273327.6999999881,7091,love,AF,B,268509,268509,266779,267793,266780,268808,268309,268309,268808,51
50,test,1,con,1,m,Wed Mar 26 2025 15:25:06 GMT-0500 (Central Daylight Time),277356.8000000119,window,900,O,m,m,None,548,349.0,199.0,122,1,1978.1000000238419,275378.6999999881,7091,window,AF,B,270458,270458,268830,269742,268831,270808,270258,270258,270808,52
51,test,1,con,1,m,Wed Mar 26 2025 15:25:06 GMT-0500 (Central Daylight Time),279288.6999999881,remote,1000,O,m,m,None,377,178.0,199.0,115,1,1912.0,277376.6999999881,7091,remote,AF,B,272558,272558,270828,271841,270829,272740,272358,272358,272740,53
52,test,1,inc,1,m,Wed Mar 26 2025 15:25:06 GMT-0500 (Central Daylight Time),281454.89999997616,friend,1100,O,m,m,None,504,305.0,199.0,104,1,2145.5,279309.39999997616,7091,jacket,AF,B,274590,274590,272760,273874,272762,274906,274390,274390,274906,54
53,test,1,inc,1,z,Wed Mar 26 2025 15:25:06 GMT-0500 (Central Daylight Time),283454.0,rock,900,O,z,z,None,546,347.0,199.0,46,1,1978.800000011921,281475.1999999881,7091,hate,AF,B,276556,276556,274926,275840,274928,276905,276356,276356,276905,55
54,test,1,inc,1,m,Wed Mar 26 2025 15:25:06 GMT-0500 (Central Daylight Time),285386.8000000119,elated,800,O,m,m,None,566,367.0,199.0,101,1,1913.6000000238419,283473.1999999881,7091,jacket,AF,B,278455,278456,276924,277739,276925,278838,278256,278256,278838,56
55,test,1,inc,1,z,Wed Mar 26 2025 15:25:06 GMT-0500 (Central Daylight Time),287553.0,remote,1000,O,z,z,None,601,386.0,215.0,31,1,2146.600000023842,285406.39999997616,7091,friend,AF,B,280605,280605,278857,279872,278859,281004,280389,280389,281004,57
56,test,1,inc,1,m,Wed Mar 26 2025 15:25:06 GMT-0500 (Central Daylight Time),289635.5,temper,1000,O,m,m,None,525,326.0,199.0,127,1,2062.199999988079,287573.3000000119,7091,window,AF,B,282754,282754,281024,282038,281026,283087,282554,282554,283087,58
57,test,1,con,1,z,Wed Mar 26 2025 15:25:06 GMT-0500 (Central Daylight Time),291950.89999997616,kind,1100,O,z,z,None,660,461.0,199.0,12,1,2296.099999964237,289654.8000000119,7091,kind,AF,B,284936,284937,283106,284220,283107,285402,284737,284737,285402,59
58,test,1,con,1,z,Wed Mar 26 2025 15:25:06 GMT-0500 (Central Daylight Time),294217.39999997616,love,1100,O,z,z,None,626,411.0,215.0,20,1,2255.099999964237,291962.3000000119,7091,love,AF,B,287252,287252,285413,286520,285414,287668,287037,287037,287668,60
59,test,1,inc,1,m,Wed Mar 26 2025 15:25:06 GMT-0500 (Central Daylight Time),296133.39999997616,rage,800,O,m,m,None,556,357.0,199.0,77,1,1895.699999988079,294237.6999999881,7091,rock,AF,B,289218,289218,287689,288502,287690,289585,289019,289019,289584,61
60,test,1,con,1,m,Wed Mar 26 2025 15:25:06 GMT-0500 (Central Daylight Time),298149.5,napkin,1000,O,m,m,None,455,256.0,199.0,107,1,1993.5,296156.0,7091,napkin,AF,B,291335,291335,289607,290618,289609,291601,291135,291135,291600,62
61,test,1,inc,1,z,Wed Mar 26 2025 15:25:06 GMT-0500 (Central Daylight Time),300314.89999997616,jacket,800,O,z,z,None,807,608.0,199.0,61,1,2143.599999964237,298171.3000000119,7091,temper,AF,B,293150,293151,291622,292434,291623,293766,292951,292951,293766,63
62,test,1,con,1,m,Wed Mar 26 2025 15:25:06 GMT-0500 (Central Daylight Time),302198.10000002384,jacket,800,O,m,m,None,538,339.0,199.0,97,1,1872.5,300325.60000002384,7091,jacket,AF,B,295300,295300,293777,294584,293777,295649,295100,295100,295649,64
63,test,1,con,1,z,Wed Mar 26 2025 15:25:06 GMT-0500 (Central Daylight Time),304564.0,hate,1100,O,z,z,None,699,500.0,199.0,44,1,2345.800000011921,302218.1999999881,7091,hate,AF,B,297499,297499,295669,296783,295671,298015,297299,297299,298015,65
64,test,1,inc,1,m,Wed Mar 26 2025 15:25:06 GMT-0500 (Central Daylight Time),306729.89999997616,kind,900,O,m,m,None,708,494.0,214.0,86,1,2145.0,304584.89999997616,7091,bell,AF,B,299681,299681,298036,298949,298037,300181,299466,299466,300181,66
65,test,1,con,1,m,Wed Mar 26 2025 15:25:06 GMT-0500 (Central Daylight Time),309395.6999999881,step,1100,O,m,m,None,1007,808.0,199.0,68,1,2644.699999988079,306751.0,7091,step,AF,B,302031,302031,300202,301315,300203,302847,301831,301831,302847,67
66,test,1,con,1,m,Wed Mar 26 2025 15:25:06 GMT-0500 (Central Daylight Time),311495.0,remote,1100,O,m,m,None,438,239.0,199.0,116,1,2078.899999976158,309416.10000002384,7091,remote,AF,B,304697,304697,302867,303980,302869,304946,304497,304497,304946,68
67,test,1,con,1,m,Wed Mar 26 2025 15:25:06 GMT-0500 (Central Daylight Time),313277.60000002384,film,800,O,m,m,None,421,206.0,215.0,89,1,1762.300000011921,311515.3000000119,7091,film,AF,B,306513,306513,304966,305780,304968,306729,306297,306297,306729,69
68,test,1,inc,1,m,Wed Mar 26 2025 15:25:06 GMT-0500 (Central Daylight Time),315460.5,kind,900,O,m,m,None,715,516.0,199.0,78,1,2160.0,313300.5,7091,rock,AF,B,308379,308379,306752,307663,306752,308912,308179,308179,308912,70
69,test,1,inc,1,m,Wed Mar 26 2025 15:25:06 GMT-0500 (Central Daylight Time),317959.39999997616,rage,800,O,m,m,None,1137,938.0,199.0,93,1,2478.5,315480.89999997616,7091,film,AF,B,310461,310461,308932,309745,308933,311411,310262,310262,311410,71
70,test,1,con,1,m,Wed Mar 26 2025 15:25:06 GMT-0500 (Central Daylight Time),319909.1999999881,remote,800,O,m,m,None,598,399.0,199.0,113,1,1930.0,317979.1999999881,7091,remote,AF,B,312960,312961,311430,312244,311432,313360,312761,312761,313360,72
71,test,1,inc,1,z,Wed Mar 26 2025 15:25:06 GMT-0500 (Central Daylight Time),322075.0,napkin,900,O,z,z,None,708,493.0,215.0,62,1,2145.699999988079,319929.3000000119,7091,temper,AF,B,315027,315027,313380,314294,313382,315526,314811,314811,315526,73
72,test,1,con,1,z,Wed Mar 26 2025 15:25:06 GMT-0500 (Central Daylight Time),324090.89999997616,brutal,1100,O,z,z,None,366,166.0,200.0,36,1,1995.5999999642372,322095.3000000119,7091,brutal,AF,B,317360,317361,315546,316658,315548,317542,317160,317160,317542,74
73,test,1,inc,1,m,Wed Mar 26 2025 15:25:06 GMT-0500 (Central Daylight Time),325957.0,rage,800,O,m,m,None,506,307.0,199.0,85,1,1845.5,324111.5,7091,bell,AF,B,319092,319092,317563,318376,317564,319408,318892,318892,319408,75
74,test,1,con,1,m,Wed Mar 26 2025 15:25:06 GMT-0500 (Central Daylight Time),327957.0,window,1000,O,m,m,None,448,249.0,199.0,123,1,1979.8999999761581,325977.10000002384,7091,window,AF,B,321158,321158,319428,320442,319430,321408,320958,320958,321408,76
75,test,1,inc,1,z,Wed Mar 26 2025 15:25:06 GMT-0500 (Central Daylight Time),329955.6999999881,rock,900,O,z,z,None,533,334.0,199.0,54,1,1977.300000011921,327978.39999997616,7091,rage,AF,B,323057,323057,321429,322341,321431,323407,322858,322858,323407,77
76,test,1,inc,1,z,Wed Mar 26 2025 15:25:06 GMT-0500 (Central Daylight Time),331838.10000002384,step,800,O,z,z,None,529,330.0,199.0,21,1,1862.2000000476837,329975.89999997616,7091,love,AF,B,324957,324957,323427,324240,323429,325289,324757,324757,325289,78
77,test,1,con,1,m,Wed Mar 26 2025 15:25:06 GMT-0500 (Central Daylight Time),334104.39999997616,window,800,O,m,m,None,912,713.0,199.0,121,1,2245.899999976158,331858.5,7091,window,AF,B,326839,326839,325310,326123,325311,327556,326640,326640,327555,79
78,test,1,inc,1,z,Wed Mar 26 2025 15:25:06 GMT-0500 (Central Daylight Time),336586.60000002384,film,1100,O,z,z,None,825,625.0,200.0,48,1,2461.600000023842,334125.0,7091,hate,AF,B,329405,329405,327576,328689,327578,330038,329205,329205,330038,80
79,test,1,inc,1,m,Wed Mar 26 2025 15:25:06 GMT-0500 (Central Daylight Time),339253.0,temper,1000,O,m,m,None,1114,915.0,199.0,119,1,2646.5,336606.5,7091,remote,AF,B,331788,331788,330058,331071,330059,332704,331588,331588,332704,81
80,test,1,inc,1,z,Wed Mar 26 2025 15:25:06 GMT-0500 (Central Daylight Time),341368.60000002384,window,1100,O,z,z,None,460,261.0,199.0,32,1,2096.5,339272.10000002384,7091,friend,AF,B,334554,334554,332723,333837,332724,334820,334354,334354,334820,82
81,test,1,con,1,z,Wed Mar 26 2025 15:25:06 GMT-0500 (Central Daylight Time),343251.39999997616,kind,800,O,z,z,None,524,325.0,199.0,9,1,1862.199999988079,341389.1999999881,7091,kind,AF,B,336370,336370,334840,335653,334842,336703,336170,336170,336702,83
82,test,1,con,1,m,Wed Mar 26 2025 15:25:06 GMT-0500 (Central Daylight Time),345399.89999997616,jacket,1100,O,m,m,None,485,270.0,215.0,100,1,2127.0,343272.89999997616,7091,jacket,AF,B,338569,338569,336724,337836,336726,338851,338353,338353,338851,84
83,test,1,inc,1,m,Wed Mar 26 2025 15:25:06 GMT-0500 (Central Daylight Time),347549.89999997616,love,1000,O,m,m,None,605,406.0,199.0,87,1,2139.0,345410.89999997616,7091,bell,AF,B,340585,340585,338862,339869,338863,341001,340385,340385,341001,85
84,test,1,con,1,m,Wed Mar 26 2025 15:25:06 GMT-0500 (Central Daylight Time),350049.10000002384,step,900,O,m,m,None,1043,844.0,199.0,66,1,2480.300000011921,347568.8000000119,7091,step,AF,B,342651,342651,341020,341935,341021,343500,342451,342451,343500,86
85,test,1,con,1,z,Wed Mar 26 2025 15:25:06 GMT-0500 (Central Daylight Time),352248.39999997616,hate,900,O,z,z,None,743,528.0,215.0,42,1,2179.099999964237,350069.3000000119,7091,hate,AF,B,345167,345167,343520,344434,343522,345700,344951,344951,345699,87
86,test,1,con,1,m,Wed Mar 26 2025 15:25:06 GMT-0500 (Central Daylight Time),354264.5,step,800,O,m,m,None,652,453.0,199.0,65,1,1998.5,352266.0,7091,step,AF,B,347250,347250,345717,346533,345718,347716,347050,347050,347716,88
87,test,1,inc,1,z,Wed Mar 26 2025 15:25:06 GMT-0500 (Central Daylight Time),357280.10000002384,remote,1000,O,z,z,None,1461,1262.0,199.0,63,1,2994.7000000476837,354285.39999997616,7091,temper,AF,B,349466,349466,347736,348749,347738,350731,349266,349266,350731,89
88,test,1,con,1,m,Wed Mar 26 2025 15:25:06 GMT-0500 (Central Daylight Time),359429.8000000119,bell,1000,O,m,m,None,598,398.0,200.0,83,1,2129.900000035763,357299.89999997616,7091,bell,AF,B,352481,352482,350751,351765,350753,352881,352281,352281,352881,90
89,test,1,inc,1,m,Wed Mar 26 2025 15:25:06 GMT-0500 (Central Daylight Time),361562.0,love,1000,O,m,m,None,576,376.0,200.0,71,1,2111.300000011921,359450.6999999881,7091,step,AF,B,354630,354631,352902,353914,352903,355013,354430,354430,355013,91
90,test,1,con,1,m,Wed Mar 26 2025 15:25:06 GMT-0500 (Central Daylight Time),363644.6999999881,window,1100,O,m,m,None,416,217.0,199.0,124,1,2062.199999988079,361582.5,7091,window,AF,B,356863,356863,355034,356147,355035,357096,356663,356663,357096,92
91,test,1,con,1,z,Wed Mar 26 2025 15:25:06 GMT-0500 (Central Daylight Time),365544.0,rage,900,O,z,z,None,437,238.0,199.0,50,1,1879.8999999761581,363664.10000002384,7091,rage,AF,B,358745,358745,357115,358029,357116,358995,358546,358546,358995,93
92,test,1,inc,1,z,Wed Mar 26 2025 15:25:06 GMT-0500 (Central Daylight Time),367810.10000002384,bell,1000,O,z,z,None,701,502.0,199.0,55,1,2246.7000000476837,365563.39999997616,7091,rage,AF,B,360745,360745,359014,360029,359016,361261,360545,360545,361261,94
93,test,1,con,1,m,Wed Mar 26 2025 15:25:06 GMT-0500 (Central Daylight Time),370092.89999997616,bell,1100,O,m,m,None,631,432.0,199.0,84,1,2263.0,367829.89999997616,7091,bell,AF,B,363111,363111,361281,362395,361282,363544,362911,362911,363544,95
94,test,1,con,1,z,Wed Mar 26 2025 15:25:06 GMT-0500 (Central Daylight Time),371808.60000002384,brutal,800,O,z,z,None,352,153.0,199.0,33,1,1696.5,370112.10000002384,7091,brutal,AF,B,365093,365094,363563,364377,363564,365260,364894,364894,365260,96
94,test,1,inc,0,z,Wed Mar 26 2025 15:25:06 GMT-0500 (Central Daylight Time),373691.39999997616,step,800,O,m,m,None,516,317.0,199.0,45,1,1863.0,371828.39999997616,7091,hate,AF,B,366810,366810,365279,366093,365281,367142,366610,366610,367142,97
95,test,1,inc,1,m,Wed Mar 26 2025 15:25:06 GMT-0500 (Central Daylight Time),376007.10000002384,friend,1100,O,m,m,None,662,463.0,199.0,128,1,2295.800000011921,373711.3000000119,7091,window,AF,B,368992,368992,367162,368276,367163,369458,368792,368792,369458,98
96,test,1,inc,1,m,Wed Mar 26 2025 15:25:06 GMT-0500 (Central Daylight Time),377973.3000000119,elated,800,O,m,m,None,615,400.0,215.0,109,1,1941.4000000357628,376031.89999997616,7091,napkin,AF,B,371024,371024,369483,370292,369485,371424,370809,370809,371424,99
97,test,1,con,1,m,Wed Mar 26 2025 15:25:06 GMT-0500 (Central Daylight Time),379806.0,film,900,O,m,m,None,371,156.0,215.0,90,1,1813.199999988079,377992.8000000119,7091,film,AF,B,373091,373091,371444,372358,371446,373257,372874,372875,373257,100
98,test,1,con,1,m,Wed Mar 26 2025 15:25:06 GMT-0500 (Central Daylight Time),381788.39999997616,rock,1000,O,m,m,None,423,224.0,199.0,75,1,1962.8999999761581,379825.5,7091,rock,AF,B,375007,375007,373277,374291,373278,375240,374807,374807,375239,101
98,test,1,con,0,z,Wed Mar 26 2025 15:25:06 GMT-0500 (Central Daylight Time),383488.0,friend,800,O,m,m,None,336,137.0,199.0,25,1,1678.800000011921,381809.1999999881,7091,friend,AF,B,376790,376790,375260,376073,375262,376939,376590,376590,376939,102
98,test,1,con,0,z,Wed Mar 26 2025 15:25:06 GMT-0500 (Central Daylight Time),385520.5,temper,1000,O,m,m,None,494,295.0,199.0,59,1,2020.3999999761581,383500.10000002384,7091,temper,AF,B,378672,378672,376951,377956,376952,378972,378473,378473,378972,103
98,test,1,con,0,z,Wed Mar 26 2025 15:25:06 GMT-0500 (Central Daylight Time),387420.10000002384,temper,900,O,m,m,None,440,241.0,199.0,58,1,1879.300000011921,385540.8000000119,7091,temper,AF,B,380622,380622,378992,379905,378993,380871,380422,380422,380871,104
99,test,1,inc,1,z,Wed Mar 26 2025 15:25:06 GMT-0500 (Central Daylight Time),389769.39999997616,film,1100,O,z,z,None,686,487.0,199.0,56,1,2329.5,387439.89999997616,7091,rage,AF,B,382721,382721,380891,382005,380892,383221,382521,382521,383220,105
100,test,1,con,1,m,Wed Mar 26 2025 15:25:06 GMT-0500 (Central Daylight Time),391735.5,remote,900,O,m,m,None,511,296.0,215.0,114,1,1943.8999999761581,389791.60000002384,7091,remote,AF,B,384887,384887,383243,384154,383243,385187,384671,384671,385186,106
101,test,1,con,1,m,Wed Mar 26 2025 15:25:06 GMT-0500 (Central Daylight Time),393984.5,film,1100,O,m,m,None,594,395.0,199.0,92,1,2228.600000023842,391755.89999997616,7091,film,AF,B,387036,387036,385207,386320,385208,387436,386837,386837,387435,107
102,test,1,inc,1,m,Wed Mar 26 2025 15:25:06 GMT-0500 (Central Daylight Time),395983.5,elated,800,O,m,m,None,637,437.0,200.0,125,1,1979.0,394004.5,7091,window,AF,B,388985,388986,387456,388269,387457,389435,388785,388785,389434,108
103,test,1,inc,1,m,Wed Mar 26 2025 15:25:06 GMT-0500 (Central Daylight Time),397916.39999997616,brutal,900,O,m,m,None,481,266.0,215.0,126,1,1921.199999988079,395995.1999999881,7091,window,AF,B,391085,391085,389446,390352,389447,391368,390869,390869,391367,109
104,test,1,con,1,m,Wed Mar 26 2025 15:25:06 GMT-0500 (Central Daylight Time),399699.39999997616,rock,800,O,m,m,None,424,225.0,199.0,73,1,1763.0,397936.39999997616,7091,rock,AF,B,392918,392918,391387,392202,391390,393151,392718,392718,393150,110
105,test,1,inc,1,z,Wed Mar 26 2025 15:25:06 GMT-0500 (Central Daylight Time),401831.89999997616,remote,1000,O,z,z,None,571,372.0,199.0,7,1,2112.699999988079,399719.1999999881,7091,elated,AF,B,394900,394900,393170,394184,393172,395283,394701,394701,395283,111
105,test,1,con,0,z,Wed Mar 26 2025 15:25:06 GMT-0500 (Central Daylight Time),403581.3000000119,love,800,O,m,m,None,396,181.0,215.0,17,1,1728.9000000357628,401852.39999997616,7091,love,AF,B,396850,396850,395303,396116,395305,397032,396634,396634,397032,112
106,test,1,con,1,z,Wed Mar 26 2025 15:25:06 GMT-0500 (Central Daylight Time),405380.8000000119,temper,800,O,z,z,None,440,241.0,199.0,57,1,1778.800000011921,403602.0,7091,temper,AF,B,398582,398582,397053,397866,397055,398832,398383,398383,398832,113
107,test,1,inc,1,z,Wed Mar 26 2025 15:25:06 GMT-0500 (Central Daylight Time),407397.1999999881,napkin,900,O,z,z,None,566,367.0,199.0,38,1,1996.5999999642372,405400.60000002384,7091,brutal,AF,B,400481,400481,398852,399765,398853,400848,400282,400282,400848,114
108,test,1,con,1,z,Wed Mar 26 2025 15:25:06 GMT-0500 (Central Daylight Time),409245.8000000119,brutal,900,O,z,z,None,396,197.0,199.0,34,1,1829.0,407416.8000000119,7091,brutal,AF,B,402498,402498,400868,401782,400869,402697,402298,402298,402697,115
109,test,1,con,1,m,Wed Mar 26 2025 15:25:06 GMT-0500 (Central Daylight Time),411445.39999997616,rock,1100,O,m,m,None,538,323.0,215.0,76,1,2181.2999999523163,409264.10000002384,7091,rock,AF,B,404564,404564,402715,403831,402716,404896,404348,404348,404896,116
110,test,1,con,1,z,Wed Mar 26 2025 15:25:06 GMT-0500 (Central Daylight Time),413261.60000002384,hate,800,O,z,z,None,464,265.0,199.0,41,1,1795.5,411466.10000002384,7091,hate,AF,B,406447,406447,404917,405730,404919,406713,406247,406247,406713,117
111,test,1,inc,1,m,Wed Mar 26 2025 15:25:06 GMT-0500 (Central Daylight Time),415460.8000000119,temper,1000,O,m,m,None,639,440.0,199.0,111,1,2179.199999988079,413281.60000002384,7091,napkin,AF,B,408462,408463,406733,407746,406734,408912,408263,408263,408912,118
112,test,1,inc,1,z,Wed Mar 26 2025 15:25:06 GMT-0500 (Central Daylight Time),417726.8000000119,film,1100,O,z,z,None,604,405.0,199.0,16,1,2246.100000023842,415480.6999999881,7091,kind,AF,B,410762,410762,408932,410046,408933,411178,410562,410562,411178,119
113,test,1,inc,1,m,Wed Mar 26 2025 15:25:06 GMT-0500 (Central Daylight Time),419826.10000002384,brutal,900,O,m,m,None,642,443.0,199.0,110,1,2077.2000000476837,417748.89999997616,7091,napkin,AF,B,412828,412828,411200,412112,411202,413277,412628,412628,413277,120
114,test,1,con,1,m,Wed Mar 26 2025 15:25:06 GMT-0500 (Central Daylight Time),422391.8000000119,bell,800,O,m,m,None,1212,1013.0,199.0,81,1,2545.600000023842,419846.1999999881,7091,bell,AF,B,414827,414827,413297,414111,413299,415843,414627,414627,415843,121
115,test,1,con,1,m,Wed Mar 26 2025 15:25:06 GMT-0500 (Central Daylight Time),424724.39999997616,jacket,1000,O,m,m,None,765,566.0,199.0,99,1,2307.5,422416.89999997616,7091,jacket,AF,B,417593,417593,415868,416877,415870,418176,417393,417393,418175,122
116,test,1,inc,1,z,Wed Mar 26 2025 15:25:06 GMT-0500 (Central Daylight Time),426657.39999997616,jacket,800,O,z,z,None,577,378.0,199.0,29,1,1912.8999999761581,424744.5,7091,friend,AF,B,419725,419725,418196,419009,418197,420109,419526,419526,420108,123
117,test,1,con,1,z,Wed Mar 26 2025 15:25:06 GMT-0500 (Central Daylight Time),428389.6999999881,rage,800,O,z,z,None,371,156.0,215.0,49,1,1712.0,426677.6999999881,7091,rage,AF,B,421675,421675,420129,420942,420130,421841,421459,421459,421841,124
118,test,1,inc,1,z,Wed Mar 26 2025 15:25:06 GMT-0500 (Central Daylight Time),430406.0,rock,900,O,z,z,None,555,356.0,199.0,14,1,1996.800000011921,428409.1999999881,7091,kind,AF,B,423491,423491,421860,422775,421862,423857,423291,423291,423857,125
119,test,1,con,1,z,Wed Mar 26 2025 15:25:06 GMT-0500 (Central Daylight Time),432272.0,brutal,1000,O,z,z,None,303,104.0,199.0,35,1,1846.0,430426.0,7091,brutal,AF,B,425607,425607,423877,424891,423879,425723,425407,425407,425723,126
120,test,1,inc,1,m,Wed Mar 26 2025 15:25:06 GMT-0500 (Central Daylight Time),434288.0,love,1000,O,m,m,None,462,262.0,200.0,95,1,1995.199999988079,432292.8000000119,7091,film,AF,B,427473,427473,425744,426757,425745,427739,427273,427273,427739,127
121,test,1,inc,1,z,Wed Mar 26 2025 15:25:06 GMT-0500 (Central Daylight Time),436287.1999999881,step,800,O,z,z,None,646,447.0,199.0,13,1,1978.5999999642372,434308.60000002384,7091,kind,AF,B,429289,429289,427760,428573,427761,429738,429089,429089,429738,128
