acc_sum,block,block_c,change,condition,correct,correct_response,datetime,endtime,face,project,response,response_time,row_sel,session_number,start_end,starttime,subject_id,task,task_vers,trial
0,prac,1,,1-Back,,,Mon May 05 2025 09:53:02 GMT-0500 (Central Daylight Time),,012_o_f_d_a.png,O,space,5067,1,1,,,7146,VNB,C,0
0,prac,1,0.0,1-Back,0,m,Mon May 05 2025 09:53:02 GMT-0500 (Central Daylight Time),130226.19999998808,022_y_f_n_a.png,O,z,1280,2,1,2194.399999976158,128031.80000001192,7146,VNB,C,1
1,prac,1,0.0,1-Back,1,m,Mon May 05 2025 09:53:02 GMT-0500 (Central Daylight Time),132708.90000003576,014_m_m_h_a.png,O,m,1598,3,1,2449.300000011921,130259.60000002384,7146,VNB,C,2
2,prac,1,0.0,1-Back,1,m,Mon May 05 2025 09:53:02 GMT-0500 (Central Daylight Time),134740.19999998808,025_y_m_d_a.png,O,m,1150,4,1,1998.5,132741.69999998808,7146,VNB,C,3
3,prac,1,0.0,1-Back,1,m,Mon May 05 2025 09:53:02 GMT-0500 (Central Daylight Time),136555.5,012_o_f_n_a.png,O,m,905,5,1,1780.699999988079,134774.80000001192,7146,VNB,C,4
4,prac,1,1.0,1-Back,1,z,Mon May 05 2025 09:53:02 GMT-0500 (Central Daylight Time),138439.30000001192,025_y_m_n_a.png,O,z,986,6,1,1850.8999999761581,136588.40000003576,7146,VNB,C,5
5,prac,1,0.0,1-Back,1,m,Mon May 05 2025 09:53:02 GMT-0500 (Central Daylight Time),140089.0,015_o_m_h_a.png,O,m,733,7,1,1617.199999988079,138471.80000001192,7146,VNB,C,6
5,prac,1,0.0,1-Back,0,m,Mon May 05 2025 09:53:02 GMT-0500 (Central Daylight Time),142086.80000001192,019_m_f_d_a.png,O,z,1077,8,1,1965.699999988079,140121.10000002384,7146,VNB,C,7
6,prac,1,1.0,1-Back,1,z,Mon May 05 2025 09:53:02 GMT-0500 (Central Daylight Time),144204.10000002384,022_y_f_d_a.png,O,z,1199,9,1,2084.100000023842,142120.0,7146,VNB,C,8
7,prac,1,0.0,1-Back,1,m,Mon May 05 2025 09:53:02 GMT-0500 (Central Daylight Time),145787.40000003576,014_m_m_n_a.png,O,m,688,10,1,1551.9000000357628,144235.5,7146,VNB,C,9
7,prac,1,0.0,1-Back,0,m,Mon May 05 2025 09:53:02 GMT-0500 (Central Daylight Time),147636.40000003576,012_o_f_h_a.png,O,z,946,11,1,1815.9000000357628,145820.5,7146,VNB,C,10
7,prac,1,0.0,1-Back,0,m,Mon May 05 2025 09:53:02 GMT-0500 (Central Daylight Time),149852.19999998808,025_y_m_d_a.png,O,z,1332,12,1,2184.0,147668.19999998808,7146,VNB,C,11
0,prac,2,0.0,1-Back,,,Mon May 05 2025 09:53:02 GMT-0500 (Central Daylight Time),149852.19999998808,012_o_f_d_a.png,O,a,10665,1,1,2184.0,147668.19999998808,7146,VNB,C,0
1,prac,2,0.0,1-Back,1,m,Mon May 05 2025 09:53:02 GMT-0500 (Central Daylight Time),165596.80000001192,022_y_f_n_a.png,O,m,1112,2,1,1989.3999999761581,163607.40000003576,7146,VNB,C,1
2,prac,2,0.0,1-Back,1,m,Mon May 05 2025 09:53:02 GMT-0500 (Central Daylight Time),167395.40000003576,014_m_m_h_a.png,O,m,894,3,1,1764.7000000476837,165630.69999998808,7146,VNB,C,2
3,prac,2,0.0,1-Back,1,m,Mon May 05 2025 09:53:02 GMT-0500 (Central Daylight Time),169314.40000003576,025_y_m_d_a.png,O,m,1120,4,1,1886.7000000476837,167427.69999998808,7146,VNB,C,3
4,prac,2,0.0,1-Back,1,m,Mon May 05 2025 09:53:02 GMT-0500 (Central Daylight Time),171111.60000002384,012_o_f_n_a.png,O,m,883,5,1,1763.9000000357628,169347.69999998808,7146,VNB,C,4
4,prac,2,1.0,1-Back,0,z,Mon May 05 2025 09:53:02 GMT-0500 (Central Daylight Time),173361.60000002384,025_y_m_n_a.png,O,m,1369,6,1,2218.699999988079,171142.90000003576,7146,VNB,C,5
5,prac,2,0.0,1-Back,1,m,Mon May 05 2025 09:53:02 GMT-0500 (Central Daylight Time),175327.40000003576,015_o_m_h_a.png,O,m,1050,7,1,1931.9000000357628,173395.5,7146,VNB,C,6
6,prac,2,0.0,1-Back,1,m,Mon May 05 2025 09:53:02 GMT-0500 (Central Daylight Time),177476.10000002384,019_m_f_d_a.png,O,m,1235,8,1,2115.400000035763,175360.69999998808,7146,VNB,C,7
7,prac,2,1.0,1-Back,1,z,Mon May 05 2025 09:53:02 GMT-0500 (Central Daylight Time),179126.0,022_y_f_d_a.png,O,z,730,9,1,1616.5999999642372,177509.40000003576,7146,VNB,C,8
8,prac,2,0.0,1-Back,1,m,Mon May 05 2025 09:53:02 GMT-0500 (Central Daylight Time),180826.60000002384,014_m_m_n_a.png,O,m,814,10,1,1668.800000011921,179157.80000001192,7146,VNB,C,9
9,prac,2,0.0,1-Back,1,m,Mon May 05 2025 09:53:02 GMT-0500 (Central Daylight Time),182626.80000001192,012_o_f_h_a.png,O,m,886,11,1,1767.3999999761581,180859.40000003576,7146,VNB,C,10
10,prac,2,0.0,1-Back,1,m,Mon May 05 2025 09:53:02 GMT-0500 (Central Daylight Time),184908.69999998808,025_y_m_d_a.png,O,m,1396,12,1,2249.199999988079,182659.5,7146,VNB,C,11
0,test,1,0.0,1-Back,,,Mon May 05 2025 09:53:02 GMT-0500 (Central Daylight Time),184908.69999998808,022_y_f_d_a.png,O,space,5269,1,1,2249.199999988079,182659.5,7146,VNB,C,0
1,test,1,0.0,1-Back,1,m,Mon May 05 2025 09:53:02 GMT-0500 (Central Daylight Time),200153.5,019_m_f_n_a.png,O,m,827,2,1,1851.5999999642372,198301.90000003576,7146,VNB,C,1
2,test,1,0.0,1-Back,1,m,Mon May 05 2025 09:53:02 GMT-0500 (Central Daylight Time),202166.90000003576,015_o_m_h_a.png,O,m,961,3,1,1981.300000011921,200185.60000002384,7146,VNB,C,2
3,test,1,1.0,1-Back,1,z,Mon May 05 2025 09:53:02 GMT-0500 (Central Daylight Time),203901.30000001192,014_m_m_h_a.png,O,z,690,4,1,1706.1000000238419,202195.19999998808,7146,VNB,C,3
4,test,1,0.0,1-Back,1,m,Mon May 05 2025 09:53:02 GMT-0500 (Central Daylight Time),205619.10000002384,012_o_f_n_a.png,O,m,667,5,1,1686.5,203932.60000002384,7146,VNB,C,4
5,test,1,0.0,1-Back,1,m,Mon May 05 2025 09:53:02 GMT-0500 (Central Daylight Time),207716.0,025_y_m_d_a.png,O,m,1046,6,1,2066.699999988079,205649.30000001192,7146,VNB,C,5
6,test,1,1.0,1-Back,1,z,Mon May 05 2025 09:53:02 GMT-0500 (Central Daylight Time),209798.0,019_m_f_d_a.png,O,z,1042,7,1,2049.399999976158,207748.60000002384,7146,VNB,C,6
7,test,1,0.0,1-Back,1,m,Mon May 05 2025 09:53:02 GMT-0500 (Central Daylight Time),211515.40000003576,022_y_f_h_a.png,O,m,654,8,1,1678.9000000357628,209836.5,7146,VNB,C,7
8,test,1,0.0,1-Back,1,m,Mon May 05 2025 09:53:02 GMT-0500 (Central Daylight Time),213232.19999998808,015_o_m_n_a.png,O,m,668,9,1,1686.0,211546.19999998808,7146,VNB,C,8
9,test,1,0.0,1-Back,1,m,Mon May 05 2025 09:53:02 GMT-0500 (Central Daylight Time),215031.0,025_y_m_h_a.png,O,m,752,10,1,1767.3999999761581,213263.60000002384,7146,VNB,C,9
10,test,1,0.0,1-Back,1,m,Mon May 05 2025 09:53:02 GMT-0500 (Central Daylight Time),216711.90000003576,015_o_m_d_a.png,O,m,640,11,1,1651.9000000357628,215060.0,7146,VNB,C,10
11,test,1,1.0,1-Back,1,z,Mon May 05 2025 09:53:02 GMT-0500 (Central Daylight Time),218581.30000001192,012_o_f_d_a.png,O,z,832,12,1,1840.3999999761581,216740.90000003576,7146,VNB,C,11
12,test,1,0.0,1-Back,1,m,Mon May 05 2025 09:53:02 GMT-0500 (Central Daylight Time),220943.90000003576,014_m_m_n_a.png,O,m,1310,13,1,2332.600000023842,218611.30000001192,7146,VNB,C,12
13,test,1,1.0,1-Back,1,z,Mon May 05 2025 09:53:02 GMT-0500 (Central Daylight Time),222810.60000002384,022_y_f_n_a.png,O,z,825,14,1,1838.0,220972.60000002384,7146,VNB,C,13
14,test,1,0.0,1-Back,1,m,Mon May 05 2025 09:53:02 GMT-0500 (Central Daylight Time),224862.10000002384,019_m_f_h_a.png,O,m,989,15,1,2018.6000000238419,222843.5,7146,VNB,C,14
15,test,1,0.0,1-Back,1,m,Mon May 05 2025 09:53:02 GMT-0500 (Central Daylight Time),227243.90000003576,014_m_m_d_a.png,O,m,1338,16,1,2352.400000035763,224891.5,7146,VNB,C,15
16,test,1,0.0,1-Back,1,m,Mon May 05 2025 09:53:02 GMT-0500 (Central Daylight Time),228958.90000003576,025_y_m_n_a.png,O,m,667,17,1,1685.9000000357628,227273.0,7146,VNB,C,16
17,test,1,0.0,1-Back,1,m,Mon May 05 2025 09:53:02 GMT-0500 (Central Daylight Time),230608.30000001192,012_o_f_h_a.png,O,m,583,18,1,1614.6000000238419,228993.69999998808,7146,VNB,C,17
0,test,2,0.0,1-Back,,,Mon May 05 2025 09:53:02 GMT-0500 (Central Daylight Time),230608.30000001192,025_y_m_n_a.png,O,space,4083,1,1,1614.6000000238419,228993.69999998808,7146,VNB,C,0
1,test,2,0.0,1-Back,1,m,Mon May 05 2025 09:53:02 GMT-0500 (Central Daylight Time),238459.80000001192,022_y_f_h_a.png,O,m,717,2,1,1722.300000011921,236737.5,7146,VNB,C,1
2,test,2,1.0,1-Back,1,m,Mon May 05 2025 09:53:02 GMT-0500 (Central Daylight Time),240640.10000002384,015_o_m_n_a.png,O,m,1126,3,1,2149.5,238490.60000002384,7146,VNB,C,2
3,test,2,0.0,1-Back,1,m,Mon May 05 2025 09:53:02 GMT-0500 (Central Daylight Time),242689.40000003576,019_m_f_d_a.png,O,m,999,4,1,2017.5,240671.90000003576,7146,VNB,C,3
4,test,2,0.0,1-Back,1,z,Mon May 05 2025 09:53:02 GMT-0500 (Central Daylight Time),244655.30000001192,014_m_m_d_a.png,O,z,909,5,1,1932.3999999761581,242722.90000003576,7146,VNB,C,4
5,test,2,0.0,1-Back,1,m,Mon May 05 2025 09:53:02 GMT-0500 (Central Daylight Time),246489.5,025_y_m_h_a.png,O,m,793,6,1,1803.699999988079,244685.80000001192,7146,VNB,C,5
6,test,2,1.0,1-Back,1,z,Mon May 05 2025 09:53:02 GMT-0500 (Central Daylight Time),248270.90000003576,012_o_f_h_a.png,O,z,728,7,1,1748.6000000238419,246522.30000001192,7146,VNB,C,6
7,test,2,0.0,1-Back,1,m,Mon May 05 2025 09:53:02 GMT-0500 (Central Daylight Time),250003.40000003576,019_m_f_n_a.png,O,m,672,8,1,1698.9000000357628,248304.5,7146,VNB,C,7
8,test,2,0.0,1-Back,1,m,Mon May 05 2025 09:53:02 GMT-0500 (Central Daylight Time),251953.30000001192,022_y_f_d_a.png,O,m,884,9,1,1920.800000011921,250032.5,7146,VNB,C,8
9,test,2,0.0,1-Back,1,m,Mon May 05 2025 09:53:02 GMT-0500 (Central Daylight Time),253902.69999998808,014_m_m_n_a.png,O,m,902,10,1,1921.5,251981.19999998808,7146,VNB,C,9
9,test,2,1.0,1-Back,0,m,Mon May 05 2025 09:53:02 GMT-0500 (Central Daylight Time),255669.0,019_m_f_h_a.png,O,z,700,11,1,1733.0999999642372,253935.90000003576,7146,VNB,C,10
10,test,2,0.0,1-Back,1,z,Mon May 05 2025 09:53:02 GMT-0500 (Central Daylight Time),257284.40000003576,015_o_m_h_a.png,O,z,555,12,1,1581.800000011921,255702.60000002384,7146,VNB,C,11
11,test,2,0.0,1-Back,1,m,Mon May 05 2025 09:53:02 GMT-0500 (Central Daylight Time),258984.80000001192,025_y_m_d_a.png,O,m,654,13,1,1666.800000011921,257318.0,7146,VNB,C,12
11,test,2,0.0,1-Back,0,m,Mon May 05 2025 09:53:02 GMT-0500 (Central Daylight Time),261099.90000003576,012_o_f_n_a.png,O,z,1058,14,1,2083.0,259016.90000003576,7146,VNB,C,13
12,test,2,0.0,1-Back,1,z,Mon May 05 2025 09:53:02 GMT-0500 (Central Daylight Time),262783.10000002384,022_y_f_n_a.png,O,z,636,15,1,1651.6000000238419,261131.5,7146,VNB,C,14
13,test,2,1.0,1-Back,1,m,Mon May 05 2025 09:53:02 GMT-0500 (Central Daylight Time),264681.60000002384,014_m_m_h_a.png,O,m,841,16,1,1865.6000000238419,262816.0,7146,VNB,C,15
14,test,2,0.0,1-Back,1,m,Mon May 05 2025 09:53:02 GMT-0500 (Central Daylight Time),266516.60000002384,012_o_f_d_a.png,O,m,799,17,1,1801.5,264715.10000002384,7146,VNB,C,16
15,test,2,1.0,1-Back,1,z,Mon May 05 2025 09:53:02 GMT-0500 (Central Daylight Time),268514.1999999881,015_o_m_d_a.png,O,z,942,18,1,1968.5,266545.6999999881,7146,VNB,C,17
0,test,3,1.0,1-Back,,,Mon May 05 2025 09:53:02 GMT-0500 (Central Daylight Time),268514.1999999881,012_o_f_h_a.png,O,space,3143,1,1,1968.5,266545.6999999881,7146,VNB,C,0
1,test,3,0.0,1-Back,1,m,Mon May 05 2025 09:53:02 GMT-0500 (Central Daylight Time),275578.60000002384,019_m_f_d_a.png,O,m,733,2,1,1765.9000000357628,273812.6999999881,7146,VNB,C,1
2,test,3,1.0,1-Back,1,m,Mon May 05 2025 09:53:02 GMT-0500 (Central Daylight Time),277894.10000002384,014_m_m_n_a.png,O,m,1278,3,1,2283.900000035763,275610.1999999881,7146,VNB,C,2
3,test,3,0.0,1-Back,1,z,Mon May 05 2025 09:53:02 GMT-0500 (Central Daylight Time),279775.10000002384,012_o_f_n_a.png,O,z,832,4,1,1853.0,277922.10000002384,7146,VNB,C,3
4,test,3,1.0,1-Back,1,m,Mon May 05 2025 09:53:02 GMT-0500 (Central Daylight Time),281811.1999999881,015_o_m_d_a.png,O,m,982,5,1,2006.3999999761581,279804.8000000119,7146,VNB,C,4
5,test,3,0.0,1-Back,1,m,Mon May 05 2025 09:53:02 GMT-0500 (Central Daylight Time),283758.10000002384,022_y_f_h_a.png,O,m,896,6,1,1913.4000000357628,281844.6999999881,7146,VNB,C,5
6,test,3,0.0,1-Back,1,z,Mon May 05 2025 09:53:02 GMT-0500 (Central Daylight Time),285358.10000002384,025_y_m_h_a.png,O,z,561,7,1,1570.6000000238419,283787.5,7146,VNB,C,6
7,test,3,0.0,1-Back,1,m,Mon May 05 2025 09:53:02 GMT-0500 (Central Daylight Time),287042.5,019_m_f_n_a.png,O,m,633,8,1,1652.699999988079,285389.8000000119,7146,VNB,C,7
8,test,3,0.0,1-Back,1,m,Mon May 05 2025 09:53:02 GMT-0500 (Central Daylight Time),288874.60000002384,022_y_f_d_a.png,O,m,774,9,1,1799.199999988079,287075.40000003576,7146,VNB,C,8
9,test,3,1.0,1-Back,1,m,Mon May 05 2025 09:53:02 GMT-0500 (Central Daylight Time),290724.0,015_o_m_n_a.png,O,m,789,10,1,1816.0,288908.0,7146,VNB,C,9
10,test,3,0.0,1-Back,1,m,Mon May 05 2025 09:53:02 GMT-0500 (Central Daylight Time),292594.40000003576,014_m_m_h_a.png,O,m,810,11,1,1840.300000011921,290754.10000002384,7146,VNB,C,10
11,test,3,0.0,1-Back,1,z,Mon May 05 2025 09:53:02 GMT-0500 (Central Daylight Time),294324.3000000119,019_m_f_h_a.png,O,z,684,12,1,1700.199999988079,292624.10000002384,7146,VNB,C,11
12,test,3,1.0,1-Back,1,m,Mon May 05 2025 09:53:02 GMT-0500 (Central Daylight Time),296022.8000000119,012_o_f_d_a.png,O,m,636,13,1,1667.199999988079,294355.60000002384,7146,VNB,C,12
13,test,3,0.0,1-Back,1,z,Mon May 05 2025 09:53:02 GMT-0500 (Central Daylight Time),297939.1999999881,014_m_m_d_a.png,O,z,866,14,1,1883.199999988079,296056.0,7146,VNB,C,13
14,test,3,0.0,1-Back,1,m,Mon May 05 2025 09:53:02 GMT-0500 (Central Daylight Time),299705.10000002384,025_y_m_n_a.png,O,m,725,15,1,1733.9000000357628,297971.1999999881,7146,VNB,C,14
15,test,3,1.0,1-Back,1,m,Mon May 05 2025 09:53:02 GMT-0500 (Central Daylight Time),301370.8000000119,015_o_m_h_a.png,O,m,607,16,1,1633.0,299737.8000000119,7146,VNB,C,15
16,test,3,0.0,1-Back,1,m,Mon May 05 2025 09:53:02 GMT-0500 (Central Daylight Time),303003.0,025_y_m_d_a.png,O,m,589,17,1,1602.5999999642372,301400.40000003576,7146,VNB,C,16
17,test,3,1.0,1-Back,1,m,Mon May 05 2025 09:53:02 GMT-0500 (Central Daylight Time),304804.10000002384,022_y_f_n_a.png,O,m,750,18,1,1767.800000011921,303036.3000000119,7146,VNB,C,17
0,test,4,1.0,1-Back,,,Mon May 05 2025 09:53:02 GMT-0500 (Central Daylight Time),304804.10000002384,014_m_m_d_a.png,O,space,4006,1,1,1767.800000011921,303036.3000000119,7146,VNB,C,0
1,test,4,0.0,1-Back,1,z,Mon May 05 2025 09:53:02 GMT-0500 (Central Daylight Time),312883.1999999881,015_o_m_d_a.png,O,z,989,2,1,2014.7999999523163,310868.40000003576,7146,VNB,C,1
2,test,4,0.0,1-Back,1,m,Mon May 05 2025 09:53:02 GMT-0500 (Central Daylight Time),314616.8000000119,025_y_m_h_a.png,O,m,685,3,1,1702.0,312914.8000000119,7146,VNB,C,2
3,test,4,0.0,1-Back,1,m,Mon May 05 2025 09:53:02 GMT-0500 (Central Daylight Time),316349.60000002384,019_m_f_n_a.png,O,m,688,4,1,1703.6000000238419,314646.0,7146,VNB,C,3
4,test,4,1.0,1-Back,1,m,Mon May 05 2025 09:53:02 GMT-0500 (Central Daylight Time),318030.90000003576,012_o_f_h_a.png,O,m,643,5,1,1652.1000000238419,316378.8000000119,7146,VNB,C,4
5,test,4,0.0,1-Back,1,m,Mon May 05 2025 09:53:02 GMT-0500 (Central Daylight Time),319646.60000002384,014_m_m_n_a.png,O,m,566,6,1,1583.4000000357628,318063.1999999881,7146,VNB,C,5
6,test,4,0.0,1-Back,1,m,Mon May 05 2025 09:53:02 GMT-0500 (Central Daylight Time),321681.60000002384,025_y_m_d_a.png,O,m,983,7,1,2006.199999988079,319675.40000003576,7146,VNB,C,6
6,test,4,1.0,1-Back,0,z,Mon May 05 2025 09:53:02 GMT-0500 (Central Daylight Time),323629.60000002384,022_y_f_d_a.png,O,m,902,8,1,1916.1000000238419,321713.5,7146,VNB,C,7
7,test,4,0.0,1-Back,1,m,Mon May 05 2025 09:53:02 GMT-0500 (Central Daylight Time),325429.5,019_m_f_h_a.png,O,m,754,9,1,1770.5999999642372,323658.90000003576,7146,VNB,C,8
8,test,4,0.0,1-Back,1,z,Mon May 05 2025 09:53:02 GMT-0500 (Central Daylight Time),326995.60000002384,015_o_m_h_a.png,O,z,507,10,1,1532.6000000238419,325463.0,7146,VNB,C,9
9,test,4,1.0,1-Back,1,m,Mon May 05 2025 09:53:02 GMT-0500 (Central Daylight Time),328613.3000000119,012_o_f_n_a.png,O,m,585,11,1,1587.699999988079,327025.60000002384,7146,VNB,C,10
10,test,4,0.0,1-Back,1,m,Mon May 05 2025 09:53:02 GMT-0500 (Central Daylight Time),330778.1999999881,019_m_f_d_a.png,O,m,1100,12,1,2132.7999999523163,328645.40000003576,7146,VNB,C,11
11,test,4,0.0,1-Back,1,m,Mon May 05 2025 09:53:02 GMT-0500 (Central Daylight Time),332543.1999999881,022_y_f_n_a.png,O,m,725,13,1,1733.699999988079,330809.5,7146,VNB,C,12
12,test,4,0.0,1-Back,1,m,Mon May 05 2025 09:53:02 GMT-0500 (Central Daylight Time),334211.3000000119,012_o_f_d_a.png,O,m,633,14,1,1635.8999999761581,332575.40000003576,7146,VNB,C,13
13,test,4,0.0,1-Back,1,m,Mon May 05 2025 09:53:02 GMT-0500 (Central Daylight Time),336126.0,022_y_f_h_a.png,O,m,862,15,1,1886.0999999642372,334239.90000003576,7146,VNB,C,14
14,test,4,1.0,1-Back,1,z,Mon May 05 2025 09:53:02 GMT-0500 (Central Daylight Time),337791.10000002384,014_m_m_h_a.png,O,z,617,16,1,1634.800000011921,336156.3000000119,7146,VNB,C,15
15,test,4,0.0,1-Back,1,m,Mon May 05 2025 09:53:02 GMT-0500 (Central Daylight Time),339460.0,015_o_m_n_a.png,O,m,631,17,1,1638.0,337822.0,7146,VNB,C,16
15,test,4,1.0,1-Back,0,z,Mon May 05 2025 09:53:02 GMT-0500 (Central Daylight Time),341424.60000002384,025_y_m_n_a.png,O,m,927,18,1,1934.6000000238419,339490.0,7146,VNB,C,17
0,test,5,1.0,1-Back,,,Mon May 05 2025 09:53:02 GMT-0500 (Central Daylight Time),341424.60000002384,015_o_m_n_a.png,O,space,3610,1,1,1934.6000000238419,339490.0,7146,VNB,C,0
1,test,5,1.0,1-Back,1,m,Mon May 05 2025 09:53:02 GMT-0500 (Central Daylight Time),348954.40000003576,012_o_f_h_a.png,O,m,857,2,1,1867.4000000357628,347087.0,7146,VNB,C,1
2,test,5,0.0,1-Back,1,m,Mon May 05 2025 09:53:02 GMT-0500 (Central Daylight Time),350956.10000002384,025_y_m_d_a.png,O,m,966,3,1,1971.0,348985.10000002384,7146,VNB,C,2
3,test,5,0.0,1-Back,1,z,Mon May 05 2025 09:53:02 GMT-0500 (Central Daylight Time),352904.90000003576,015_o_m_d_a.png,O,z,892,4,1,1916.5,350988.40000003576,7146,VNB,C,3
4,test,5,0.0,1-Back,1,m,Mon May 05 2025 09:53:02 GMT-0500 (Central Daylight Time),354521.10000002384,019_m_f_h_a.png,O,m,567,5,1,1584.9000000357628,352936.1999999881,7146,VNB,C,4
5,test,5,0.0,1-Back,1,m,Mon May 05 2025 09:53:02 GMT-0500 (Central Daylight Time),356352.1999999881,022_y_f_n_a.png,O,m,792,6,1,1801.8999999761581,354550.3000000119,7146,VNB,C,5
6,test,5,1.0,1-Back,1,z,Mon May 05 2025 09:53:02 GMT-0500 (Central Daylight Time),358186.10000002384,012_o_f_n_a.png,O,z,766,7,1,1801.5,356384.60000002384,7146,VNB,C,6
7,test,5,0.0,1-Back,1,m,Mon May 05 2025 09:53:02 GMT-0500 (Central Daylight Time),359818.8000000119,019_m_f_d_a.png,O,m,574,8,1,1602.6000000238419,358216.1999999881,7146,VNB,C,7
8,test,5,0.0,1-Back,1,m,Mon May 05 2025 09:53:02 GMT-0500 (Central Daylight Time),361452.8000000119,025_y_m_h_a.png,O,m,584,9,1,1599.699999988079,359853.10000002384,7146,VNB,C,8
9,test,5,0.0,1-Back,1,m,Mon May 05 2025 09:53:02 GMT-0500 (Central Daylight Time),363235.60000002384,022_y_f_d_a.png,O,m,740,10,1,1753.300000011921,361482.3000000119,7146,VNB,C,9
10,test,5,0.0,1-Back,1,m,Mon May 05 2025 09:53:02 GMT-0500 (Central Daylight Time),364900.40000003576,014_m_m_n_a.png,O,m,613,11,1,1633.0,363267.40000003576,7146,VNB,C,10
10,test,5,1.0,1-Back,0,z,Mon May 05 2025 09:53:02 GMT-0500 (Central Daylight Time),366899.60000002384,019_m_f_n_a.png,O,m,964,12,1,1969.1000000238419,364930.5,7146,VNB,C,11
10,test,5,0.0,1-Back,0,m,Mon May 05 2025 09:53:02 GMT-0500 (Central Daylight Time),368666.3000000119,015_o_m_h_a.png,O,z,699,13,1,1733.3999999761581,366932.90000003576,7146,VNB,C,12
11,test,5,0.0,1-Back,1,z,Mon May 05 2025 09:53:02 GMT-0500 (Central Daylight Time),370214.1999999881,014_m_m_h_a.png,O,z,494,14,1,1514.0999999642372,368700.10000002384,7146,VNB,C,13
12,test,5,1.0,1-Back,1,m,Mon May 05 2025 09:53:02 GMT-0500 (Central Daylight Time),371849.6999999881,012_o_f_d_a.png,O,m,596,15,1,1603.3999999761581,370246.3000000119,7146,VNB,C,14
13,test,5,0.0,1-Back,1,m,Mon May 05 2025 09:53:02 GMT-0500 (Central Daylight Time),373715.0,025_y_m_n_a.png,O,m,817,16,1,1835.300000011921,371879.6999999881,7146,VNB,C,15
14,test,5,0.0,1-Back,1,m,Mon May 05 2025 09:53:02 GMT-0500 (Central Daylight Time),375331.1999999881,022_y_f_h_a.png,O,m,567,17,1,1583.0,373748.1999999881,7146,VNB,C,16
15,test,5,0.0,1-Back,1,m,Mon May 05 2025 09:53:02 GMT-0500 (Central Daylight Time),377112.8000000119,014_m_m_d_a.png,O,m,727,18,1,1747.3999999761581,375365.40000003576,7146,VNB,C,17
0,prac,1,0.0,2-Back,,,Mon May 05 2025 09:53:02 GMT-0500 (Central Daylight Time),377112.8000000119,019_m_f_n_a.png,O,space,6006,1,1,1747.3999999761581,375365.40000003576,7146,VNB,C,0
0,prac,1,0.0,2-Back,,,Mon May 05 2025 09:53:02 GMT-0500 (Central Daylight Time),377112.8000000119,012_o_f_h_a.png,O,space,6006,2,1,1747.3999999761581,375365.40000003576,7146,VNB,C,0
1,prac,1,0.0,2-Back,1,m,Mon May 05 2025 09:53:02 GMT-0500 (Central Daylight Time),480830.1999999881,015_o_m_d_a.png,O,m,1054,3,1,1934.0,478896.1999999881,7146,VNB,C,1
1,prac,1,1.0,2-Back,0,z,Mon May 05 2025 09:53:02 GMT-0500 (Central Daylight Time),483546.8000000119,014_m_m_h_a.png,O,m,1831,4,1,2683.800000011921,480863.0,7146,VNB,C,2
2,prac,1,0.0,2-Back,1,m,Mon May 05 2025 09:53:02 GMT-0500 (Central Daylight Time),485662.40000003576,022_y_f_n_a.png,O,m,1196,5,1,2083.5,483578.90000003576,7146,VNB,C,3
3,prac,1,1.0,2-Back,1,z,Mon May 05 2025 09:53:02 GMT-0500 (Central Daylight Time),487512.5,015_o_m_h_a.png,O,z,934,6,1,1817.699999988079,485694.8000000119,7146,VNB,C,4
3,prac,1,1.0,2-Back,0,z,Mon May 05 2025 09:53:02 GMT-0500 (Central Daylight Time),489145.6999999881,025_y_m_n_a.png,O,m,751,7,1,1600.5,487545.1999999881,7146,VNB,C,5
4,prac,1,0.0,2-Back,1,m,Mon May 05 2025 09:53:02 GMT-0500 (Central Daylight Time),491692.6999999881,019_m_f_d_a.png,O,m,1642,8,1,2514.2999999523163,489178.40000003576,7146,VNB,C,6
4,prac,1,0.0,2-Back,0,m,Mon May 05 2025 09:53:02 GMT-0500 (Central Daylight Time),494610.1999999881,012_o_f_d_a.png,O,None,2013,9,1,2884.0,491726.1999999881,7146,VNB,C,7
4,prac,1,0.0,2-Back,0,m,Mon May 05 2025 09:53:02 GMT-0500 (Central Daylight Time),496340.90000003576,014_m_m_h_a.png,O,z,926,10,1,1697.0,494643.90000003576,7146,VNB,C,8
4,prac,1,1.0,2-Back,0,z,Mon May 05 2025 09:53:02 GMT-0500 (Central Daylight Time),498460.6999999881,022_y_f_d_a.png,O,m,1218,11,1,2087.2999999523163,496373.40000003576,7146,VNB,C,9
5,prac,1,0.0,2-Back,1,m,Mon May 05 2025 09:53:02 GMT-0500 (Central Daylight Time),500524.6999999881,015_o_m_n_a.png,O,m,1131,12,1,2030.5,498494.1999999881,7146,VNB,C,10
0,prac,2,0.0,2-Back,,,Mon May 05 2025 09:53:02 GMT-0500 (Central Daylight Time),500524.6999999881,019_m_f_n_a.png,O,a,6479,1,1,2030.5,498494.1999999881,7146,VNB,C,0
0,prac,2,0.0,2-Back,,,Mon May 05 2025 09:53:02 GMT-0500 (Central Daylight Time),500524.6999999881,012_o_f_h_a.png,O,a,6479,2,1,2030.5,498494.1999999881,7146,VNB,C,0
1,prac,2,0.0,2-Back,1,m,Mon May 05 2025 09:53:02 GMT-0500 (Central Daylight Time),514570.0,015_o_m_d_a.png,O,m,1383,3,1,2250.699999988079,512319.3000000119,7146,VNB,C,1
2,prac,2,1.0,2-Back,1,z,Mon May 05 2025 09:53:02 GMT-0500 (Central Daylight Time),516636.90000003576,014_m_m_h_a.png,O,z,1273,4,1,2036.0,514600.90000003576,7146,VNB,C,2
3,prac,2,0.0,2-Back,1,m,Mon May 05 2025 09:53:02 GMT-0500 (Central Daylight Time),518969.10000002384,022_y_f_n_a.png,O,m,1416,5,1,2296.600000023842,516672.5,7146,VNB,C,3
4,prac,2,1.0,2-Back,1,z,Mon May 05 2025 09:53:02 GMT-0500 (Central Daylight Time),520968.6999999881,015_o_m_h_a.png,O,z,1087,6,1,1964.199999988079,519004.5,7146,VNB,C,4
4,prac,2,1.0,2-Back,0,z,Mon May 05 2025 09:53:02 GMT-0500 (Central Daylight Time),523133.0,025_y_m_n_a.png,O,m,1289,7,1,2128.599999964237,521004.40000003576,7146,VNB,C,5
5,prac,2,0.0,2-Back,1,m,Mon May 05 2025 09:53:02 GMT-0500 (Central Daylight Time),525533.1999999881,019_m_f_d_a.png,O,m,1503,8,1,2366.199999988079,523167.0,7146,VNB,C,6
5,prac,2,0.0,2-Back,0,m,Mon May 05 2025 09:53:02 GMT-0500 (Central Daylight Time),528415.6999999881,012_o_f_d_a.png,O,z,1982,9,1,2849.399999976158,525566.3000000119,7146,VNB,C,7
6,prac,2,0.0,2-Back,1,m,Mon May 05 2025 09:53:02 GMT-0500 (Central Daylight Time),530782.1999999881,014_m_m_h_a.png,O,m,1568,10,1,2332.7999999523163,528449.4000000358,7146,VNB,C,8
7,prac,2,1.0,2-Back,1,z,Mon May 05 2025 09:53:02 GMT-0500 (Central Daylight Time),533463.4000000358,022_y_f_d_a.png,O,z,1761,11,1,2649.800000011921,530813.6000000238,7146,VNB,C,9
8,prac,2,0.0,2-Back,1,m,Mon May 05 2025 09:53:02 GMT-0500 (Central Daylight Time),535894.8000000119,015_o_m_n_a.png,O,m,1509,12,1,2398.699999988079,533496.1000000238,7146,VNB,C,10
0,test,1,0.0,2-Back,,,Mon May 05 2025 09:53:02 GMT-0500 (Central Daylight Time),535894.8000000119,025_y_m_h_a.png,O,space,6518,1,1,2398.699999988079,533496.1000000238,7146,VNB,C,0
0,test,1,0.0,2-Back,,,Mon May 05 2025 09:53:02 GMT-0500 (Central Daylight Time),535894.8000000119,012_o_f_n_a.png,O,space,6518,2,1,2398.699999988079,533496.1000000238,7146,VNB,C,0
1,test,1,0.0,2-Back,1,z,Mon May 05 2025 09:53:02 GMT-0500 (Central Daylight Time),556856.6000000238,015_o_m_h_a.png,O,z,1209,3,1,2232.300000011921,554624.3000000119,7146,VNB,C,1
2,test,1,0.0,2-Back,1,m,Mon May 05 2025 09:53:02 GMT-0500 (Central Daylight Time),559321.1999999881,019_m_f_d_a.png,O,m,1409,4,1,2434.899999976158,556886.3000000119,7146,VNB,C,2
2,test,1,1.0,2-Back,0,m,Mon May 05 2025 09:53:02 GMT-0500 (Central Daylight Time),561852.5,025_y_m_n_a.png,O,z,1480,5,1,2498.300000011921,559354.1999999881,7146,VNB,C,3
3,test,1,0.0,2-Back,1,z,Mon May 05 2025 09:53:02 GMT-0500 (Central Daylight Time),564703.1999999881,022_y_f_d_a.png,O,z,1801,6,1,2821.5,561881.6999999881,7146,VNB,C,4
4,test,1,0.0,2-Back,1,m,Mon May 05 2025 09:53:02 GMT-0500 (Central Daylight Time),567485.3000000119,014_m_m_h_a.png,O,m,1720,7,1,2748.100000023842,564737.1999999881,7146,VNB,C,5
4,test,1,1.0,2-Back,0,m,Mon May 05 2025 09:53:02 GMT-0500 (Central Daylight Time),570034.4000000358,022_y_f_n_a.png,O,z,1506,8,1,2518.7000000476837,567515.6999999881,7146,VNB,C,6
5,test,1,0.0,2-Back,1,z,Mon May 05 2025 09:53:02 GMT-0500 (Central Daylight Time),572700.6000000238,012_o_f_h_a.png,O,z,1622,9,1,2636.400000035763,570064.1999999881,7146,VNB,C,7
5,test,1,0.0,2-Back,0,m,Mon May 05 2025 09:53:02 GMT-0500 (Central Daylight Time),575716.4000000358,015_o_m_d_a.png,O,z,1972,10,1,2990.800000011921,572725.6000000238,7146,VNB,C,8
6,test,1,1.0,2-Back,1,m,Mon May 05 2025 09:53:02 GMT-0500 (Central Daylight Time),578364.9000000358,014_m_m_d_a.png,O,m,1601,11,1,2616.800000011921,575748.1000000238,7146,VNB,C,9
7,test,1,0.0,2-Back,1,m,Mon May 05 2025 09:53:02 GMT-0500 (Central Daylight Time),580848.1999999881,019_m_f_n_a.png,O,m,1443,12,1,2456.699999988079,578391.5,7146,VNB,C,10
7,test,1,0.0,2-Back,0,m,Mon May 05 2025 09:53:02 GMT-0500 (Central Daylight Time),582916.1999999881,022_y_f_h_a.png,O,z,1016,13,1,2035.7999999523163,580880.4000000358,7146,VNB,C,11
7,test,1,0.0,2-Back,0,z,Mon May 05 2025 09:53:02 GMT-0500 (Central Daylight Time),585796.6000000238,014_m_m_n_a.png,O,m,1833,14,1,2850.100000023842,582946.5,7146,VNB,C,12
8,test,1,0.0,2-Back,1,m,Mon May 05 2025 09:53:02 GMT-0500 (Central Daylight Time),588312.1000000238,025_y_m_d_a.png,O,m,1451,15,1,2482.699999988079,585829.4000000358,7146,VNB,C,13
9,test,1,1.0,2-Back,1,m,Mon May 05 2025 09:53:02 GMT-0500 (Central Daylight Time),590895.3000000119,019_m_f_h_a.png,O,m,1545,16,1,2552.5,588342.8000000119,7146,VNB,C,14
9,test,1,0.0,2-Back,0,z,Mon May 05 2025 09:53:02 GMT-0500 (Central Daylight Time),592944.6999999881,012_o_f_d_a.png,O,m,996,17,1,2016.3999999761581,590928.3000000119,7146,VNB,C,15
9,test,1,0.0,2-Back,0,m,Mon May 05 2025 09:53:02 GMT-0500 (Central Daylight Time),595460.1999999881,015_o_m_n_a.png,O,z,1478,18,1,2485.599999964237,592974.6000000238,7146,VNB,C,16
0,test,2,0.0,2-Back,,,Mon May 05 2025 09:53:02 GMT-0500 (Central Daylight Time),595460.1999999881,014_m_m_h_a.png,O,space,6172,1,1,2485.599999964237,592974.6000000238,7146,VNB,C,0
0,test,2,0.0,2-Back,,,Mon May 05 2025 09:53:02 GMT-0500 (Central Daylight Time),595460.1999999881,022_y_f_n_a.png,O,space,6172,2,1,2485.599999964237,592974.6000000238,7146,VNB,C,0
1,test,2,1.0,2-Back,1,z,Mon May 05 2025 09:53:02 GMT-0500 (Central Daylight Time),608739.4000000358,012_o_f_h_a.png,O,z,805,3,1,1816.2000000476837,606923.1999999881,7146,VNB,C,1
2,test,2,0.0,2-Back,1,m,Mon May 05 2025 09:53:02 GMT-0500 (Central Daylight Time),610822.9000000358,015_o_m_d_a.png,O,m,1020,4,1,2049.600000023842,608773.3000000119,7146,VNB,C,2
3,test,2,0.0,2-Back,1,m,Mon May 05 2025 09:53:02 GMT-0500 (Central Daylight Time),613521.8000000119,019_m_f_d_a.png,O,m,1648,5,1,2666.699999988079,610855.1000000238,7146,VNB,C,3
4,test,2,0.0,2-Back,1,m,Mon May 05 2025 09:53:02 GMT-0500 (Central Daylight Time),615923.3000000119,025_y_m_h_a.png,O,m,1367,6,1,2370.300000011921,613553.0,7146,VNB,C,4
5,test,2,0.0,2-Back,1,m,Mon May 05 2025 09:53:02 GMT-0500 (Central Daylight Time),618402.8000000119,012_o_f_n_a.png,O,m,1423,7,1,2447.300000011921,615955.5,7146,VNB,C,5
6,test,2,1.0,2-Back,1,z,Mon May 05 2025 09:53:02 GMT-0500 (Central Daylight Time),620536.1999999881,015_o_m_h_a.png,O,z,1069,8,1,2100.199999988079,618436.0,7146,VNB,C,6
6,test,2,0.0,2-Back,0,m,Mon May 05 2025 09:53:02 GMT-0500 (Central Daylight Time),623585.5,022_y_f_d_a.png,O,None,2012,9,1,3016.399999976158,620569.1000000238,7146,VNB,C,7
7,test,2,0.0,2-Back,1,m,Mon May 05 2025 09:53:02 GMT-0500 (Central Daylight Time),625818.1000000238,025_y_m_d_a.png,O,m,1183,10,1,2201.300000011921,623616.8000000119,7146,VNB,C,8
8,test,2,0.0,2-Back,1,m,Mon May 05 2025 09:53:02 GMT-0500 (Central Daylight Time),627765.4000000358,014_m_m_n_a.png,O,m,895,11,1,1914.7000000476837,625850.6999999881,7146,VNB,C,9
9,test,2,0.0,2-Back,1,m,Mon May 05 2025 09:53:02 GMT-0500 (Central Daylight Time),630035.3000000119,019_m_f_h_a.png,O,m,1233,12,1,2256.0,627779.3000000119,7146,VNB,C,10
9,test,2,1.0,2-Back,0,z,Mon May 05 2025 09:53:02 GMT-0500 (Central Daylight Time),632115.8000000119,015_o_m_n_a.png,O,m,1023,13,1,2049.300000011921,630066.5,7146,VNB,C,11
10,test,2,0.0,2-Back,1,m,Mon May 05 2025 09:53:02 GMT-0500 (Central Daylight Time),634131.3000000119,012_o_f_d_a.png,O,m,982,14,1,1986.199999988079,632145.1000000238,7146,VNB,C,12
11,test,2,0.0,2-Back,1,m,Mon May 05 2025 09:53:02 GMT-0500 (Central Daylight Time),636729.4000000358,022_y_f_h_a.png,O,m,1531,15,1,2567.600000023842,634161.8000000119,7146,VNB,C,13
11,test,2,0.0,2-Back,0,z,Mon May 05 2025 09:53:02 GMT-0500 (Central Daylight Time),638612.6000000238,014_m_m_d_a.png,O,m,837,16,1,1853.300000011921,636759.3000000119,7146,VNB,C,14
12,test,2,0.0,2-Back,1,m,Mon May 05 2025 09:53:02 GMT-0500 (Central Daylight Time),640496.1999999881,025_y_m_n_a.png,O,m,834,17,1,1851.5999999642372,638644.6000000238,7146,VNB,C,15
13,test,2,1.0,2-Back,1,m,Mon May 05 2025 09:53:02 GMT-0500 (Central Daylight Time),643077.9000000358,019_m_f_n_a.png,O,m,1544,18,1,2551.600000023842,640526.3000000119,7146,VNB,C,16
0,test,3,1.0,2-Back,,,Mon May 05 2025 09:53:02 GMT-0500 (Central Daylight Time),643077.9000000358,015_o_m_n_a.png,O,space,4875,1,1,2551.600000023842,640526.3000000119,7146,VNB,C,0
0,test,3,1.0,2-Back,,,Mon May 05 2025 09:53:02 GMT-0500 (Central Daylight Time),643077.9000000358,012_o_f_d_a.png,O,space,4875,2,1,2551.600000023842,640526.3000000119,7146,VNB,C,0
1,test,3,0.0,2-Back,1,m,Mon May 05 2025 09:53:02 GMT-0500 (Central Daylight Time),654909.5,022_y_f_h_a.png,O,m,867,3,1,1869.800000011921,653039.6999999881,7146,VNB,C,1
2,test,3,0.0,2-Back,1,z,Mon May 05 2025 09:53:02 GMT-0500 (Central Daylight Time),657173.6999999881,019_m_f_d_a.png,O,z,1220,4,1,2235.2999999523163,654938.4000000358,7146,VNB,C,2
2,test,3,1.0,2-Back,0,m,Mon May 05 2025 09:53:02 GMT-0500 (Central Daylight Time),659605.8000000119,025_y_m_n_a.png,O,z,1395,5,1,2399.800000011921,657206.0,7146,VNB,C,3
3,test,3,0.0,2-Back,1,m,Mon May 05 2025 09:53:02 GMT-0500 (Central Daylight Time),661906.4000000358,015_o_m_h_a.png,O,m,1249,6,1,2268.800000011921,659637.6000000238,7146,VNB,C,4
3,test,3,0.0,2-Back,0,z,Mon May 05 2025 09:53:02 GMT-0500 (Central Daylight Time),664688.1000000238,022_y_f_n_a.png,O,m,1734,7,1,2751.0,661937.1000000238,7146,VNB,C,5
4,test,3,1.0,2-Back,1,m,Mon May 05 2025 09:53:02 GMT-0500 (Central Daylight Time),667037.6000000238,014_m_m_d_a.png,O,m,1286,8,1,2314.199999988079,664723.4000000358,7146,VNB,C,6
5,test,3,0.0,2-Back,1,m,Mon May 05 2025 09:53:02 GMT-0500 (Central Daylight Time),669336.3000000119,025_y_m_d_a.png,O,m,1258,9,1,2266.199999988079,667070.1000000238,7146,VNB,C,7
6,test,3,0.0,2-Back,1,m,Mon May 05 2025 09:53:02 GMT-0500 (Central Daylight Time),671236.1999999881,012_o_f_h_a.png,O,m,855,10,1,1868.2999999523163,669367.9000000358,7146,VNB,C,8
7,test,3,1.0,2-Back,1,m,Mon May 05 2025 09:53:02 GMT-0500 (Central Daylight Time),673217.6999999881,019_m_f_n_a.png,O,m,923,11,1,1948.3999999761581,671269.3000000119,7146,VNB,C,9
7,test,3,1.0,2-Back,0,z,Mon May 05 2025 09:53:02 GMT-0500 (Central Daylight Time),675118.5,014_m_m_h_a.png,O,m,854,12,1,1871.0999999642372,673247.4000000358,7146,VNB,C,10
8,test,3,0.0,2-Back,1,m,Mon May 05 2025 09:53:02 GMT-0500 (Central Daylight Time),677219.3000000119,022_y_f_d_a.png,O,m,1040,13,1,2067.199999988079,675152.1000000238,7146,VNB,C,11
9,test,3,0.0,2-Back,1,m,Mon May 05 2025 09:53:02 GMT-0500 (Central Daylight Time),679201.0,012_o_f_n_a.png,O,m,934,14,1,1951.699999988079,677249.3000000119,7146,VNB,C,12
10,test,3,0.0,2-Back,1,z,Mon May 05 2025 09:53:02 GMT-0500 (Central Daylight Time),681832.9000000358,015_o_m_d_a.png,O,z,1575,15,1,2599.400000035763,679233.5,7146,VNB,C,13
11,test,3,1.0,2-Back,1,m,Mon May 05 2025 09:53:02 GMT-0500 (Central Daylight Time),684032.0,019_m_f_h_a.png,O,m,1151,16,1,2167.599999964237,681864.4000000358,7146,VNB,C,14
12,test,3,0.0,2-Back,1,m,Mon May 05 2025 09:53:02 GMT-0500 (Central Daylight Time),685864.3000000119,014_m_m_n_a.png,O,m,783,17,1,1799.300000011921,684065.0,7146,VNB,C,15
13,test,3,0.0,2-Back,1,z,Mon May 05 2025 09:53:02 GMT-0500 (Central Daylight Time),687448.6000000238,025_y_m_h_a.png,O,z,518,18,1,1551.199999988079,685897.4000000358,7146,VNB,C,16
0,test,4,0.0,2-Back,,,Mon May 05 2025 09:53:02 GMT-0500 (Central Daylight Time),687448.6000000238,019_m_f_n_a.png,O,space,2132,1,1,1551.199999988079,685897.4000000358,7146,VNB,C,0
0,test,4,0.0,2-Back,,,Mon May 05 2025 09:53:02 GMT-0500 (Central Daylight Time),687448.6000000238,015_o_m_n_a.png,O,space,2132,2,1,1551.199999988079,685897.4000000358,7146,VNB,C,0
1,test,4,1.0,2-Back,1,m,Mon May 05 2025 09:53:02 GMT-0500 (Central Daylight Time),697345.0,025_y_m_h_a.png,O,m,1433,3,1,2451.099999964237,694893.9000000358,7146,VNB,C,1
2,test,4,1.0,2-Back,1,m,Mon May 05 2025 09:53:02 GMT-0500 (Central Daylight Time),699795.4000000358,012_o_f_d_a.png,O,m,1416,4,1,2419.2000000476837,697376.1999999881,7146,VNB,C,2
3,test,4,0.0,2-Back,1,z,Mon May 05 2025 09:53:02 GMT-0500 (Central Daylight Time),701926.9000000358,015_o_m_h_a.png,O,z,1071,5,1,2099.2000000476837,699827.6999999881,7146,VNB,C,3
4,test,4,0.0,2-Back,1,m,Mon May 05 2025 09:53:02 GMT-0500 (Central Daylight Time),703990.8000000119,014_m_m_n_a.png,O,m,1024,6,1,2033.6000000238419,701957.1999999881,7146,VNB,C,4
5,test,4,0.0,2-Back,1,m,Mon May 05 2025 09:53:02 GMT-0500 (Central Daylight Time),706009.6999999881,019_m_f_d_a.png,O,m,966,7,1,1992.5,704017.1999999881,7146,VNB,C,5
6,test,4,0.0,2-Back,1,z,Mon May 05 2025 09:53:02 GMT-0500 (Central Daylight Time),708174.4000000358,022_y_f_n_a.png,O,z,1119,8,1,2135.400000035763,706039.0,7146,VNB,C,6
7,test,4,1.0,2-Back,1,m,Mon May 05 2025 09:53:02 GMT-0500 (Central Daylight Time),711124.5,012_o_f_h_a.png,O,m,1915,9,1,2919.699999988079,708204.8000000119,7146,VNB,C,7
7,test,4,0.0,2-Back,0,m,Mon May 05 2025 09:53:02 GMT-0500 (Central Daylight Time),713439.5,014_m_m_h_a.png,O,z,1267,10,1,2286.5,711153.0,7146,VNB,C,8
8,test,4,0.0,2-Back,1,m,Mon May 05 2025 09:53:02 GMT-0500 (Central Daylight Time),715939.1000000238,022_y_f_d_a.png,O,m,1440,11,1,2467.900000035763,713471.1999999881,7146,VNB,C,9
9,test,4,0.0,2-Back,1,m,Mon May 05 2025 09:53:02 GMT-0500 (Central Daylight Time),717871.8000000119,025_y_m_n_a.png,O,m,892,12,1,1899.8999999761581,715971.9000000358,7146,VNB,C,10
10,test,4,0.0,2-Back,1,z,Mon May 05 2025 09:53:02 GMT-0500 (Central Daylight Time),719887.6000000238,015_o_m_d_a.png,O,z,952,13,1,1982.300000011921,717905.3000000119,7146,VNB,C,11
11,test,4,1.0,2-Back,1,m,Mon May 05 2025 09:53:02 GMT-0500 (Central Daylight Time),722286.6000000238,019_m_f_h_a.png,O,m,1351,14,1,2368.0,719918.6000000238,7146,VNB,C,12
12,test,4,1.0,2-Back,1,m,Mon May 05 2025 09:53:02 GMT-0500 (Central Daylight Time),724338.9000000358,022_y_f_h_a.png,O,m,986,15,1,2018.4000000357628,722320.5,7146,VNB,C,13
13,test,4,0.0,2-Back,1,m,Mon May 05 2025 09:53:02 GMT-0500 (Central Daylight Time),726202.4000000358,012_o_f_n_a.png,O,m,783,16,1,1808.800000011921,724393.6000000238,7146,VNB,C,14
14,test,4,0.0,2-Back,1,m,Mon May 05 2025 09:53:02 GMT-0500 (Central Daylight Time),728433.8000000119,025_y_m_d_a.png,O,m,1190,17,1,2211.199999988079,726222.6000000238,7146,VNB,C,15
15,test,4,1.0,2-Back,1,m,Mon May 05 2025 09:53:02 GMT-0500 (Central Daylight Time),730733.6999999881,014_m_m_d_a.png,O,m,1253,18,1,2279.0,728454.6999999881,7146,VNB,C,16
0,test,5,1.0,2-Back,,,Mon May 05 2025 09:53:02 GMT-0500 (Central Daylight Time),730733.6999999881,022_y_f_d_a.png,O,space,1340,1,1,2279.0,728454.6999999881,7146,VNB,C,0
0,test,5,1.0,2-Back,,,Mon May 05 2025 09:53:02 GMT-0500 (Central Daylight Time),730733.6999999881,012_o_f_h_a.png,O,space,1340,2,1,2279.0,728454.6999999881,7146,VNB,C,0
1,test,5,1.0,2-Back,1,z,Mon May 05 2025 09:53:02 GMT-0500 (Central Daylight Time),739333.1999999881,015_o_m_d_a.png,O,z,967,3,1,1980.8999999761581,737352.3000000119,7146,VNB,C,1
2,test,5,1.0,2-Back,1,m,Mon May 05 2025 09:53:02 GMT-0500 (Central Daylight Time),741580.6000000238,019_m_f_n_a.png,O,m,1205,4,1,2224.900000035763,739355.6999999881,7146,VNB,C,2
3,test,5,0.0,2-Back,1,m,Mon May 05 2025 09:53:02 GMT-0500 (Central Daylight Time),744279.9000000358,014_m_m_h_a.png,O,m,1651,5,1,2675.100000023842,741604.8000000119,7146,VNB,C,3
3,test,5,0.0,2-Back,0,z,Mon May 05 2025 09:53:02 GMT-0500 (Central Daylight Time),746727.9000000358,022_y_f_n_a.png,O,m,1409,6,1,2427.5,744300.4000000358,7146,VNB,C,4
4,test,5,0.0,2-Back,1,m,Mon May 05 2025 09:53:02 GMT-0500 (Central Daylight Time),748964.1999999881,012_o_f_d_a.png,O,m,1201,7,1,2217.599999964237,746746.6000000238,7146,VNB,C,5
5,test,5,0.0,2-Back,1,m,Mon May 05 2025 09:53:02 GMT-0500 (Central Daylight Time),750745.8000000119,015_o_m_h_a.png,O,m,750,8,1,1760.0,748985.8000000119,7146,VNB,C,6
5,test,5,1.0,2-Back,0,z,Mon May 05 2025 09:53:02 GMT-0500 (Central Daylight Time),752995.9000000358,019_m_f_d_a.png,O,m,1216,9,1,2230.600000023842,750765.3000000119,7146,VNB,C,7
6,test,5,0.0,2-Back,1,m,Mon May 05 2025 09:53:02 GMT-0500 (Central Daylight Time),755176.5,025_y_m_n_a.png,O,m,1142,10,1,2159.599999964237,753016.9000000358,7146,VNB,C,8
7,test,5,0.0,2-Back,1,m,Mon May 05 2025 09:53:02 GMT-0500 (Central Daylight Time),757494.1999999881,014_m_m_n_a.png,O,m,1284,11,1,2294.699999988079,755199.5,7146,VNB,C,9
8,test,5,0.0,2-Back,1,m,Mon May 05 2025 09:53:02 GMT-0500 (Central Daylight Time),759490.9000000358,022_y_f_h_a.png,O,m,965,12,1,1975.800000011921,757515.1000000238,7146,VNB,C,10
9,test,5,0.0,2-Back,1,m,Mon May 05 2025 09:53:02 GMT-0500 (Central Daylight Time),761590.0,025_y_m_d_a.png,O,m,1060,13,1,2081.5,759508.5,7146,VNB,C,11
9,test,5,1.0,2-Back,0,z,Mon May 05 2025 09:53:02 GMT-0500 (Central Daylight Time),763343.0,019_m_f_h_a.png,O,m,720,14,1,1731.300000011921,761611.6999999881,7146,VNB,C,12
9,test,5,0.0,2-Back,0,m,Mon May 05 2025 09:53:02 GMT-0500 (Central Daylight Time),766105.9000000358,015_o_m_n_a.png,O,z,1725,15,1,2742.400000035763,763363.5,7146,VNB,C,13
9,test,5,0.0,2-Back,0,m,Mon May 05 2025 09:53:02 GMT-0500 (Central Daylight Time),768838.1000000238,014_m_m_d_a.png,O,z,1685,16,1,2712.100000023842,766126.0,7146,VNB,C,14
9,test,5,0.0,2-Back,0,z,Mon May 05 2025 09:53:02 GMT-0500 (Central Daylight Time),771003.8000000119,012_o_f_n_a.png,O,m,1130,17,1,2144.199999988079,768859.6000000238,7146,VNB,C,15
10,test,5,1.0,2-Back,1,m,Mon May 05 2025 09:53:02 GMT-0500 (Central Daylight Time),773653.3000000119,025_y_m_h_a.png,O,m,1615,18,1,2624.399999976158,771028.9000000358,7146,VNB,C,16
