acc_sum,block,block_c,change,condition,correct,correct_response,datetime,endtime,face,project,response,response_time,row_sel,session_number,start_end,starttime,subject_id,task,task_vers,trial
0,prac,1,,1-Back,,,Thu Dec 12 2024 16:56:35 GMT-0600 (Central Standard Time),,124_o_f_d_a.png,I,space,11436,1,2,,,8006,VNB,A,0
1,prac,1,0.0,1-Back,1,m,Thu Dec 12 2024 16:56:35 GMT-0600 (Central Standard Time),104544.0,071_y_f_n_a.png,I,m,775,2,2,1577.0999999996275,102966.90000000037,8006,VNB,A,1
1,prac,1,0.0,1-Back,0,m,Thu Dec 12 2024 16:56:35 GMT-0600 (Central Standard Time),106660.0,165_m_m_h_a.png,I,z,1306,3,2,2112.0999999996275,104547.90000000037,8006,VNB,A,2
2,prac,1,0.0,1-Back,1,m,Thu Dec 12 2024 16:56:35 GMT-0600 (Central Standard Time),108609.30000000075,109_y_m_d_a.png,I,m,1135,4,2,1943.4000000003725,106665.90000000037,8006,VNB,A,3
3,prac,1,0.0,1-Back,1,m,Thu Dec 12 2024 16:56:35 GMT-0600 (Central Standard Time),110059.10000000056,124_o_f_n_a.png,I,m,612,5,2,1446.1000000005588,108613.0,8006,VNB,A,4
4,prac,1,1.0,1-Back,1,z,Thu Dec 12 2024 16:56:35 GMT-0600 (Central Standard Time),111475.10000000056,109_y_m_n_a.png,I,z,610,6,2,1412.6000000005588,110062.5,8006,VNB,A,5
5,prac,1,0.0,1-Back,1,m,Thu Dec 12 2024 16:56:35 GMT-0600 (Central Standard Time),112791.40000000037,039_o_m_h_a.png,I,m,504,7,2,1312.2000000001863,111479.20000000019,8006,VNB,A,6
6,prac,1,0.0,1-Back,1,m,Thu Dec 12 2024 16:56:35 GMT-0600 (Central Standard Time),114324.20000000019,139_m_f_d_a.png,I,m,730,8,2,1527.7999999998137,112796.40000000037,8006,VNB,A,7
7,prac,1,1.0,1-Back,1,z,Thu Dec 12 2024 16:56:35 GMT-0600 (Central Standard Time),115890.40000000037,071_y_f_d_a.png,I,z,760,9,2,1562.0999999996275,114328.30000000075,8006,VNB,A,8
8,prac,1,0.0,1-Back,1,m,Thu Dec 12 2024 16:56:35 GMT-0600 (Central Standard Time),117239.70000000019,165_m_m_n_a.png,I,m,545,10,2,1345.7000000001863,115894.0,8006,VNB,A,9
9,prac,1,0.0,1-Back,1,m,Thu Dec 12 2024 16:56:35 GMT-0600 (Central Standard Time),118639.10000000056,124_o_f_h_a.png,I,m,562,11,2,1395.5,117243.60000000056,8006,VNB,A,10
10,prac,1,0.0,1-Back,1,m,Thu Dec 12 2024 16:56:35 GMT-0600 (Central Standard Time),119888.90000000037,109_y_m_d_a.png,I,m,477,12,2,1245.9000000003725,118643.0,8006,VNB,A,11
0,test,1,0.0,1-Back,,,Thu Dec 12 2024 16:56:35 GMT-0600 (Central Standard Time),119888.90000000037,071_y_f_d_a.png,I,space,6589,1,2,1245.9000000003725,118643.0,8006,VNB,A,0
1,test,1,0.0,1-Back,1,m,Thu Dec 12 2024 16:56:35 GMT-0600 (Central Standard Time),134950.90000000037,139_m_f_n_a.png,I,m,577,2,2,1596.5,133354.40000000037,8006,VNB,A,1
2,test,1,0.0,1-Back,1,m,Thu Dec 12 2024 16:56:35 GMT-0600 (Central Standard Time),136517.2000000002,039_o_m_h_a.png,I,m,545,3,2,1563.7000000001863,134953.5,8006,VNB,A,2
3,test,1,1.0,1-Back,1,z,Thu Dec 12 2024 16:56:35 GMT-0600 (Central Standard Time),138216.60000000056,165_m_m_h_a.png,I,z,666,4,2,1696.7000000001863,136519.90000000037,8006,VNB,A,3
4,test,1,0.0,1-Back,1,m,Thu Dec 12 2024 16:56:35 GMT-0600 (Central Standard Time),139699.7000000002,124_o_f_n_a.png,I,m,455,5,2,1480.5999999996275,138219.10000000056,8006,VNB,A,4
5,test,1,0.0,1-Back,1,m,Thu Dec 12 2024 16:56:35 GMT-0600 (Central Standard Time),141832.40000000037,109_y_m_d_a.png,I,m,1101,6,2,2129.2000000001863,139703.2000000002,8006,VNB,A,5
6,test,1,1.0,1-Back,1,z,Thu Dec 12 2024 16:56:35 GMT-0600 (Central Standard Time),143531.60000000056,139_m_f_d_a.png,I,z,671,7,2,1696.7000000001863,141834.90000000037,8006,VNB,A,6
7,test,1,0.0,1-Back,1,m,Thu Dec 12 2024 16:56:35 GMT-0600 (Central Standard Time),145147.60000000056,071_y_f_h_a.png,I,m,588,8,2,1613.7000000001863,143533.90000000037,8006,VNB,A,7
8,test,1,0.0,1-Back,1,m,Thu Dec 12 2024 16:56:35 GMT-0600 (Central Standard Time),146730.60000000056,039_o_m_n_a.png,I,m,563,9,2,1579.9000000003725,145150.7000000002,8006,VNB,A,8
9,test,1,0.0,1-Back,1,m,Thu Dec 12 2024 16:56:35 GMT-0600 (Central Standard Time),148313.7000000002,109_y_m_h_a.png,I,m,564,10,2,1580.7000000001863,146733.0,8006,VNB,A,9
10,test,1,0.0,1-Back,1,m,Thu Dec 12 2024 16:56:35 GMT-0600 (Central Standard Time),149962.90000000037,039_o_m_d_a.png,I,m,623,11,2,1646.5,148316.40000000037,8006,VNB,A,10
11,test,1,1.0,1-Back,1,z,Thu Dec 12 2024 16:56:35 GMT-0600 (Central Standard Time),151579.30000000075,124_o_f_d_a.png,I,z,596,12,2,1613.2000000001863,149966.10000000056,8006,VNB,A,11
12,test,1,0.0,1-Back,1,m,Thu Dec 12 2024 16:56:35 GMT-0600 (Central Standard Time),153178.5,165_m_m_n_a.png,I,m,581,13,2,1596.699999999255,151581.80000000075,8006,VNB,A,12
13,test,1,1.0,1-Back,1,z,Thu Dec 12 2024 16:56:35 GMT-0600 (Central Standard Time),154811.40000000037,071_y_f_n_a.png,I,z,602,14,2,1630.7000000001863,153180.7000000002,8006,VNB,A,13
14,test,1,0.0,1-Back,1,m,Thu Dec 12 2024 16:56:35 GMT-0600 (Central Standard Time),156527.60000000056,139_m_f_h_a.png,I,m,684,15,2,1713.5,154814.10000000056,8006,VNB,A,14
15,test,1,0.0,1-Back,1,m,Thu Dec 12 2024 16:56:35 GMT-0600 (Central Standard Time),158443.60000000056,165_m_m_d_a.png,I,m,887,16,2,1913.6000000005588,156530.0,8006,VNB,A,15
16,test,1,0.0,1-Back,1,m,Thu Dec 12 2024 16:56:35 GMT-0600 (Central Standard Time),160009.90000000037,109_y_m_n_a.png,I,m,540,17,2,1563.7000000001863,158446.2000000002,8006,VNB,A,16
17,test,1,0.0,1-Back,1,m,Thu Dec 12 2024 16:56:35 GMT-0600 (Central Standard Time),161559.30000000075,124_o_f_h_a.png,I,m,518,18,2,1547.1000000005588,160012.2000000002,8006,VNB,A,17
0,test,2,0.0,1-Back,,,Thu Dec 12 2024 16:56:35 GMT-0600 (Central Standard Time),161559.30000000075,109_y_m_n_a.png,I,space,1162,1,2,1547.1000000005588,160012.2000000002,8006,VNB,A,0
1,test,2,0.0,1-Back,1,m,Thu Dec 12 2024 16:56:35 GMT-0600 (Central Standard Time),166674.5,071_y_f_h_a.png,I,m,905,2,2,1930.2999999998137,164744.2000000002,8006,VNB,A,1
2,test,2,1.0,1-Back,1,m,Thu Dec 12 2024 16:56:35 GMT-0600 (Central Standard Time),168274.2000000002,039_o_m_n_a.png,I,m,566,3,2,1597.0,166677.2000000002,8006,VNB,A,2
3,test,2,0.0,1-Back,1,m,Thu Dec 12 2024 16:56:35 GMT-0600 (Central Standard Time),169856.80000000075,139_m_f_d_a.png,I,m,549,4,2,1580.0,168276.80000000075,8006,VNB,A,3
4,test,2,0.0,1-Back,1,z,Thu Dec 12 2024 16:56:35 GMT-0600 (Central Standard Time),171473.0,165_m_m_d_a.png,I,z,581,5,2,1613.5999999996275,169859.40000000037,8006,VNB,A,4
5,test,2,0.0,1-Back,1,m,Thu Dec 12 2024 16:56:35 GMT-0600 (Central Standard Time),172889.10000000056,109_y_m_h_a.png,I,m,382,6,2,1413.6000000005588,171475.5,8006,VNB,A,5
6,test,2,1.0,1-Back,1,z,Thu Dec 12 2024 16:56:35 GMT-0600 (Central Standard Time),174422.0,124_o_f_h_a.png,I,z,511,7,2,1530.5,172891.5,8006,VNB,A,6
7,test,2,0.0,1-Back,1,m,Thu Dec 12 2024 16:56:35 GMT-0600 (Central Standard Time),175921.60000000056,139_m_f_n_a.png,I,m,465,8,2,1497.0,174424.60000000056,8006,VNB,A,7
8,test,2,0.0,1-Back,1,m,Thu Dec 12 2024 16:56:35 GMT-0600 (Central Standard Time),177520.80000000075,071_y_f_d_a.png,I,m,574,9,2,1596.7000000001863,175924.10000000056,8006,VNB,A,8
9,test,2,0.0,1-Back,1,m,Thu Dec 12 2024 16:56:35 GMT-0600 (Central Standard Time),179120.5,165_m_m_n_a.png,I,m,574,10,2,1597.0999999996275,177523.40000000037,8006,VNB,A,9
10,test,2,1.0,1-Back,1,m,Thu Dec 12 2024 16:56:35 GMT-0600 (Central Standard Time),180736.60000000056,139_m_f_h_a.png,I,m,591,11,2,1613.7000000001863,179122.90000000037,8006,VNB,A,10
11,test,2,0.0,1-Back,1,z,Thu Dec 12 2024 16:56:35 GMT-0600 (Central Standard Time),182536.2000000002,039_o_m_h_a.png,I,z,767,12,2,1797.3999999994412,180738.80000000075,8006,VNB,A,11
12,test,2,0.0,1-Back,1,m,Thu Dec 12 2024 16:56:35 GMT-0600 (Central Standard Time),184118.80000000075,109_y_m_d_a.png,I,m,552,13,2,1580.300000000745,182538.5,8006,VNB,A,12
13,test,2,0.0,1-Back,1,m,Thu Dec 12 2024 16:56:35 GMT-0600 (Central Standard Time),185752.10000000056,124_o_f_n_a.png,I,m,609,14,2,1630.9000000003725,184121.2000000002,8006,VNB,A,13
14,test,2,0.0,1-Back,1,z,Thu Dec 12 2024 16:56:35 GMT-0600 (Central Standard Time),187351.2000000002,071_y_f_n_a.png,I,z,576,15,2,1596.5,185754.7000000002,8006,VNB,A,14
15,test,2,1.0,1-Back,1,m,Thu Dec 12 2024 16:56:35 GMT-0600 (Central Standard Time),189000.7000000002,165_m_m_h_a.png,I,m,623,16,2,1646.5,187354.2000000002,8006,VNB,A,15
16,test,2,0.0,1-Back,1,m,Thu Dec 12 2024 16:56:35 GMT-0600 (Central Standard Time),190633.90000000037,124_o_f_d_a.png,I,m,599,17,2,1630.5999999996275,189003.30000000075,8006,VNB,A,16
17,test,2,1.0,1-Back,1,z,Thu Dec 12 2024 16:56:35 GMT-0600 (Central Standard Time),192449.80000000075,039_o_m_d_a.png,I,z,782,18,2,1813.4000000003725,190636.40000000037,8006,VNB,A,17
0,test,3,1.0,1-Back,,,Thu Dec 12 2024 16:56:35 GMT-0600 (Central Standard Time),192449.80000000075,124_o_f_h_a.png,I,space,1207,1,2,1813.4000000003725,190636.40000000037,8006,VNB,A,0
1,test,3,0.0,1-Back,1,m,Thu Dec 12 2024 16:56:35 GMT-0600 (Central Standard Time),197398.30000000075,139_m_f_d_a.png,I,m,651,2,2,1679.5,195718.80000000075,8006,VNB,A,1
2,test,3,1.0,1-Back,1,m,Thu Dec 12 2024 16:56:35 GMT-0600 (Central Standard Time),198897.7000000002,165_m_m_n_a.png,I,m,474,3,2,1497.0999999996275,197400.60000000056,8006,VNB,A,2
3,test,3,0.0,1-Back,1,z,Thu Dec 12 2024 16:56:35 GMT-0600 (Central Standard Time),200563.80000000075,124_o_f_n_a.png,I,z,638,4,2,1663.300000000745,198900.5,8006,VNB,A,3
4,test,3,1.0,1-Back,1,m,Thu Dec 12 2024 16:56:35 GMT-0600 (Central Standard Time),202113.30000000075,039_o_m_d_a.png,I,m,515,5,2,1547.0,200566.30000000075,8006,VNB,A,4
5,test,3,0.0,1-Back,1,m,Thu Dec 12 2024 16:56:35 GMT-0600 (Central Standard Time),203829.60000000056,071_y_f_h_a.png,I,m,686,6,2,1713.9000000003725,202115.7000000002,8006,VNB,A,5
6,test,3,0.0,1-Back,1,z,Thu Dec 12 2024 16:56:35 GMT-0600 (Central Standard Time),205412.40000000037,109_y_m_h_a.png,I,z,555,7,2,1580.5,203831.90000000037,8006,VNB,A,6
7,test,3,0.0,1-Back,1,m,Thu Dec 12 2024 16:56:35 GMT-0600 (Central Standard Time),206878.7000000002,139_m_f_n_a.png,I,m,435,8,2,1463.8999999994412,205414.80000000075,8006,VNB,A,7
8,test,3,0.0,1-Back,1,m,Thu Dec 12 2024 16:56:35 GMT-0600 (Central Standard Time),208644.90000000037,071_y_f_d_a.png,I,m,737,9,2,1763.5999999996275,206881.30000000075,8006,VNB,A,8
9,test,3,1.0,1-Back,1,m,Thu Dec 12 2024 16:56:35 GMT-0600 (Central Standard Time),210477.60000000056,039_o_m_n_a.png,I,m,803,10,2,1830.1000000005588,208647.5,8006,VNB,A,9
10,test,3,0.0,1-Back,1,m,Thu Dec 12 2024 16:56:35 GMT-0600 (Central Standard Time),211993.60000000056,165_m_m_h_a.png,I,m,483,11,2,1513.2000000001863,210480.40000000037,8006,VNB,A,10
11,test,3,0.0,1-Back,1,z,Thu Dec 12 2024 16:56:35 GMT-0600 (Central Standard Time),213459.7000000002,139_m_f_h_a.png,I,z,446,12,2,1463.5999999996275,211996.10000000056,8006,VNB,A,11
12,test,3,1.0,1-Back,1,m,Thu Dec 12 2024 16:56:35 GMT-0600 (Central Standard Time),214942.7000000002,124_o_f_d_a.png,I,m,460,13,2,1480.5999999996275,213462.10000000056,8006,VNB,A,12
13,test,3,0.0,1-Back,1,z,Thu Dec 12 2024 16:56:35 GMT-0600 (Central Standard Time),216608.80000000075,165_m_m_d_a.png,I,z,641,14,2,1663.7000000001863,214945.10000000056,8006,VNB,A,13
14,test,3,0.0,1-Back,1,m,Thu Dec 12 2024 16:56:35 GMT-0600 (Central Standard Time),218091.80000000075,109_y_m_n_a.png,I,m,455,15,2,1480.5,216611.30000000075,8006,VNB,A,14
15,test,3,1.0,1-Back,1,m,Thu Dec 12 2024 16:56:35 GMT-0600 (Central Standard Time),219658.0,039_o_m_h_a.png,I,m,548,16,2,1564.0999999996275,218093.90000000037,8006,VNB,A,15
16,test,3,0.0,1-Back,1,m,Thu Dec 12 2024 16:56:35 GMT-0600 (Central Standard Time),221207.40000000037,109_y_m_d_a.png,I,m,518,17,2,1546.9000000003725,219660.5,8006,VNB,A,16
17,test,3,1.0,1-Back,1,m,Thu Dec 12 2024 16:56:35 GMT-0600 (Central Standard Time),222807.2000000002,071_y_f_n_a.png,I,m,576,18,2,1597.3999999994412,221209.80000000075,8006,VNB,A,17
0,test,4,1.0,1-Back,,,Thu Dec 12 2024 16:56:35 GMT-0600 (Central Standard Time),222807.2000000002,165_m_m_d_a.png,I,space,1057,1,2,1597.3999999994412,221209.80000000075,8006,VNB,A,0
1,test,4,0.0,1-Back,1,z,Thu Dec 12 2024 16:56:35 GMT-0600 (Central Standard Time),227855.30000000075,039_o_m_d_a.png,I,z,942,2,2,1963.4000000003725,225891.90000000037,8006,VNB,A,1
2,test,4,0.0,1-Back,1,m,Thu Dec 12 2024 16:56:35 GMT-0600 (Central Standard Time),229471.5,109_y_m_h_a.png,I,m,592,3,2,1613.699999999255,227857.80000000075,8006,VNB,A,2
3,test,4,0.0,1-Back,1,m,Thu Dec 12 2024 16:56:35 GMT-0600 (Central Standard Time),231024.0,139_m_f_n_a.png,I,m,535,4,2,1550.0999999996275,229473.90000000037,8006,VNB,A,3
4,test,4,1.0,1-Back,1,m,Thu Dec 12 2024 16:56:35 GMT-0600 (Central Standard Time),232587.10000000056,124_o_f_h_a.png,I,m,539,5,2,1560.6000000005588,231026.5,8006,VNB,A,4
5,test,4,0.0,1-Back,1,m,Thu Dec 12 2024 16:56:35 GMT-0600 (Central Standard Time),234103.40000000037,165_m_m_n_a.png,I,m,493,6,2,1513.9000000003725,232589.5,8006,VNB,A,5
6,test,4,0.0,1-Back,1,m,Thu Dec 12 2024 16:56:35 GMT-0600 (Central Standard Time),235752.80000000075,109_y_m_d_a.png,I,m,624,7,2,1646.7000000001863,234106.10000000056,8006,VNB,A,6
7,test,4,1.0,1-Back,1,z,Thu Dec 12 2024 16:56:35 GMT-0600 (Central Standard Time),237252.40000000037,071_y_f_d_a.png,I,z,478,8,2,1497.2999999998137,235755.10000000056,8006,VNB,A,7
8,test,4,0.0,1-Back,1,m,Thu Dec 12 2024 16:56:35 GMT-0600 (Central Standard Time),238752.0,139_m_f_h_a.png,I,m,476,9,2,1496.5,237255.5,8006,VNB,A,8
9,test,4,0.0,1-Back,1,z,Thu Dec 12 2024 16:56:35 GMT-0600 (Central Standard Time),240318.10000000056,039_o_m_h_a.png,I,z,536,10,2,1563.0,238755.10000000056,8006,VNB,A,9
10,test,4,1.0,1-Back,1,m,Thu Dec 12 2024 16:56:35 GMT-0600 (Central Standard Time),241917.40000000037,124_o_f_n_a.png,I,m,578,11,2,1596.5,240320.90000000037,8006,VNB,A,10
11,test,4,0.0,1-Back,1,m,Thu Dec 12 2024 16:56:35 GMT-0600 (Central Standard Time),243667.2000000002,139_m_f_d_a.png,I,m,722,12,2,1747.5999999996275,241919.60000000056,8006,VNB,A,11
12,test,4,0.0,1-Back,1,m,Thu Dec 12 2024 16:56:35 GMT-0600 (Central Standard Time),245166.60000000056,071_y_f_n_a.png,I,m,469,13,2,1496.9000000003725,243669.7000000002,8006,VNB,A,12
13,test,4,0.0,1-Back,1,m,Thu Dec 12 2024 16:56:35 GMT-0600 (Central Standard Time),246683.90000000037,124_o_f_d_a.png,I,m,498,14,2,1514.9000000003725,245169.0,8006,VNB,A,13
14,test,4,0.0,1-Back,1,m,Thu Dec 12 2024 16:56:35 GMT-0600 (Central Standard Time),248248.90000000037,071_y_f_h_a.png,I,m,532,15,2,1562.5999999996275,246686.30000000075,8006,VNB,A,14
15,test,4,1.0,1-Back,1,z,Thu Dec 12 2024 16:56:35 GMT-0600 (Central Standard Time),249848.5,165_m_m_h_a.png,I,z,574,16,2,1597.0,248251.5,8006,VNB,A,15
16,test,4,0.0,1-Back,1,m,Thu Dec 12 2024 16:56:35 GMT-0600 (Central Standard Time),251331.40000000037,039_o_m_n_a.png,I,m,463,17,2,1480.2999999998137,249851.10000000056,8006,VNB,A,16
17,test,4,1.0,1-Back,1,z,Thu Dec 12 2024 16:56:35 GMT-0600 (Central Standard Time),252914.5,109_y_m_n_a.png,I,z,549,18,2,1580.8999999994412,251333.60000000056,8006,VNB,A,17
0,test,5,1.0,1-Back,,,Thu Dec 12 2024 16:56:35 GMT-0600 (Central Standard Time),252914.5,039_o_m_n_a.png,I,space,1135,1,2,1580.8999999994412,251333.60000000056,8006,VNB,A,0
1,test,5,1.0,1-Back,1,m,Thu Dec 12 2024 16:56:35 GMT-0600 (Central Standard Time),258146.0,124_o_f_h_a.png,I,m,1040,2,2,2063.699999999255,256082.30000000075,8006,VNB,A,1
2,test,5,0.0,1-Back,1,m,Thu Dec 12 2024 16:56:35 GMT-0600 (Central Standard Time),259695.30000000075,109_y_m_d_a.png,I,m,526,3,2,1547.1000000005588,258148.2000000002,8006,VNB,A,2
3,test,5,0.0,1-Back,1,z,Thu Dec 12 2024 16:56:35 GMT-0600 (Central Standard Time),261278.40000000037,039_o_m_d_a.png,I,z,553,4,2,1580.5999999996275,259697.80000000075,8006,VNB,A,3
4,test,5,0.0,1-Back,1,m,Thu Dec 12 2024 16:56:35 GMT-0600 (Central Standard Time),263127.5,139_m_f_h_a.png,I,m,825,5,2,1846.7999999998137,261280.7000000002,8006,VNB,A,4
5,test,5,0.0,1-Back,1,m,Thu Dec 12 2024 16:56:35 GMT-0600 (Central Standard Time),264660.7000000002,071_y_f_n_a.png,I,m,504,6,2,1530.5999999996275,263130.10000000056,8006,VNB,A,5
6,test,5,1.0,1-Back,1,z,Thu Dec 12 2024 16:56:35 GMT-0600 (Central Standard Time),266243.4000000004,124_o_f_n_a.png,I,z,563,7,2,1580.2999999998137,264663.10000000056,8006,VNB,A,6
7,test,5,0.0,1-Back,1,m,Thu Dec 12 2024 16:56:35 GMT-0600 (Central Standard Time),267742.9000000004,139_m_f_d_a.png,I,m,475,8,2,1497.0,266245.9000000004,8006,VNB,A,7
8,test,5,0.0,1-Back,1,m,Thu Dec 12 2024 16:56:35 GMT-0600 (Central Standard Time),269392.4000000004,109_y_m_h_a.png,I,m,617,9,2,1647.0,267745.4000000004,8006,VNB,A,8
9,test,5,0.0,1-Back,1,m,Thu Dec 12 2024 16:56:35 GMT-0600 (Central Standard Time),270942.0,071_y_f_d_a.png,I,m,518,10,2,1547.0999999996275,269394.9000000004,8006,VNB,A,9
10,test,5,0.0,1-Back,1,m,Thu Dec 12 2024 16:56:35 GMT-0600 (Central Standard Time),272458.0,165_m_m_n_a.png,I,m,498,11,2,1513.7999999998137,270944.2000000002,8006,VNB,A,10
11,test,5,1.0,1-Back,1,z,Thu Dec 12 2024 16:56:35 GMT-0600 (Central Standard Time),273974.30000000075,139_m_f_n_a.png,I,z,493,12,2,1513.9000000003725,272460.4000000004,8006,VNB,A,11
12,test,5,0.0,1-Back,1,m,Thu Dec 12 2024 16:56:35 GMT-0600 (Central Standard Time),275457.30000000075,039_o_m_h_a.png,I,m,449,13,2,1480.6000000005588,273976.7000000002,8006,VNB,A,12
13,test,5,0.0,1-Back,1,z,Thu Dec 12 2024 16:56:35 GMT-0600 (Central Standard Time),277106.4000000004,165_m_m_h_a.png,I,z,631,14,2,1646.9000000003725,275459.5,8006,VNB,A,13
14,test,5,1.0,1-Back,1,m,Thu Dec 12 2024 16:56:35 GMT-0600 (Central Standard Time),278522.7000000002,124_o_f_d_a.png,I,m,401,15,2,1414.2000000001863,277108.5,8006,VNB,A,14
15,test,5,0.0,1-Back,1,m,Thu Dec 12 2024 16:56:35 GMT-0600 (Central Standard Time),280022.0,109_y_m_n_a.png,I,m,478,16,2,1497.0999999996275,278524.9000000004,8006,VNB,A,15
16,test,5,0.0,1-Back,1,m,Thu Dec 12 2024 16:56:35 GMT-0600 (Central Standard Time),281504.80000000075,071_y_f_h_a.png,I,m,457,17,2,1480.6000000005588,280024.2000000002,8006,VNB,A,16
17,test,5,0.0,1-Back,1,m,Thu Dec 12 2024 16:56:35 GMT-0600 (Central Standard Time),283021.10000000056,165_m_m_d_a.png,I,m,487,18,2,1514.1000000005588,281507.0,8006,VNB,A,17
0,prac,1,0.0,2-Back,,,Thu Dec 12 2024 16:56:35 GMT-0600 (Central Standard Time),283021.10000000056,139_m_f_n_a.png,I,space,3833,1,2,1514.1000000005588,281507.0,8006,VNB,A,0
0,prac,1,0.0,2-Back,,,Thu Dec 12 2024 16:56:35 GMT-0600 (Central Standard Time),283021.10000000056,124_o_f_h_a.png,I,space,3833,2,2,1514.1000000005588,281507.0,8006,VNB,A,0
1,prac,1,0.0,2-Back,1,m,Thu Dec 12 2024 16:56:35 GMT-0600 (Central Standard Time),349533.9000000004,039_o_m_d_a.png,I,m,740,3,2,1529.2999999998137,348004.60000000056,8006,VNB,A,1
2,prac,1,1.0,2-Back,1,z,Thu Dec 12 2024 16:56:35 GMT-0600 (Central Standard Time),351466.7000000002,165_m_m_h_a.png,I,z,1132,4,2,1928.0,349538.7000000002,8006,VNB,A,2
3,prac,1,0.0,2-Back,1,m,Thu Dec 12 2024 16:56:35 GMT-0600 (Central Standard Time),352966.5,071_y_f_n_a.png,I,m,695,5,2,1495.8999999994412,351470.60000000056,8006,VNB,A,3
3,prac,1,1.0,2-Back,0,z,Thu Dec 12 2024 16:56:35 GMT-0600 (Central Standard Time),354549.0,039_o_m_h_a.png,I,m,807,6,2,1579.2999999998137,352969.7000000002,8006,VNB,A,4
3,prac,1,1.0,2-Back,0,z,Thu Dec 12 2024 16:56:35 GMT-0600 (Central Standard Time),356331.9000000004,109_y_m_n_a.png,I,m,969,7,2,1779.2999999998137,354552.60000000056,8006,VNB,A,5
4,prac,1,0.0,2-Back,1,m,Thu Dec 12 2024 16:56:35 GMT-0600 (Central Standard Time),357998.2000000002,139_m_f_d_a.png,I,m,864,8,2,1662.7999999998137,356335.4000000004,8006,VNB,A,6
4,prac,1,0.0,2-Back,0,m,Thu Dec 12 2024 16:56:35 GMT-0600 (Central Standard Time),359797.30000000075,124_o_f_d_a.png,I,z,958,9,2,1794.5,358002.80000000075,8006,VNB,A,7
5,prac,1,0.0,2-Back,1,m,Thu Dec 12 2024 16:56:35 GMT-0600 (Central Standard Time),361396.9000000004,165_m_m_h_a.png,I,m,824,10,2,1596.2000000001863,359800.7000000002,8006,VNB,A,8
6,prac,1,1.0,2-Back,1,z,Thu Dec 12 2024 16:56:35 GMT-0600 (Central Standard Time),363079.80000000075,071_y_f_d_a.png,I,z,880,11,2,1679.7000000001863,361400.10000000056,8006,VNB,A,9
7,prac,1,0.0,2-Back,1,m,Thu Dec 12 2024 16:56:35 GMT-0600 (Central Standard Time),364562.80000000075,039_o_m_n_a.png,I,m,678,12,2,1479.9000000003725,363082.9000000004,8006,VNB,A,10
0,test,1,0.0,2-Back,,,Thu Dec 12 2024 16:56:35 GMT-0600 (Central Standard Time),364562.80000000075,109_y_m_h_a.png,I,space,3460,1,2,1479.9000000003725,363082.9000000004,8006,VNB,A,0
0,test,1,0.0,2-Back,,,Thu Dec 12 2024 16:56:35 GMT-0600 (Central Standard Time),364562.80000000075,124_o_f_n_a.png,I,space,3460,2,2,1479.9000000003725,363082.9000000004,8006,VNB,A,0
1,test,1,0.0,2-Back,1,z,Thu Dec 12 2024 16:56:35 GMT-0600 (Central Standard Time),382057.2000000002,039_o_m_h_a.png,I,z,1165,3,2,2196.5,379860.7000000002,8006,VNB,A,1
2,test,1,0.0,2-Back,1,m,Thu Dec 12 2024 16:56:35 GMT-0600 (Central Standard Time),383989.80000000075,139_m_f_d_a.png,I,m,910,4,2,1930.1000000005588,382059.7000000002,8006,VNB,A,2
3,test,1,1.0,2-Back,1,m,Thu Dec 12 2024 16:56:35 GMT-0600 (Central Standard Time),385989.10000000056,109_y_m_n_a.png,I,m,978,5,2,1997.1000000005588,383992.0,8006,VNB,A,3
3,test,1,0.0,2-Back,0,z,Thu Dec 12 2024 16:56:35 GMT-0600 (Central Standard Time),388221.80000000075,071_y_f_d_a.png,I,m,1202,6,2,2230.4000000003725,385991.4000000004,8006,VNB,A,4
4,test,1,0.0,2-Back,1,m,Thu Dec 12 2024 16:56:35 GMT-0600 (Central Standard Time),389921.2000000002,165_m_m_h_a.png,I,m,666,7,2,1696.7999999998137,388224.4000000004,8006,VNB,A,5
5,test,1,1.0,2-Back,1,m,Thu Dec 12 2024 16:56:35 GMT-0600 (Central Standard Time),391587.60000000056,071_y_f_n_a.png,I,m,638,8,2,1663.7999999998137,389923.80000000075,8006,VNB,A,6
6,test,1,0.0,2-Back,1,z,Thu Dec 12 2024 16:56:35 GMT-0600 (Central Standard Time),393287.0,124_o_f_h_a.png,I,z,668,9,2,1696.7999999998137,391590.2000000002,8006,VNB,A,7
7,test,1,0.0,2-Back,1,m,Thu Dec 12 2024 16:56:35 GMT-0600 (Central Standard Time),394969.9000000004,039_o_m_d_a.png,I,m,649,10,2,1680.7000000001863,393289.2000000002,8006,VNB,A,8
8,test,1,1.0,2-Back,1,m,Thu Dec 12 2024 16:56:35 GMT-0600 (Central Standard Time),396869.10000000056,165_m_m_d_a.png,I,m,871,11,2,1896.9000000003725,394972.2000000002,8006,VNB,A,9
8,test,1,0.0,2-Back,0,m,Thu Dec 12 2024 16:56:35 GMT-0600 (Central Standard Time),398585.60000000056,139_m_f_n_a.png,I,z,682,12,2,1714.2000000001863,396871.4000000004,8006,VNB,A,10
9,test,1,0.0,2-Back,1,m,Thu Dec 12 2024 16:56:35 GMT-0600 (Central Standard Time),400534.60000000056,071_y_f_h_a.png,I,m,920,13,2,1946.6000000005588,398588.0,8006,VNB,A,11
9,test,1,0.0,2-Back,0,z,Thu Dec 12 2024 16:56:35 GMT-0600 (Central Standard Time),403050.60000000056,165_m_m_n_a.png,I,m,1481,14,2,2513.2999999998137,400537.30000000075,8006,VNB,A,12
10,test,1,0.0,2-Back,1,m,Thu Dec 12 2024 16:56:35 GMT-0600 (Central Standard Time),404566.7000000002,109_y_m_d_a.png,I,m,494,15,2,1514.0,403052.7000000002,8006,VNB,A,13
11,test,1,1.0,2-Back,1,m,Thu Dec 12 2024 16:56:35 GMT-0600 (Central Standard Time),406799.4000000004,139_m_f_h_a.png,I,m,1209,16,2,2230.2999999998137,404569.10000000056,8006,VNB,A,14
11,test,1,0.0,2-Back,0,z,Thu Dec 12 2024 16:56:35 GMT-0600 (Central Standard Time),408898.80000000075,124_o_f_d_a.png,I,m,1073,17,2,2097.100000000559,406801.7000000002,8006,VNB,A,15
12,test,1,0.0,2-Back,1,m,Thu Dec 12 2024 16:56:35 GMT-0600 (Central Standard Time),411131.60000000056,039_o_m_n_a.png,I,m,1205,18,2,2230.2999999998137,408901.30000000075,8006,VNB,A,16
0,test,2,0.0,2-Back,,,Thu Dec 12 2024 16:56:35 GMT-0600 (Central Standard Time),411131.60000000056,165_m_m_h_a.png,I,space,1109,1,2,2230.2999999998137,408901.30000000075,8006,VNB,A,0
0,test,2,0.0,2-Back,,,Thu Dec 12 2024 16:56:35 GMT-0600 (Central Standard Time),411131.60000000056,071_y_f_n_a.png,I,space,1109,2,2,2230.2999999998137,408901.30000000075,8006,VNB,A,0
1,test,2,1.0,2-Back,1,z,Thu Dec 12 2024 16:56:35 GMT-0600 (Central Standard Time),419355.60000000056,124_o_f_h_a.png,I,z,1007,3,2,2023.7000000001863,417331.9000000004,8006,VNB,A,1
2,test,2,0.0,2-Back,1,m,Thu Dec 12 2024 16:56:35 GMT-0600 (Central Standard Time),421244.7000000002,039_o_m_d_a.png,I,m,869,4,2,1886.5999999996275,419358.10000000056,8006,VNB,A,2
3,test,2,0.0,2-Back,1,m,Thu Dec 12 2024 16:56:35 GMT-0600 (Central Standard Time),423294.2000000002,139_m_f_d_a.png,I,m,1019,5,2,2047.0,421247.2000000002,8006,VNB,A,3
4,test,2,0.0,2-Back,1,m,Thu Dec 12 2024 16:56:35 GMT-0600 (Central Standard Time),425243.7000000002,109_y_m_h_a.png,I,m,929,6,2,1947.0999999996275,423296.60000000056,8006,VNB,A,4
5,test,2,0.0,2-Back,1,m,Thu Dec 12 2024 16:56:35 GMT-0600 (Central Standard Time),427826.2000000002,124_o_f_n_a.png,I,m,1556,7,2,2580.0999999996275,425246.10000000056,8006,VNB,A,5
5,test,2,1.0,2-Back,0,z,Thu Dec 12 2024 16:56:35 GMT-0600 (Central Standard Time),429810.0,039_o_m_h_a.png,I,m,949,8,2,1981.3999999994412,427828.60000000056,8006,VNB,A,6
6,test,2,0.0,2-Back,1,m,Thu Dec 12 2024 16:56:35 GMT-0600 (Central Standard Time),431774.5,071_y_f_d_a.png,I,m,942,9,2,1962.0,429812.5,8006,VNB,A,7
7,test,2,0.0,2-Back,1,m,Thu Dec 12 2024 16:56:35 GMT-0600 (Central Standard Time),433475.5,109_y_m_d_a.png,I,m,681,10,2,1698.7999999998137,431776.7000000002,8006,VNB,A,8
8,test,2,0.0,2-Back,1,m,Thu Dec 12 2024 16:56:35 GMT-0600 (Central Standard Time),435091.60000000056,165_m_m_n_a.png,I,m,597,11,2,1613.7000000001863,433477.9000000004,8006,VNB,A,9
9,test,2,0.0,2-Back,1,m,Thu Dec 12 2024 16:56:35 GMT-0600 (Central Standard Time),437040.10000000056,139_m_f_h_a.png,I,m,925,12,2,1946.0,435094.10000000056,8006,VNB,A,10
9,test,2,1.0,2-Back,0,z,Thu Dec 12 2024 16:56:35 GMT-0600 (Central Standard Time),439172.60000000056,039_o_m_n_a.png,I,m,1104,13,2,2129.2000000001863,437043.4000000004,8006,VNB,A,11
10,test,2,0.0,2-Back,1,m,Thu Dec 12 2024 16:56:35 GMT-0600 (Central Standard Time),440839.0,124_o_f_d_a.png,I,m,635,14,2,1664.0,439175.0,8006,VNB,A,12
11,test,2,0.0,2-Back,1,m,Thu Dec 12 2024 16:56:35 GMT-0600 (Central Standard Time),442504.9000000004,071_y_f_h_a.png,I,m,632,15,2,1663.0,440841.9000000004,8006,VNB,A,13
11,test,2,0.0,2-Back,0,z,Thu Dec 12 2024 16:56:35 GMT-0600 (Central Standard Time),444570.5,165_m_m_d_a.png,I,m,1047,16,2,2063.399999999441,442507.10000000056,8006,VNB,A,14
12,test,2,0.0,2-Back,1,m,Thu Dec 12 2024 16:56:35 GMT-0600 (Central Standard Time),447503.30000000075,109_y_m_n_a.png,I,m,1901,17,2,2930.7000000001863,444572.60000000056,8006,VNB,A,15
13,test,2,1.0,2-Back,1,m,Thu Dec 12 2024 16:56:35 GMT-0600 (Central Standard Time),449419.30000000075,139_m_f_n_a.png,I,m,889,18,2,1913.5,447505.80000000075,8006,VNB,A,16
0,test,3,1.0,2-Back,,,Thu Dec 12 2024 16:56:35 GMT-0600 (Central Standard Time),449419.30000000075,039_o_m_n_a.png,I,space,1086,1,2,1913.5,447505.80000000075,8006,VNB,A,0
0,test,3,1.0,2-Back,,,Thu Dec 12 2024 16:56:35 GMT-0600 (Central Standard Time),449419.30000000075,124_o_f_d_a.png,I,space,1086,2,2,1913.5,447505.80000000075,8006,VNB,A,0
1,test,3,0.0,2-Back,1,m,Thu Dec 12 2024 16:56:35 GMT-0600 (Central Standard Time),457416.80000000075,071_y_f_h_a.png,I,m,817,3,2,1846.800000000745,455570.0,8006,VNB,A,1
2,test,3,0.0,2-Back,1,z,Thu Dec 12 2024 16:56:35 GMT-0600 (Central Standard Time),460065.9000000004,139_m_f_d_a.png,I,z,1631,4,2,2646.7000000001863,457419.2000000002,8006,VNB,A,2
3,test,3,1.0,2-Back,1,m,Thu Dec 12 2024 16:56:35 GMT-0600 (Central Standard Time),461682.30000000075,109_y_m_n_a.png,I,m,598,5,2,1614.0,460068.30000000075,8006,VNB,A,3
4,test,3,0.0,2-Back,1,m,Thu Dec 12 2024 16:56:35 GMT-0600 (Central Standard Time),464081.5,039_o_m_h_a.png,I,m,1374,6,2,2397.0999999996275,461684.4000000004,8006,VNB,A,4
4,test,3,0.0,2-Back,0,z,Thu Dec 12 2024 16:56:35 GMT-0600 (Central Standard Time),467114.2000000002,071_y_f_n_a.png,I,None,2014,7,2,3030.399999999441,464083.80000000075,8006,VNB,A,5
4,test,3,1.0,2-Back,0,m,Thu Dec 12 2024 16:56:35 GMT-0600 (Central Standard Time),468829.9000000004,165_m_m_d_a.png,I,z,686,8,2,1713.5,467116.4000000004,8006,VNB,A,6
5,test,3,0.0,2-Back,1,m,Thu Dec 12 2024 16:56:35 GMT-0600 (Central Standard Time),470529.60000000056,109_y_m_d_a.png,I,m,674,9,2,1697.5,468832.10000000056,8006,VNB,A,7
6,test,3,0.0,2-Back,1,m,Thu Dec 12 2024 16:56:35 GMT-0600 (Central Standard Time),472679.9000000004,124_o_f_h_a.png,I,m,1118,10,2,2147.7999999998137,470532.10000000056,8006,VNB,A,8
7,test,3,1.0,2-Back,1,m,Thu Dec 12 2024 16:56:35 GMT-0600 (Central Standard Time),474594.80000000075,139_m_f_n_a.png,I,m,889,11,2,1912.5,472682.30000000075,8006,VNB,A,9
8,test,3,1.0,2-Back,1,z,Thu Dec 12 2024 16:56:35 GMT-0600 (Central Standard Time),476027.7000000002,165_m_m_h_a.png,I,z,412,12,2,1430.3999999994412,474597.30000000075,8006,VNB,A,10
9,test,3,0.0,2-Back,1,m,Thu Dec 12 2024 16:56:35 GMT-0600 (Central Standard Time),477743.80000000075,071_y_f_d_a.png,I,m,684,13,2,1713.800000000745,476030.0,8006,VNB,A,11
10,test,3,0.0,2-Back,1,m,Thu Dec 12 2024 16:56:35 GMT-0600 (Central Standard Time),479393.30000000075,124_o_f_n_a.png,I,m,624,14,2,1647.2000000001863,477746.10000000056,8006,VNB,A,12
10,test,3,0.0,2-Back,0,z,Thu Dec 12 2024 16:56:35 GMT-0600 (Central Standard Time),481159.60000000056,039_o_m_d_a.png,I,m,735,15,2,1763.9000000003725,479395.7000000002,8006,VNB,A,13
11,test,3,1.0,2-Back,1,m,Thu Dec 12 2024 16:56:35 GMT-0600 (Central Standard Time),482992.2000000002,139_m_f_h_a.png,I,m,808,16,2,1829.7000000001863,481162.5,8006,VNB,A,14
12,test,3,0.0,2-Back,1,m,Thu Dec 12 2024 16:56:35 GMT-0600 (Central Standard Time),485108.10000000056,165_m_m_n_a.png,I,m,1088,17,2,2113.5,482994.60000000056,8006,VNB,A,15
13,test,3,0.0,2-Back,1,z,Thu Dec 12 2024 16:56:35 GMT-0600 (Central Standard Time),486657.9000000004,109_y_m_h_a.png,I,z,532,18,2,1547.2999999998137,485110.60000000056,8006,VNB,A,16
0,test,4,0.0,2-Back,,,Thu Dec 12 2024 16:56:35 GMT-0600 (Central Standard Time),486657.9000000004,139_m_f_n_a.png,I,space,1327,1,2,1547.2999999998137,485110.60000000056,8006,VNB,A,0
0,test,4,0.0,2-Back,,,Thu Dec 12 2024 16:56:35 GMT-0600 (Central Standard Time),486657.9000000004,039_o_m_n_a.png,I,space,1327,2,2,1547.2999999998137,485110.60000000056,8006,VNB,A,0
1,test,4,1.0,2-Back,1,m,Thu Dec 12 2024 16:56:35 GMT-0600 (Central Standard Time),494788.2000000002,109_y_m_h_a.png,I,m,695,3,2,1713.5999999996275,493074.60000000056,8006,VNB,A,1
2,test,4,1.0,2-Back,1,m,Thu Dec 12 2024 16:56:35 GMT-0600 (Central Standard Time),496704.7000000002,124_o_f_d_a.png,I,m,891,4,2,1914.0,494790.7000000002,8006,VNB,A,2
3,test,4,0.0,2-Back,1,z,Thu Dec 12 2024 16:56:35 GMT-0600 (Central Standard Time),498170.80000000075,039_o_m_h_a.png,I,z,439,5,2,1463.6000000005588,496707.2000000002,8006,VNB,A,3
4,test,4,0.0,2-Back,1,m,Thu Dec 12 2024 16:56:35 GMT-0600 (Central Standard Time),499853.60000000056,165_m_m_n_a.png,I,m,653,6,2,1680.4000000003725,498173.2000000002,8006,VNB,A,4
5,test,4,0.0,2-Back,1,m,Thu Dec 12 2024 16:56:35 GMT-0600 (Central Standard Time),501536.7000000002,139_m_f_d_a.png,I,m,658,7,2,1680.7999999998137,499855.9000000004,8006,VNB,A,5
5,test,4,0.0,2-Back,0,z,Thu Dec 12 2024 16:56:35 GMT-0600 (Central Standard Time),503119.2000000002,071_y_f_n_a.png,I,m,560,8,2,1580.3999999994412,501538.80000000075,8006,VNB,A,6
6,test,4,1.0,2-Back,1,m,Thu Dec 12 2024 16:56:35 GMT-0600 (Central Standard Time),505218.5,124_o_f_h_a.png,I,m,1072,9,2,2096.899999999441,503121.60000000056,8006,VNB,A,7
7,test,4,0.0,2-Back,1,m,Thu Dec 12 2024 16:56:35 GMT-0600 (Central Standard Time),506734.80000000075,165_m_m_h_a.png,I,m,485,10,2,1513.1000000005588,505221.7000000002,8006,VNB,A,8
8,test,4,0.0,2-Back,1,m,Thu Dec 12 2024 16:56:35 GMT-0600 (Central Standard Time),508317.60000000056,071_y_f_d_a.png,I,m,561,11,2,1580.6000000005588,506737.0,8006,VNB,A,9
9,test,4,0.0,2-Back,1,m,Thu Dec 12 2024 16:56:35 GMT-0600 (Central Standard Time),509933.7000000002,109_y_m_n_a.png,I,m,594,12,2,1613.5,508320.2000000002,8006,VNB,A,10
9,test,4,0.0,2-Back,0,z,Thu Dec 12 2024 16:56:35 GMT-0600 (Central Standard Time),511800.0,039_o_m_d_a.png,I,m,842,13,2,1864.0,509936.0,8006,VNB,A,11
10,test,4,1.0,2-Back,1,m,Thu Dec 12 2024 16:56:35 GMT-0600 (Central Standard Time),513587.60000000056,139_m_f_h_a.png,I,m,623,14,2,1785.1000000005588,511802.5,8006,VNB,A,12
11,test,4,1.0,2-Back,1,m,Thu Dec 12 2024 16:56:35 GMT-0600 (Central Standard Time),515065.9000000004,071_y_f_h_a.png,I,m,449,15,2,1476.2999999998137,513589.60000000056,8006,VNB,A,13
12,test,4,0.0,2-Back,1,m,Thu Dec 12 2024 16:56:35 GMT-0600 (Central Standard Time),516931.30000000075,124_o_f_n_a.png,I,m,846,16,2,1862.7000000001863,515068.60000000056,8006,VNB,A,14
13,test,4,0.0,2-Back,1,m,Thu Dec 12 2024 16:56:35 GMT-0600 (Central Standard Time),518697.80000000075,109_y_m_d_a.png,I,m,740,17,2,1764.1000000005588,516933.7000000002,8006,VNB,A,15
14,test,4,1.0,2-Back,1,m,Thu Dec 12 2024 16:56:35 GMT-0600 (Central Standard Time),520647.30000000075,165_m_m_d_a.png,I,m,926,18,2,1947.2000000001863,518700.10000000056,8006,VNB,A,16
0,test,5,1.0,2-Back,,,Thu Dec 12 2024 16:56:35 GMT-0600 (Central Standard Time),520647.30000000075,071_y_f_d_a.png,I,space,882,1,2,1947.2000000001863,518700.10000000056,8006,VNB,A,0
0,test,5,1.0,2-Back,,,Thu Dec 12 2024 16:56:35 GMT-0600 (Central Standard Time),520647.30000000075,124_o_f_h_a.png,I,space,882,2,2,1947.2000000001863,518700.10000000056,8006,VNB,A,0
1,test,5,1.0,2-Back,1,z,Thu Dec 12 2024 16:56:35 GMT-0600 (Central Standard Time),528144.7000000002,039_o_m_d_a.png,I,z,508,3,2,1530.2999999998137,526614.4000000004,8006,VNB,A,1
2,test,5,1.0,2-Back,1,m,Thu Dec 12 2024 16:56:35 GMT-0600 (Central Standard Time),530060.8000000007,139_m_f_n_a.png,I,m,895,4,2,1913.800000000745,528147.0,8006,VNB,A,2
3,test,5,0.0,2-Back,1,m,Thu Dec 12 2024 16:56:35 GMT-0600 (Central Standard Time),532093.7000000002,165_m_m_h_a.png,I,m,1003,5,2,2030.5999999996275,530063.1000000006,8006,VNB,A,3
3,test,5,0.0,2-Back,0,z,Thu Dec 12 2024 16:56:35 GMT-0600 (Central Standard Time),534526.4000000004,071_y_f_n_a.png,I,m,1410,6,2,2430.4000000003725,532096.0,8006,VNB,A,4
4,test,5,0.0,2-Back,1,m,Thu Dec 12 2024 16:56:35 GMT-0600 (Central Standard Time),536642.2000000002,124_o_f_d_a.png,I,m,1098,7,2,2113.399999999441,534528.8000000007,8006,VNB,A,5
5,test,5,0.0,2-Back,1,m,Thu Dec 12 2024 16:56:35 GMT-0600 (Central Standard Time),538758.1000000006,039_o_m_h_a.png,I,m,1094,8,2,2113.7999999998137,536644.3000000007,8006,VNB,A,6
5,test,5,1.0,2-Back,0,z,Thu Dec 12 2024 16:56:35 GMT-0600 (Central Standard Time),541274.0,139_m_f_d_a.png,I,m,1482,9,2,2513.699999999255,538760.3000000007,8006,VNB,A,7
6,test,5,0.0,2-Back,1,m,Thu Dec 12 2024 16:56:35 GMT-0600 (Central Standard Time),543056.7000000002,109_y_m_n_a.png,I,m,758,10,2,1780.5999999996275,541276.1000000006,8006,VNB,A,8
7,test,5,0.0,2-Back,1,m,Thu Dec 12 2024 16:56:35 GMT-0600 (Central Standard Time),545022.9000000004,165_m_m_n_a.png,I,m,935,11,2,1963.7999999998137,543059.1000000006,8006,VNB,A,9
8,test,5,0.0,2-Back,1,m,Thu Dec 12 2024 16:56:35 GMT-0600 (Central Standard Time),547188.8000000007,071_y_f_h_a.png,I,m,1145,12,2,2163.600000000559,545025.2000000002,8006,VNB,A,10
9,test,5,0.0,2-Back,1,m,Thu Dec 12 2024 16:56:35 GMT-0600 (Central Standard Time),549055.0,109_y_m_d_a.png,I,m,843,13,2,1863.5,547191.5,8006,VNB,A,11
10,test,5,1.0,2-Back,1,z,Thu Dec 12 2024 16:56:35 GMT-0600 (Central Standard Time),550621.1000000006,139_m_f_h_a.png,I,z,545,14,2,1563.7000000001863,549057.4000000004,8006,VNB,A,12
11,test,5,0.0,2-Back,1,m,Thu Dec 12 2024 16:56:35 GMT-0600 (Central Standard Time),552253.9000000004,039_o_m_n_a.png,I,m,603,15,2,1630.4000000003725,550623.5,8006,VNB,A,13
12,test,5,0.0,2-Back,1,m,Thu Dec 12 2024 16:56:35 GMT-0600 (Central Standard Time),554170.0,165_m_m_d_a.png,I,m,889,16,2,1913.5999999996275,552256.4000000004,8006,VNB,A,14
12,test,5,0.0,2-Back,0,z,Thu Dec 12 2024 16:56:35 GMT-0600 (Central Standard Time),556002.9000000004,124_o_f_n_a.png,I,m,806,17,2,1830.5999999996275,554172.3000000007,8006,VNB,A,15
13,test,5,1.0,2-Back,1,m,Thu Dec 12 2024 16:56:35 GMT-0600 (Central Standard Time),557568.9000000004,109_y_m_h_a.png,I,m,541,18,2,1563.7999999998137,556005.1000000006,8006,VNB,A,16
