acc_sum,block,block_c,change,condition,correct,correct_response,datetime,endtime,face,project,response,response_time,row_sel,session_number,start_end,starttime,subject_id,task,task_vers,trial
0,prac,1,,1-Back,,,Fri Sep 20 2024 17:41:17 GMT-0500 (Central Daylight Time),,005_o_f_d_a.png,I,space,8620,1,1,,,8006,VNB,B,0
1,prac,1,0.0,1-Back,1,m,Fri Sep 20 2024 17:41:17 GMT-0500 (Central Daylight Time),157926.6000000001,020_y_f_n_a.png,I,m,560,2,1,1425.5,156501.1000000001,8006,VNB,B,1
1,prac,1,0.0,1-Back,0,m,Fri Sep 20 2024 17:41:17 GMT-0500 (Central Daylight Time),160825.7999999998,007_m_m_h_a.png,I,None,2015,3,1,2893.5,157932.2999999998,8006,VNB,B,2
2,prac,1,0.0,1-Back,1,m,Fri Sep 20 2024 17:41:17 GMT-0500 (Central Daylight Time),163375.0,016_y_m_d_a.png,I,m,1657,4,1,2543.7000000001863,160831.2999999998,8006,VNB,B,3
3,prac,1,0.0,1-Back,1,m,Fri Sep 20 2024 17:41:17 GMT-0500 (Central Daylight Time),165357.6000000001,005_o_f_n_a.png,I,m,1102,5,1,1977.5,163380.1000000001,8006,VNB,B,4
4,prac,1,1.0,1-Back,1,z,Fri Sep 20 2024 17:41:17 GMT-0500 (Central Daylight Time),167007.2999999998,016_y_m_n_a.png,I,z,756,6,1,1644.2999999998137,165363.0,8006,VNB,B,5
5,prac,1,0.0,1-Back,1,m,Fri Sep 20 2024 17:41:17 GMT-0500 (Central Daylight Time),168706.7999999998,004_o_m_h_a.png,I,m,830,7,1,1694.1999999997206,167012.6000000001,8006,VNB,B,6
6,prac,1,0.0,1-Back,1,m,Fri Sep 20 2024 17:41:17 GMT-0500 (Central Daylight Time),170472.7999999998,011_m_f_d_a.png,I,m,867,8,1,1759.3999999999069,168713.3999999999,8006,VNB,B,7
6,prac,1,1.0,1-Back,0,z,Fri Sep 20 2024 17:41:17 GMT-0500 (Central Daylight Time),172688.6000000001,020_y_f_d_a.png,I,m,1333,9,1,2209.9000000003725,170478.69999999972,8006,VNB,B,8
7,prac,1,0.0,1-Back,1,m,Fri Sep 20 2024 17:41:17 GMT-0500 (Central Daylight Time),174704.69999999972,007_m_m_n_a.png,I,m,1116,10,1,2010.8999999999069,172693.7999999998,8006,VNB,B,9
8,prac,1,0.0,1-Back,1,m,Fri Sep 20 2024 17:41:17 GMT-0500 (Central Daylight Time),176654.1000000001,005_o_f_h_a.png,I,m,1058,11,1,1944.4000000003725,174709.69999999972,8006,VNB,B,10
9,prac,1,0.0,1-Back,1,m,Fri Sep 20 2024 17:41:17 GMT-0500 (Central Daylight Time),178287.1000000001,016_y_m_d_a.png,I,m,740,12,1,1627.6000000000931,176659.5,8006,VNB,B,11
0,test,1,0.0,1-Back,,,Fri Sep 20 2024 17:41:17 GMT-0500 (Central Daylight Time),178287.1000000001,020_y_f_d_a.png,I,space,11585,1,1,1627.6000000000931,176659.5,8006,VNB,B,0
1,test,1,0.0,1-Back,1,m,Fri Sep 20 2024 17:41:17 GMT-0500 (Central Daylight Time),199247.0,011_m_f_n_a.png,I,m,929,2,1,1944.8999999999069,197302.1000000001,8006,VNB,B,1
2,test,1,0.0,1-Back,1,m,Fri Sep 20 2024 17:41:17 GMT-0500 (Central Daylight Time),201013.19999999972,004_o_m_h_a.png,I,m,747,3,1,1762.1999999997206,199251.0,8006,VNB,B,2
3,test,1,1.0,1-Back,1,z,Fri Sep 20 2024 17:41:17 GMT-0500 (Central Daylight Time),203045.8999999999,007_m_m_h_a.png,I,z,1013,4,1,2029.2999999998137,201016.6000000001,8006,VNB,B,3
4,test,1,0.0,1-Back,1,m,Fri Sep 20 2024 17:41:17 GMT-0500 (Central Daylight Time),204928.3999999999,005_o_f_n_a.png,I,m,852,5,1,1878.7999999998137,203049.6000000001,8006,VNB,B,4
5,test,1,0.0,1-Back,1,m,Fri Sep 20 2024 17:41:17 GMT-0500 (Central Daylight Time),206711.19999999972,016_y_m_d_a.png,I,m,762,6,1,1779.0999999996275,204932.1000000001,8006,VNB,B,5
6,test,1,1.0,1-Back,1,z,Fri Sep 20 2024 17:41:17 GMT-0500 (Central Daylight Time),208760.6000000001,011_m_f_d_a.png,I,z,1027,7,1,2046.2000000001863,206714.3999999999,8006,VNB,B,6
7,test,1,0.0,1-Back,1,m,Fri Sep 20 2024 17:41:17 GMT-0500 (Central Daylight Time),210376.3999999999,020_y_f_h_a.png,I,m,594,8,1,1611.6000000000931,208764.7999999998,8006,VNB,B,7
8,test,1,0.0,1-Back,1,m,Fri Sep 20 2024 17:41:17 GMT-0500 (Central Daylight Time),212243.0,004_o_m_n_a.png,I,m,842,9,1,1863.0,210380.0,8006,VNB,B,8
9,test,1,0.0,1-Back,1,m,Fri Sep 20 2024 17:41:17 GMT-0500 (Central Daylight Time),214159.0,016_y_m_h_a.png,I,m,854,10,1,1912.7000000001863,212246.2999999998,8006,VNB,B,9
10,test,1,0.0,1-Back,1,m,Fri Sep 20 2024 17:41:17 GMT-0500 (Central Daylight Time),216075.2999999998,004_o_m_d_a.png,I,m,866,11,1,1912.6000000000931,214162.69999999972,8006,VNB,B,10
11,test,1,1.0,1-Back,1,z,Fri Sep 20 2024 17:41:17 GMT-0500 (Central Daylight Time),218090.7999999998,005_o_f_d_a.png,I,z,958,12,1,2012.1999999997206,216078.6000000001,8006,VNB,B,11
12,test,1,0.0,1-Back,1,m,Fri Sep 20 2024 17:41:17 GMT-0500 (Central Daylight Time),220223.69999999972,007_m_m_n_a.png,I,m,1061,13,1,2128.7999999998137,218094.8999999999,8006,VNB,B,12
13,test,1,1.0,1-Back,1,z,Fri Sep 20 2024 17:41:17 GMT-0500 (Central Daylight Time),222189.7999999998,020_y_f_n_a.png,I,z,913,14,1,1962.1999999997206,220227.6000000001,8006,VNB,B,13
14,test,1,0.0,1-Back,1,m,Fri Sep 20 2024 17:41:17 GMT-0500 (Central Daylight Time),223972.5,011_m_f_h_a.png,I,m,723,15,1,1779.0,222193.5,8006,VNB,B,14
15,test,1,0.0,1-Back,1,m,Fri Sep 20 2024 17:41:17 GMT-0500 (Central Daylight Time),225755.19999999972,007_m_m_d_a.png,I,m,716,16,1,1778.8999999999069,223976.2999999998,8006,VNB,B,15
16,test,1,0.0,1-Back,1,m,Fri Sep 20 2024 17:41:17 GMT-0500 (Central Daylight Time),227488.19999999972,016_y_m_n_a.png,I,m,670,17,1,1728.7999999998137,225759.3999999999,8006,VNB,B,16
17,test,1,0.0,1-Back,1,m,Fri Sep 20 2024 17:41:17 GMT-0500 (Central Daylight Time),229320.8999999999,005_o_f_h_a.png,I,m,769,18,1,1828.3999999999069,227492.5,8006,VNB,B,17
0,test,2,0.0,1-Back,,,Fri Sep 20 2024 17:41:17 GMT-0500 (Central Daylight Time),229320.8999999999,016_y_m_n_a.png,I,space,1226,1,1,1828.3999999999069,227492.5,8006,VNB,B,0
1,test,2,0.0,1-Back,1,m,Fri Sep 20 2024 17:41:17 GMT-0500 (Central Daylight Time),234435.6000000001,020_y_f_h_a.png,I,m,849,2,1,1861.6000000000931,232574.0,8006,VNB,B,1
2,test,2,1.0,1-Back,1,m,Fri Sep 20 2024 17:41:17 GMT-0500 (Central Daylight Time),236485.3999999999,004_o_m_n_a.png,I,m,1031,3,1,2045.7000000001863,234439.69999999972,8006,VNB,B,2
3,test,2,0.0,1-Back,1,m,Fri Sep 20 2024 17:41:17 GMT-0500 (Central Daylight Time),238184.69999999972,011_m_f_d_a.png,I,m,677,4,1,1695.0999999996275,236489.6000000001,8006,VNB,B,3
4,test,2,0.0,1-Back,1,z,Fri Sep 20 2024 17:41:17 GMT-0500 (Central Daylight Time),240017.3999999999,007_m_m_d_a.png,I,z,801,5,1,1828.7000000001863,238188.69999999972,8006,VNB,B,4
5,test,2,0.0,1-Back,1,m,Fri Sep 20 2024 17:41:17 GMT-0500 (Central Daylight Time),241851.2999999998,016_y_m_h_a.png,I,m,809,6,1,1830.1999999997206,240021.1000000001,8006,VNB,B,5
6,test,2,1.0,1-Back,1,z,Fri Sep 20 2024 17:41:17 GMT-0500 (Central Daylight Time),243634.1000000001,005_o_f_h_a.png,I,z,752,7,1,1779.0,241855.1000000001,8006,VNB,B,6
7,test,2,0.0,1-Back,1,m,Fri Sep 20 2024 17:41:17 GMT-0500 (Central Daylight Time),245565.6000000001,011_m_f_n_a.png,I,m,913,8,1,1927.3000000002794,243638.2999999998,8006,VNB,B,7
8,test,2,0.0,1-Back,1,m,Fri Sep 20 2024 17:41:17 GMT-0500 (Central Daylight Time),247515.1000000001,020_y_f_d_a.png,I,m,916,9,1,1945.7000000001863,245569.3999999999,8006,VNB,B,8
9,test,2,0.0,1-Back,1,m,Fri Sep 20 2024 17:41:17 GMT-0500 (Central Daylight Time),249298.0,007_m_m_n_a.png,I,m,750,10,1,1779.3999999999069,247518.6000000001,8006,VNB,B,9
10,test,2,1.0,1-Back,1,m,Fri Sep 20 2024 17:41:17 GMT-0500 (Central Daylight Time),250880.69999999972,011_m_f_h_a.png,I,m,560,11,1,1578.8999999999069,249301.7999999998,8006,VNB,B,10
11,test,2,0.0,1-Back,1,z,Fri Sep 20 2024 17:41:17 GMT-0500 (Central Daylight Time),252347.0,004_o_m_h_a.png,I,z,442,12,1,1463.0,250884.0,8006,VNB,B,11
12,test,2,0.0,1-Back,1,m,Fri Sep 20 2024 17:41:17 GMT-0500 (Central Daylight Time),254013.1000000001,016_y_m_d_a.png,I,m,606,13,1,1661.9000000003725,252351.19999999972,8006,VNB,B,12
12,test,2,0.0,1-Back,0,m,Fri Sep 20 2024 17:41:17 GMT-0500 (Central Daylight Time),256145.69999999972,005_o_f_n_a.png,I,z,1068,14,1,2129.0,254016.69999999972,8006,VNB,B,13
12,test,2,0.0,1-Back,0,z,Fri Sep 20 2024 17:41:17 GMT-0500 (Central Daylight Time),258445.19999999972,020_y_f_n_a.png,I,m,1247,15,1,2295.2999999998137,256149.8999999999,8006,VNB,B,14
13,test,2,1.0,1-Back,1,m,Fri Sep 20 2024 17:41:17 GMT-0500 (Central Daylight Time),260211.19999999972,007_m_m_h_a.png,I,m,716,16,1,1762.3999999999069,258448.7999999998,8006,VNB,B,15
14,test,2,0.0,1-Back,1,m,Fri Sep 20 2024 17:41:17 GMT-0500 (Central Daylight Time),262477.1000000001,005_o_f_d_a.png,I,m,1206,17,1,2261.9000000003725,260215.19999999972,8006,VNB,B,16
15,test,2,1.0,1-Back,1,z,Fri Sep 20 2024 17:41:17 GMT-0500 (Central Daylight Time),264159.8999999999,004_o_m_d_a.png,I,z,628,18,1,1678.7000000001863,262481.1999999997,8006,VNB,B,17
0,test,3,1.0,1-Back,,,Fri Sep 20 2024 17:41:17 GMT-0500 (Central Daylight Time),264159.8999999999,005_o_f_h_a.png,I,space,835,1,1,1678.7000000001863,262481.1999999997,8006,VNB,B,0
1,test,3,0.0,1-Back,1,m,Fri Sep 20 2024 17:41:17 GMT-0500 (Central Daylight Time),268775.1999999997,011_m_f_d_a.png,I,m,629,2,1,1645.3999999999069,267129.7999999998,8006,VNB,B,1
2,test,3,1.0,1-Back,1,m,Fri Sep 20 2024 17:41:17 GMT-0500 (Central Daylight Time),271190.8999999999,007_m_m_n_a.png,I,m,1387,3,1,2411.5,268779.3999999999,8006,VNB,B,2
3,test,3,0.0,1-Back,1,z,Fri Sep 20 2024 17:41:17 GMT-0500 (Central Daylight Time),272923.7999999998,005_o_f_n_a.png,I,z,707,4,1,1728.8999999999069,271194.8999999999,8006,VNB,B,3
4,test,3,1.0,1-Back,1,m,Fri Sep 20 2024 17:41:17 GMT-0500 (Central Daylight Time),274839.8999999999,004_o_m_d_a.png,I,m,886,5,1,1912.3999999999069,272927.5,8006,VNB,B,4
5,test,3,0.0,1-Back,1,m,Fri Sep 20 2024 17:41:17 GMT-0500 (Central Daylight Time),276472.6999999997,020_y_f_h_a.png,I,m,602,6,1,1629.0,274843.6999999997,8006,VNB,B,5
6,test,3,0.0,1-Back,1,z,Fri Sep 20 2024 17:41:17 GMT-0500 (Central Daylight Time),278188.8999999999,016_y_m_h_a.png,I,z,698,7,1,1713.0,276475.8999999999,8006,VNB,B,6
7,test,3,0.0,1-Back,1,m,Fri Sep 20 2024 17:41:17 GMT-0500 (Central Daylight Time),279788.1999999997,011_m_f_n_a.png,I,m,548,8,1,1595.3999999999069,278192.7999999998,8006,VNB,B,7
8,test,3,0.0,1-Back,1,m,Fri Sep 20 2024 17:41:17 GMT-0500 (Central Daylight Time),281804.6000000001,020_y_f_d_a.png,I,m,957,9,1,2013.2000000001863,279791.3999999999,8006,VNB,B,8
9,test,3,1.0,1-Back,1,m,Fri Sep 20 2024 17:41:17 GMT-0500 (Central Daylight Time),283603.8999999999,004_o_m_n_a.png,I,m,724,10,1,1795.2000000001863,281808.6999999997,8006,VNB,B,9
10,test,3,0.0,1-Back,1,m,Fri Sep 20 2024 17:41:17 GMT-0500 (Central Daylight Time),285453.0,007_m_m_h_a.png,I,m,797,11,1,1844.5,283608.5,8006,VNB,B,10
11,test,3,0.0,1-Back,1,z,Fri Sep 20 2024 17:41:17 GMT-0500 (Central Daylight Time),287602.3999999999,011_m_f_h_a.png,I,z,1084,12,1,2145.0,285457.3999999999,8006,VNB,B,11
11,test,3,1.0,1-Back,0,m,Fri Sep 20 2024 17:41:17 GMT-0500 (Central Daylight Time),290668.2999999998,005_o_f_d_a.png,I,None,2015,13,1,3062.100000000093,287606.1999999997,8006,VNB,B,12
12,test,3,0.0,1-Back,1,z,Fri Sep 20 2024 17:41:17 GMT-0500 (Central Daylight Time),292517.6000000001,007_m_m_d_a.png,I,z,796,14,1,1845.6000000000931,290672.0,8006,VNB,B,13
13,test,3,0.0,1-Back,1,m,Fri Sep 20 2024 17:41:17 GMT-0500 (Central Daylight Time),294267.0,016_y_m_n_a.png,I,m,684,15,1,1745.5,292521.5,8006,VNB,B,14
14,test,3,1.0,1-Back,1,m,Fri Sep 20 2024 17:41:17 GMT-0500 (Central Daylight Time),296083.1999999997,004_o_m_h_a.png,I,m,758,16,1,1812.0999999996275,294271.1000000001,8006,VNB,B,15
15,test,3,0.0,1-Back,1,m,Fri Sep 20 2024 17:41:17 GMT-0500 (Central Daylight Time),297749.2999999998,016_y_m_d_a.png,I,m,589,17,1,1661.8999999999069,296087.3999999999,8006,VNB,B,16
16,test,3,1.0,1-Back,1,m,Fri Sep 20 2024 17:41:17 GMT-0500 (Central Daylight Time),299582.2999999998,020_y_f_n_a.png,I,m,780,18,1,1829.1999999997206,297753.1000000001,8006,VNB,B,17
0,test,4,1.0,1-Back,,,Fri Sep 20 2024 17:41:17 GMT-0500 (Central Daylight Time),299582.2999999998,007_m_m_d_a.png,I,space,964,1,1,1829.1999999997206,297753.1000000001,8006,VNB,B,0
1,test,4,0.0,1-Back,1,z,Fri Sep 20 2024 17:41:17 GMT-0500 (Central Daylight Time),304214.1000000001,004_o_m_d_a.png,I,z,622,2,1,1646.2000000001863,302567.8999999999,8006,VNB,B,1
2,test,4,0.0,1-Back,1,m,Fri Sep 20 2024 17:41:17 GMT-0500 (Central Daylight Time),305897.0,016_y_m_h_a.png,I,m,660,3,1,1679.7000000001863,304217.2999999998,8006,VNB,B,2
3,test,4,0.0,1-Back,1,m,Fri Sep 20 2024 17:41:17 GMT-0500 (Central Daylight Time),307579.6000000001,011_m_f_n_a.png,I,m,658,4,1,1679.3000000002794,305900.2999999998,8006,VNB,B,3
4,test,4,1.0,1-Back,1,m,Fri Sep 20 2024 17:41:17 GMT-0500 (Central Daylight Time),309579.1999999997,005_o_f_h_a.png,I,m,983,5,1,1996.2999999998137,307582.8999999999,8006,VNB,B,4
5,test,4,0.0,1-Back,1,m,Fri Sep 20 2024 17:41:17 GMT-0500 (Central Daylight Time),311095.2999999998,007_m_m_n_a.png,I,m,487,6,1,1512.3999999999069,309582.8999999999,8006,VNB,B,5
6,test,4,0.0,1-Back,1,m,Fri Sep 20 2024 17:41:17 GMT-0500 (Central Daylight Time),312794.6000000001,016_y_m_d_a.png,I,m,675,7,1,1695.4000000003725,311099.1999999997,8006,VNB,B,6
7,test,4,1.0,1-Back,1,z,Fri Sep 20 2024 17:41:17 GMT-0500 (Central Daylight Time),314510.7999999998,020_y_f_d_a.png,I,z,696,8,1,1712.3999999999069,312798.3999999999,8006,VNB,B,7
8,test,4,0.0,1-Back,1,m,Fri Sep 20 2024 17:41:17 GMT-0500 (Central Daylight Time),316543.3999999999,011_m_f_h_a.png,I,m,1002,9,1,2028.7999999998137,314514.6000000001,8006,VNB,B,8
9,test,4,0.0,1-Back,1,z,Fri Sep 20 2024 17:41:17 GMT-0500 (Central Daylight Time),318076.2999999998,004_o_m_h_a.png,I,z,515,10,1,1528.5,316547.7999999998,8006,VNB,B,9
10,test,4,1.0,1-Back,1,m,Fri Sep 20 2024 17:41:17 GMT-0500 (Central Daylight Time),319625.7999999998,005_o_f_n_a.png,I,m,526,11,1,1544.0,318081.7999999998,8006,VNB,B,10
11,test,4,0.0,1-Back,1,m,Fri Sep 20 2024 17:41:17 GMT-0500 (Central Daylight Time),321258.6000000001,011_m_f_d_a.png,I,m,609,12,1,1629.2000000001863,319629.3999999999,8006,VNB,B,11
11,test,4,0.0,1-Back,0,m,Fri Sep 20 2024 17:41:17 GMT-0500 (Central Daylight Time),323424.5,020_y_f_n_a.png,I,z,1144,13,1,2162.100000000093,321262.3999999999,8006,VNB,B,12
12,test,4,0.0,1-Back,1,m,Fri Sep 20 2024 17:41:17 GMT-0500 (Central Daylight Time),325107.5,005_o_f_d_a.png,I,m,650,14,1,1678.8999999999069,323428.6000000001,8006,VNB,B,13
13,test,4,0.0,1-Back,1,m,Fri Sep 20 2024 17:41:17 GMT-0500 (Central Daylight Time),326723.5,020_y_f_h_a.png,I,m,599,15,1,1612.2000000001863,325111.2999999998,8006,VNB,B,14
14,test,4,1.0,1-Back,1,z,Fri Sep 20 2024 17:41:17 GMT-0500 (Central Daylight Time),328239.6999999997,007_m_m_h_a.png,I,z,495,16,1,1512.2999999998137,326727.3999999999,8006,VNB,B,15
15,test,4,0.0,1-Back,1,m,Fri Sep 20 2024 17:41:17 GMT-0500 (Central Daylight Time),329840.3999999999,004_o_m_n_a.png,I,m,579,17,1,1596.7000000001863,328243.6999999997,8006,VNB,B,16
16,test,4,1.0,1-Back,1,z,Fri Sep 20 2024 17:41:17 GMT-0500 (Central Daylight Time),331622.3999999999,016_y_m_n_a.png,I,z,755,18,1,1778.6000000000931,329843.7999999998,8006,VNB,B,17
0,test,5,1.0,1-Back,,,Fri Sep 20 2024 17:41:17 GMT-0500 (Central Daylight Time),331622.3999999999,004_o_m_n_a.png,I,space,900,1,1,1778.6000000000931,329843.7999999998,8006,VNB,B,0
1,test,5,1.0,1-Back,1,m,Fri Sep 20 2024 17:41:17 GMT-0500 (Central Daylight Time),336287.3999999999,005_o_f_h_a.png,I,m,704,2,1,1728.8999999999069,334558.5,8006,VNB,B,1
2,test,5,0.0,1-Back,1,m,Fri Sep 20 2024 17:41:17 GMT-0500 (Central Daylight Time),338120.1000000001,016_y_m_d_a.png,I,m,803,3,1,1828.6000000000931,336291.5,8006,VNB,B,2
3,test,5,0.0,1-Back,1,z,Fri Sep 20 2024 17:41:17 GMT-0500 (Central Daylight Time),339952.5,004_o_m_d_a.png,I,z,811,4,1,1828.6000000000931,338123.8999999999,8006,VNB,B,3
4,test,5,0.0,1-Back,1,m,Fri Sep 20 2024 17:41:17 GMT-0500 (Central Daylight Time),341602.2999999998,011_m_f_h_a.png,I,m,618,5,1,1644.7999999998137,339957.5,8006,VNB,B,4
5,test,5,0.0,1-Back,1,m,Fri Sep 20 2024 17:41:17 GMT-0500 (Central Daylight Time),344151.5,020_y_f_n_a.png,I,m,1520,6,1,2545.3000000002794,341606.1999999997,8006,VNB,B,5
6,test,5,1.0,1-Back,1,z,Fri Sep 20 2024 17:41:17 GMT-0500 (Central Daylight Time),345850.8999999999,005_o_f_n_a.png,I,z,667,7,1,1695.7000000001863,344155.1999999997,8006,VNB,B,6
7,test,5,0.0,1-Back,1,m,Fri Sep 20 2024 17:41:17 GMT-0500 (Central Daylight Time),347450.1999999997,011_m_f_d_a.png,I,m,575,8,1,1596.1999999997206,345854.0,8006,VNB,B,7
8,test,5,0.0,1-Back,1,m,Fri Sep 20 2024 17:41:17 GMT-0500 (Central Daylight Time),349300.0,016_y_m_h_a.png,I,m,791,9,1,1846.1000000000931,347453.8999999999,8006,VNB,B,8
9,test,5,0.0,1-Back,1,m,Fri Sep 20 2024 17:41:17 GMT-0500 (Central Daylight Time),350882.7999999998,020_y_f_d_a.png,I,m,517,10,1,1578.6999999997206,349304.1000000001,8006,VNB,B,9
10,test,5,0.0,1-Back,1,m,Fri Sep 20 2024 17:41:17 GMT-0500 (Central Daylight Time),352582.1999999997,007_m_m_n_a.png,I,m,658,11,1,1696.1999999997206,350886.0,8006,VNB,B,10
11,test,5,1.0,1-Back,1,z,Fri Sep 20 2024 17:41:17 GMT-0500 (Central Daylight Time),354181.5,011_m_f_n_a.png,I,z,539,12,1,1595.5,352586.0,8006,VNB,B,11
12,test,5,0.0,1-Back,1,m,Fri Sep 20 2024 17:41:17 GMT-0500 (Central Daylight Time),355781.1000000001,004_o_m_h_a.png,I,m,539,13,1,1596.5,354184.6000000001,8006,VNB,B,12
13,test,5,0.0,1-Back,1,z,Fri Sep 20 2024 17:41:17 GMT-0500 (Central Daylight Time),357413.8999999999,007_m_m_h_a.png,I,z,580,14,1,1629.1000000000931,355784.7999999998,8006,VNB,B,13
14,test,5,1.0,1-Back,1,m,Fri Sep 20 2024 17:41:17 GMT-0500 (Central Daylight Time),359013.5,005_o_f_d_a.png,I,m,539,15,1,1596.6000000000931,357416.8999999999,8006,VNB,B,14
15,test,5,0.0,1-Back,1,m,Fri Sep 20 2024 17:41:17 GMT-0500 (Central Daylight Time),360596.2999999998,016_y_m_n_a.png,I,m,524,16,1,1579.1000000000931,359017.1999999997,8006,VNB,B,15
16,test,5,0.0,1-Back,1,m,Fri Sep 20 2024 17:41:17 GMT-0500 (Central Daylight Time),362295.7999999998,020_y_f_h_a.png,I,m,637,17,1,1695.7999999998137,360600.0,8006,VNB,B,16
17,test,5,0.0,1-Back,1,m,Fri Sep 20 2024 17:41:17 GMT-0500 (Central Daylight Time),363812.0,007_m_m_d_a.png,I,m,457,18,1,1512.0,362300.0,8006,VNB,B,17
0,prac,1,0.0,2-Back,,,Fri Sep 20 2024 17:41:17 GMT-0500 (Central Daylight Time),363812.0,011_m_f_n_a.png,I,space,8372,1,1,1512.0,362300.0,8006,VNB,B,0
0,prac,1,0.0,2-Back,,,Fri Sep 20 2024 17:41:17 GMT-0500 (Central Daylight Time),363812.0,005_o_f_h_a.png,I,space,8372,2,1,1512.0,362300.0,8006,VNB,B,0
1,prac,1,0.0,2-Back,1,m,Fri Sep 20 2024 17:41:17 GMT-0500 (Central Daylight Time),464080.7999999998,004_o_m_d_a.png,I,m,865,3,1,1727.5,462353.2999999998,8006,VNB,B,1
1,prac,1,1.0,2-Back,0,z,Fri Sep 20 2024 17:41:17 GMT-0500 (Central Daylight Time),466113.3999999999,007_m_m_h_a.png,I,m,1148,4,1,2027.2999999998137,464086.1000000001,8006,VNB,B,2
2,prac,1,0.0,2-Back,1,m,Fri Sep 20 2024 17:41:17 GMT-0500 (Central Daylight Time),468662.6000000001,020_y_f_n_a.png,I,m,1674,5,1,2542.9000000003725,466119.6999999997,8006,VNB,B,3
3,prac,1,1.0,2-Back,1,z,Fri Sep 20 2024 17:41:17 GMT-0500 (Central Daylight Time),470595.3999999999,004_o_m_h_a.png,I,z,1057,6,1,1927.8999999999069,468667.5,8006,VNB,B,4
3,prac,1,1.0,2-Back,0,z,Fri Sep 20 2024 17:41:17 GMT-0500 (Central Daylight Time),472678.0,016_y_m_n_a.png,I,m,1187,7,1,2076.5,470601.5,8006,VNB,B,5
3,prac,1,0.0,2-Back,0,m,Fri Sep 20 2024 17:41:17 GMT-0500 (Central Daylight Time),474693.7999999998,011_m_f_d_a.png,I,z,1134,8,1,2011.0,472682.7999999998,8006,VNB,B,6
3,prac,1,0.0,2-Back,0,m,Fri Sep 20 2024 17:41:17 GMT-0500 (Central Daylight Time),476394.1999999997,005_o_f_d_a.png,I,z,805,9,1,1694.5,474699.6999999997,8006,VNB,B,7
4,prac,1,0.0,2-Back,1,m,Fri Sep 20 2024 17:41:17 GMT-0500 (Central Daylight Time),477809.6999999997,007_m_m_h_a.png,I,m,635,10,1,1410.2999999998137,476399.3999999999,8006,VNB,B,8
4,prac,1,1.0,2-Back,0,z,Fri Sep 20 2024 17:41:17 GMT-0500 (Central Daylight Time),479692.2999999998,020_y_f_d_a.png,I,m,1005,11,1,1877.5,477814.7999999998,8006,VNB,B,9
4,prac,1,0.0,2-Back,0,m,Fri Sep 20 2024 17:41:17 GMT-0500 (Central Daylight Time),481241.8999999999,004_o_m_n_a.png,I,z,681,12,1,1544.1000000000931,479697.7999999998,8006,VNB,B,10
0,test,1,0.0,2-Back,,,Fri Sep 20 2024 17:41:17 GMT-0500 (Central Daylight Time),481241.8999999999,016_y_m_h_a.png,I,space,8167,1,1,1544.1000000000931,479697.7999999998,8006,VNB,B,0
0,test,1,0.0,2-Back,,,Fri Sep 20 2024 17:41:17 GMT-0500 (Central Daylight Time),481241.8999999999,005_o_f_n_a.png,I,space,8167,2,1,1544.1000000000931,479697.7999999998,8006,VNB,B,0
1,test,1,0.0,2-Back,1,z,Fri Sep 20 2024 17:41:17 GMT-0500 (Central Daylight Time),500519.0,004_o_m_h_a.png,I,z,580,3,1,1595.8000000002794,498923.1999999997,8006,VNB,B,1
2,test,1,0.0,2-Back,1,m,Fri Sep 20 2024 17:41:17 GMT-0500 (Central Daylight Time),502268.5,011_m_f_d_a.png,I,m,723,4,1,1746.1000000000931,500522.3999999999,8006,VNB,B,2
3,test,1,1.0,2-Back,1,m,Fri Sep 20 2024 17:41:17 GMT-0500 (Central Daylight Time),504301.1999999997,016_y_m_n_a.png,I,m,1014,5,1,2029.0,502272.1999999997,8006,VNB,B,3
4,test,1,0.0,2-Back,1,z,Fri Sep 20 2024 17:41:17 GMT-0500 (Central Daylight Time),506667.1999999997,020_y_f_d_a.png,I,z,1333,6,1,2362.0,504305.1999999997,8006,VNB,B,4
5,test,1,0.0,2-Back,1,m,Fri Sep 20 2024 17:41:17 GMT-0500 (Central Daylight Time),508532.8999999999,007_m_m_h_a.png,I,m,847,7,1,1862.7000000001863,506670.1999999997,8006,VNB,B,5
5,test,1,1.0,2-Back,0,m,Fri Sep 20 2024 17:41:17 GMT-0500 (Central Daylight Time),510249.3999999999,020_y_f_n_a.png,I,z,685,8,1,1712.5,508536.8999999999,8006,VNB,B,6
6,test,1,0.0,2-Back,1,z,Fri Sep 20 2024 17:41:17 GMT-0500 (Central Daylight Time),512315.2999999998,005_o_f_h_a.png,I,z,1041,9,1,2062.7999999998137,510252.5,8006,VNB,B,7
7,test,1,0.0,2-Back,1,m,Fri Sep 20 2024 17:41:17 GMT-0500 (Central Daylight Time),514298.1000000001,004_o_m_d_a.png,I,m,959,10,1,1979.7000000001863,512318.3999999999,8006,VNB,B,8
8,test,1,1.0,2-Back,1,m,Fri Sep 20 2024 17:41:17 GMT-0500 (Central Daylight Time),516064.3999999999,007_m_m_d_a.png,I,m,736,11,1,1762.7999999998137,514301.6000000001,8006,VNB,B,9
9,test,1,0.0,2-Back,1,m,Fri Sep 20 2024 17:41:17 GMT-0500 (Central Daylight Time),517998.2999999998,011_m_f_n_a.png,I,m,906,12,1,1930.1999999997206,516068.1000000001,8006,VNB,B,10
10,test,1,0.0,2-Back,1,m,Fri Sep 20 2024 17:41:17 GMT-0500 (Central Daylight Time),519913.0,020_y_f_h_a.png,I,m,893,13,1,1910.8000000002794,518002.1999999997,8006,VNB,B,11
10,test,1,0.0,2-Back,0,z,Fri Sep 20 2024 17:41:17 GMT-0500 (Central Daylight Time),522445.5,007_m_m_n_a.png,I,m,1513,14,1,2529.100000000093,519916.3999999999,8006,VNB,B,12
11,test,1,0.0,2-Back,1,m,Fri Sep 20 2024 17:41:17 GMT-0500 (Central Daylight Time),524578.1999999997,016_y_m_d_a.png,I,m,1101,15,1,2129.0999999996275,522449.1000000001,8006,VNB,B,13
11,test,1,1.0,2-Back,0,m,Fri Sep 20 2024 17:41:17 GMT-0500 (Central Daylight Time),526111.1000000001,011_m_f_h_a.png,I,z,512,16,1,1529.0,524582.1000000001,8006,VNB,B,14
11,test,1,0.0,2-Back,0,z,Fri Sep 20 2024 17:41:17 GMT-0500 (Central Daylight Time),528810.3999999999,005_o_f_d_a.png,I,m,1667,17,1,2695.600000000093,526114.7999999998,8006,VNB,B,15
12,test,1,0.0,2-Back,1,m,Fri Sep 20 2024 17:41:17 GMT-0500 (Central Daylight Time),530909.7999999998,004_o_m_n_a.png,I,m,1080,18,1,2096.100000000093,528813.6999999997,8006,VNB,B,16
0,test,2,0.0,2-Back,,,Fri Sep 20 2024 17:41:17 GMT-0500 (Central Daylight Time),530909.7999999998,007_m_m_h_a.png,I,space,1765,1,1,2096.100000000093,528813.6999999997,8006,VNB,B,0
0,test,2,0.0,2-Back,,,Fri Sep 20 2024 17:41:17 GMT-0500 (Central Daylight Time),530909.7999999998,020_y_f_n_a.png,I,space,1765,2,1,2096.100000000093,528813.6999999997,8006,VNB,B,0
1,test,2,1.0,2-Back,1,z,Fri Sep 20 2024 17:41:17 GMT-0500 (Central Daylight Time),539423.6000000001,005_o_f_h_a.png,I,z,478,3,1,1495.8000000002794,537927.7999999998,8006,VNB,B,1
2,test,2,0.0,2-Back,1,m,Fri Sep 20 2024 17:41:17 GMT-0500 (Central Daylight Time),541390.7999999998,004_o_m_d_a.png,I,m,946,4,1,1964.1000000000931,539426.6999999997,8006,VNB,B,2
3,test,2,0.0,2-Back,1,m,Fri Sep 20 2024 17:41:17 GMT-0500 (Central Daylight Time),544222.1000000001,011_m_f_d_a.png,I,m,1813,5,1,2827.2000000001863,541394.8999999999,8006,VNB,B,3
3,test,2,0.0,2-Back,0,m,Fri Sep 20 2024 17:41:17 GMT-0500 (Central Daylight Time),547254.3999999999,016_y_m_h_a.png,I,None,2015,6,1,3028.7999999998137,544225.6000000001,8006,VNB,B,4
4,test,2,0.0,2-Back,1,m,Fri Sep 20 2024 17:41:17 GMT-0500 (Central Daylight Time),548837.6000000001,005_o_f_n_a.png,I,m,556,7,1,1580.1000000000931,547257.5,8006,VNB,B,5
4,test,2,1.0,2-Back,0,z,Fri Sep 20 2024 17:41:17 GMT-0500 (Central Daylight Time),551036.6000000001,004_o_m_h_a.png,I,m,1173,8,1,2195.4000000003725,548841.1999999997,8006,VNB,B,6
5,test,2,0.0,2-Back,1,m,Fri Sep 20 2024 17:41:17 GMT-0500 (Central Daylight Time),553852.2999999998,020_y_f_d_a.png,I,m,1790,9,1,2812.100000000093,551040.1999999997,8006,VNB,B,7
5,test,2,0.0,2-Back,0,m,Fri Sep 20 2024 17:41:17 GMT-0500 (Central Daylight Time),555634.8999999999,016_y_m_d_a.png,I,z,758,10,1,1778.8999999999069,553856.0,8006,VNB,B,8
6,test,2,0.0,2-Back,1,m,Fri Sep 20 2024 17:41:17 GMT-0500 (Central Daylight Time),557534.6999999997,007_m_m_n_a.png,I,m,879,11,1,1896.0,555638.6999999997,8006,VNB,B,9
7,test,2,0.0,2-Back,1,m,Fri Sep 20 2024 17:41:17 GMT-0500 (Central Daylight Time),558800.8999999999,011_m_f_h_a.png,I,m,236,12,1,1263.2000000001863,557537.6999999997,8006,VNB,B,10
7,test,2,1.0,2-Back,0,z,Fri Sep 20 2024 17:41:17 GMT-0500 (Central Daylight Time),560100.2999999998,004_o_m_n_a.png,I,m,282,13,1,1296.1999999997206,558804.1000000001,8006,VNB,B,11
7,test,2,0.0,2-Back,0,m,Fri Sep 20 2024 17:41:17 GMT-0500 (Central Daylight Time),561383.3999999999,005_o_f_d_a.png,I,z,262,14,1,1279.7999999998137,560103.6000000001,8006,VNB,B,12
8,test,2,0.0,2-Back,1,m,Fri Sep 20 2024 17:41:17 GMT-0500 (Central Daylight Time),562566.2999999998,020_y_f_h_a.png,I,m,155,15,1,1179.8999999999069,561386.3999999999,8006,VNB,B,13
8,test,2,0.0,2-Back,0,z,Fri Sep 20 2024 17:41:17 GMT-0500 (Central Daylight Time),565599.0,007_m_m_d_a.png,I,None,2016,16,1,3029.0,562570.0,8006,VNB,B,14
8,test,2,0.0,2-Back,0,m,Fri Sep 20 2024 17:41:17 GMT-0500 (Central Daylight Time),568631.0,016_y_m_n_a.png,I,None,2016,17,1,3028.5,565602.5,8006,VNB,B,15
9,test,2,1.0,2-Back,1,m,Fri Sep 20 2024 17:41:17 GMT-0500 (Central Daylight Time),570347.5,011_m_f_n_a.png,I,m,699,18,1,1712.8000000002794,568634.6999999997,8006,VNB,B,16
0,test,3,1.0,2-Back,,,Fri Sep 20 2024 17:41:17 GMT-0500 (Central Daylight Time),570347.5,004_o_m_n_a.png,I,space,1207,1,1,1712.8000000002794,568634.6999999997,8006,VNB,B,0
0,test,3,1.0,2-Back,,,Fri Sep 20 2024 17:41:17 GMT-0500 (Central Daylight Time),570347.5,005_o_f_d_a.png,I,space,1207,2,1,1712.8000000002794,568634.6999999997,8006,VNB,B,0
0,test,3,0.0,2-Back,0,m,Fri Sep 20 2024 17:41:17 GMT-0500 (Central Daylight Time),579644.3999999999,020_y_f_h_a.png,I,None,2015,3,1,3028.7000000001863,576615.6999999997,8006,VNB,B,1
1,test,3,0.0,2-Back,1,z,Fri Sep 20 2024 17:41:17 GMT-0500 (Central Daylight Time),581577.1000000001,011_m_f_d_a.png,I,z,910,4,1,1929.3000000002794,579647.7999999998,8006,VNB,B,2
2,test,3,1.0,2-Back,1,m,Fri Sep 20 2024 17:41:17 GMT-0500 (Central Daylight Time),583393.1999999997,016_y_m_n_a.png,I,m,793,5,1,1812.5,581580.6999999997,8006,VNB,B,3
3,test,3,0.0,2-Back,1,m,Fri Sep 20 2024 17:41:17 GMT-0500 (Central Daylight Time),585376.0,004_o_m_h_a.png,I,m,953,6,1,1978.8000000002794,583397.1999999997,8006,VNB,B,4
3,test,3,0.0,2-Back,0,z,Fri Sep 20 2024 17:41:17 GMT-0500 (Central Daylight Time),588408.5,020_y_f_n_a.png,I,None,2015,7,1,3029.399999999907,585379.1000000001,8006,VNB,B,5
4,test,3,1.0,2-Back,1,m,Fri Sep 20 2024 17:41:17 GMT-0500 (Central Daylight Time),590059.3999999999,007_m_m_d_a.png,I,m,634,8,1,1647.2999999998137,588412.1000000001,8006,VNB,B,6
5,test,3,0.0,2-Back,1,m,Fri Sep 20 2024 17:41:17 GMT-0500 (Central Daylight Time),592106.9999999995,016_y_m_d_a.png,I,m,1017,9,1,2044.5999999996275,590062.3999999999,8006,VNB,B,7
5,test,3,0.0,2-Back,0,m,Fri Sep 20 2024 17:41:17 GMT-0500 (Central Daylight Time),595139.8000000003,005_o_f_h_a.png,I,None,2015,10,1,3029.100000000559,592110.6999999997,8006,VNB,B,8
6,test,3,1.0,2-Back,1,m,Fri Sep 20 2024 17:41:17 GMT-0500 (Central Daylight Time),596889.1000000001,011_m_f_n_a.png,I,m,719,11,1,1746.2000000001863,595142.8999999999,8006,VNB,B,9
7,test,3,1.0,2-Back,1,z,Fri Sep 20 2024 17:41:17 GMT-0500 (Central Daylight Time),598471.8000000003,007_m_m_h_a.png,I,z,562,12,1,1579.300000000745,596892.4999999995,8006,VNB,B,10
7,test,3,0.0,2-Back,0,m,Fri Sep 20 2024 17:41:17 GMT-0500 (Central Daylight Time),601504.1999999997,020_y_f_d_a.png,I,None,2016,13,1,3028.5,598475.6999999997,8006,VNB,B,11
8,test,3,0.0,2-Back,1,m,Fri Sep 20 2024 17:41:17 GMT-0500 (Central Daylight Time),603870.1000000001,005_o_f_n_a.png,I,m,1338,14,1,2362.4000000003725,601507.6999999997,8006,VNB,B,12
8,test,3,0.0,2-Back,0,z,Fri Sep 20 2024 17:41:17 GMT-0500 (Central Daylight Time),605936.1000000001,004_o_m_d_a.png,I,m,1037,15,1,2062.100000000559,603873.9999999995,8006,VNB,B,13
8,test,3,1.0,2-Back,0,m,Fri Sep 20 2024 17:41:17 GMT-0500 (Central Daylight Time),608018.8999999999,011_m_f_h_a.png,I,z,1050,16,1,2079.2000000001863,605939.6999999997,8006,VNB,B,14
9,test,3,0.0,2-Back,1,m,Fri Sep 20 2024 17:41:17 GMT-0500 (Central Daylight Time),610879.4999999995,007_m_m_n_a.png,I,m,1844,17,1,2857.0,608022.4999999995,8006,VNB,B,15
10,test,3,0.0,2-Back,1,z,Fri Sep 20 2024 17:41:17 GMT-0500 (Central Daylight Time),612383.9999999995,016_y_m_h_a.png,I,z,478,18,1,1500.0999999996275,610883.8999999999,8006,VNB,B,16
0,test,4,0.0,2-Back,,,Fri Sep 20 2024 17:41:17 GMT-0500 (Central Daylight Time),612383.9999999995,011_m_f_n_a.png,I,space,1235,1,1,1500.0999999996275,610883.8999999999,8006,VNB,B,0
0,test,4,0.0,2-Back,,,Fri Sep 20 2024 17:41:17 GMT-0500 (Central Daylight Time),612383.9999999995,004_o_m_n_a.png,I,space,1235,2,1,1500.0999999996275,610883.8999999999,8006,VNB,B,0
1,test,4,1.0,2-Back,1,m,Fri Sep 20 2024 17:41:17 GMT-0500 (Central Daylight Time),620698.3000000003,016_y_m_h_a.png,I,m,801,3,1,1830.0,618868.3000000003,8006,VNB,B,1
2,test,4,1.0,2-Back,1,m,Fri Sep 20 2024 17:41:17 GMT-0500 (Central Daylight Time),622614.1999999997,005_o_f_d_a.png,I,m,888,4,1,1912.2000000001863,620701.9999999995,8006,VNB,B,2
3,test,4,0.0,2-Back,1,z,Fri Sep 20 2024 17:41:17 GMT-0500 (Central Daylight Time),624579.9999999995,004_o_m_h_a.png,I,z,947,5,1,1962.0,622617.9999999995,8006,VNB,B,3
4,test,4,0.0,2-Back,1,m,Fri Sep 20 2024 17:41:17 GMT-0500 (Central Daylight Time),627079.4999999995,007_m_m_n_a.png,I,m,1470,6,1,2496.399999999441,624583.1000000001,8006,VNB,B,4
4,test,4,0.0,2-Back,0,m,Fri Sep 20 2024 17:41:17 GMT-0500 (Central Daylight Time),629261.9999999995,011_m_f_d_a.png,I,z,1163,7,1,2179.2999999998137,627082.6999999997,8006,VNB,B,5
4,test,4,0.0,2-Back,0,z,Fri Sep 20 2024 17:41:17 GMT-0500 (Central Daylight Time),630911.4999999995,020_y_f_n_a.png,I,m,619,8,1,1645.5999999996275,629265.8999999999,8006,VNB,B,6
5,test,4,1.0,2-Back,1,m,Fri Sep 20 2024 17:41:17 GMT-0500 (Central Daylight Time),632627.6999999997,005_o_f_h_a.png,I,m,684,9,1,1712.7999999998137,630914.8999999999,8006,VNB,B,7
5,test,4,0.0,2-Back,0,m,Fri Sep 20 2024 17:41:17 GMT-0500 (Central Daylight Time),635660.1000000001,007_m_m_h_a.png,I,None,2016,10,1,3028.4000000003725,632631.6999999997,8006,VNB,B,8
6,test,4,0.0,2-Back,1,m,Fri Sep 20 2024 17:41:17 GMT-0500 (Central Daylight Time),637559.3999999999,020_y_f_d_a.png,I,m,870,11,1,1895.7000000001863,635663.6999999997,8006,VNB,B,9
7,test,4,0.0,2-Back,1,m,Fri Sep 20 2024 17:41:17 GMT-0500 (Central Daylight Time),639142.3000000003,016_y_m_n_a.png,I,m,563,12,1,1579.4000000003725,637562.8999999999,8006,VNB,B,10
8,test,4,0.0,2-Back,1,z,Fri Sep 20 2024 17:41:17 GMT-0500 (Central Daylight Time),641074.8999999999,004_o_m_d_a.png,I,z,900,13,1,1928.7000000001863,639146.1999999997,8006,VNB,B,11
9,test,4,1.0,2-Back,1,m,Fri Sep 20 2024 17:41:17 GMT-0500 (Central Daylight Time),642874.3999999999,011_m_f_h_a.png,I,m,775,14,1,1795.7000000001863,641078.6999999997,8006,VNB,B,12
9,test,4,1.0,2-Back,0,m,Fri Sep 20 2024 17:41:17 GMT-0500 (Central Daylight Time),645173.6999999997,020_y_f_h_a.png,I,z,1280,15,1,2295.5,642878.1999999997,8006,VNB,B,13
10,test,4,0.0,2-Back,1,m,Fri Sep 20 2024 17:41:17 GMT-0500 (Central Daylight Time),647123.3000000003,005_o_f_n_a.png,I,m,917,16,1,1946.1000000005588,645177.1999999997,8006,VNB,B,14
11,test,4,0.0,2-Back,1,m,Fri Sep 20 2024 17:41:17 GMT-0500 (Central Daylight Time),648722.6999999997,016_y_m_d_a.png,I,m,567,17,1,1595.5999999996275,647127.1000000001,8006,VNB,B,15
11,test,4,1.0,2-Back,0,m,Fri Sep 20 2024 17:41:17 GMT-0500 (Central Daylight Time),651088.4999999995,007_m_m_d_a.png,I,z,1344,18,1,2362.199999999255,648726.3000000003,8006,VNB,B,16
0,test,5,1.0,2-Back,,,Fri Sep 20 2024 17:41:17 GMT-0500 (Central Daylight Time),651088.4999999995,020_y_f_d_a.png,I,space,2683,1,1,2362.199999999255,648726.3000000003,8006,VNB,B,0
0,test,5,1.0,2-Back,,,Fri Sep 20 2024 17:41:17 GMT-0500 (Central Daylight Time),651088.4999999995,005_o_f_h_a.png,I,space,2683,2,1,2362.199999999255,648726.3000000003,8006,VNB,B,0
1,test,5,1.0,2-Back,1,z,Fri Sep 20 2024 17:41:17 GMT-0500 (Central Daylight Time),660502.1999999997,004_o_m_d_a.png,I,z,455,3,1,1479.7999999998137,659022.3999999999,8006,VNB,B,1
2,test,5,1.0,2-Back,1,m,Fri Sep 20 2024 17:41:17 GMT-0500 (Central Daylight Time),662268.4999999995,011_m_f_n_a.png,I,m,740,4,1,1762.5,660505.9999999995,8006,VNB,B,2
3,test,5,0.0,2-Back,1,m,Fri Sep 20 2024 17:41:17 GMT-0500 (Central Daylight Time),664317.6999999997,007_m_m_h_a.png,I,m,1030,5,1,2046.0999999996275,662271.6000000001,8006,VNB,B,3
3,test,5,0.0,2-Back,0,z,Fri Sep 20 2024 17:41:17 GMT-0500 (Central Daylight Time),666233.8000000003,020_y_f_n_a.png,I,m,885,6,1,1912.300000000745,664321.4999999995,8006,VNB,B,4
4,test,5,0.0,2-Back,1,m,Fri Sep 20 2024 17:41:17 GMT-0500 (Central Daylight Time),668349.6999999997,005_o_f_d_a.png,I,m,1089,7,1,2112.2000000001863,666237.4999999995,8006,VNB,B,5
4,test,5,0.0,2-Back,0,m,Fri Sep 20 2024 17:41:17 GMT-0500 (Central Daylight Time),670332.4999999995,004_o_m_h_a.png,I,z,965,8,1,1979.0,668353.4999999995,8006,VNB,B,6
4,test,5,1.0,2-Back,0,z,Fri Sep 20 2024 17:41:17 GMT-0500 (Central Daylight Time),672181.9999999995,011_m_f_d_a.png,I,m,830,9,1,1845.699999999255,670336.3000000003,8006,VNB,B,7
5,test,5,0.0,2-Back,1,m,Fri Sep 20 2024 17:41:17 GMT-0500 (Central Daylight Time),673748.1000000001,016_y_m_n_a.png,I,m,548,10,1,1562.4000000003725,672185.6999999997,8006,VNB,B,8
5,test,5,0.0,2-Back,0,m,Fri Sep 20 2024 17:41:17 GMT-0500 (Central Daylight Time),675497.6999999997,007_m_m_n_a.png,I,z,718,11,1,1746.2000000001863,673751.4999999995,8006,VNB,B,9
6,test,5,0.0,2-Back,1,m,Fri Sep 20 2024 17:41:17 GMT-0500 (Central Daylight Time),677180.6000000001,020_y_f_h_a.png,I,m,657,12,1,1679.2999999998137,675501.3000000003,8006,VNB,B,10
7,test,5,0.0,2-Back,1,m,Fri Sep 20 2024 17:41:17 GMT-0500 (Central Daylight Time),678796.3000000003,016_y_m_d_a.png,I,m,598,13,1,1611.9000000003725,677184.3999999999,8006,VNB,B,11
7,test,5,1.0,2-Back,0,z,Fri Sep 20 2024 17:41:17 GMT-0500 (Central Daylight Time),680362.8000000003,011_m_f_h_a.png,I,m,542,14,1,1563.2000000001863,678799.6000000001,8006,VNB,B,12
8,test,5,0.0,2-Back,1,m,Fri Sep 20 2024 17:41:17 GMT-0500 (Central Daylight Time),682028.8000000003,004_o_m_n_a.png,I,m,559,15,1,1662.300000000745,680366.4999999995,8006,VNB,B,13
9,test,5,0.0,2-Back,1,m,Fri Sep 20 2024 17:41:17 GMT-0500 (Central Daylight Time),683728.3999999999,007_m_m_d_a.png,I,m,677,16,1,1695.9000000003725,682032.4999999995,8006,VNB,B,14
9,test,5,0.0,2-Back,0,z,Fri Sep 20 2024 17:41:17 GMT-0500 (Central Daylight Time),685277.8999999999,005_o_f_n_a.png,I,m,530,17,1,1546.0,683731.8999999999,8006,VNB,B,15
9,test,5,1.0,2-Back,0,m,Fri Sep 20 2024 17:41:17 GMT-0500 (Central Daylight Time),686744.1000000001,016_y_m_h_a.png,I,z,445,18,1,1462.4000000003725,685281.6999999997,8006,VNB,B,16
