acc_sum,block,block_c,change,condition,correct,correct_response,datetime,endtime,face,project,response,response_time,row_sel,session_number,start_end,starttime,subject_id,task,task_vers,trial
0,prac,1,,1-Back,,,Tue Apr 15 2025 17:25:28 GMT-0500 (Central Daylight Time),,012_o_f_d_a.png,I,space,1523,1,3,,,8006,VNB,C,0
1,prac,1,0.0,1-Back,1,m,Tue Apr 15 2025 17:25:28 GMT-0500 (Central Daylight Time),350138.1000000001,022_y_f_n_a.png,I,m,647,2,3,1542.3999999999069,348595.7000000002,8006,VNB,C,1
1,prac,1,0.0,1-Back,0,m,Tue Apr 15 2025 17:25:28 GMT-0500 (Central Daylight Time),351954.2999999998,014_m_m_h_a.png,I,z,928,3,3,1809.0999999996275,350145.2000000002,8006,VNB,C,2
2,prac,1,0.0,1-Back,1,m,Tue Apr 15 2025 17:25:28 GMT-0500 (Central Daylight Time),353770.2000000002,025_y_m_d_a.png,I,m,934,4,3,1808.3000000002794,351961.8999999999,8006,VNB,C,3
3,prac,1,0.0,1-Back,1,m,Tue Apr 15 2025 17:25:28 GMT-0500 (Central Daylight Time),355253.1000000001,012_o_f_n_a.png,I,m,568,5,3,1475.8999999999069,353777.2000000002,8006,VNB,C,4
3,prac,1,1.0,1-Back,0,z,Tue Apr 15 2025 17:25:28 GMT-0500 (Central Daylight Time),357036.0,025_y_m_n_a.png,I,m,902,6,3,1775.7999999998137,355260.2000000002,8006,VNB,C,5
4,prac,1,0.0,1-Back,1,m,Tue Apr 15 2025 17:25:28 GMT-0500 (Central Daylight Time),358885.2999999998,015_o_m_h_a.png,I,m,947,7,3,1842.8999999999069,357042.3999999999,8006,VNB,C,6
5,prac,1,0.0,1-Back,1,m,Tue Apr 15 2025 17:25:28 GMT-0500 (Central Daylight Time),360568.0,019_m_f_d_a.png,I,m,776,8,3,1675.0,358893.0,8006,VNB,C,7
6,prac,1,1.0,1-Back,1,z,Tue Apr 15 2025 17:25:28 GMT-0500 (Central Daylight Time),362300.8999999999,022_y_f_d_a.png,I,z,828,9,3,1725.2999999998137,360575.6000000001,8006,VNB,C,8
7,prac,1,0.0,1-Back,1,m,Tue Apr 15 2025 17:25:28 GMT-0500 (Central Daylight Time),364383.7000000002,014_m_m_n_a.png,I,m,1200,10,3,2074.9000000003725,362308.7999999998,8006,VNB,C,9
8,prac,1,0.0,1-Back,1,m,Tue Apr 15 2025 17:25:28 GMT-0500 (Central Daylight Time),365850.7999999998,012_o_f_h_a.png,I,m,592,11,3,1462.0,364388.7999999998,8006,VNB,C,10
9,prac,1,0.0,1-Back,1,m,Tue Apr 15 2025 17:25:28 GMT-0500 (Central Daylight Time),367432.7000000002,025_y_m_d_a.png,I,m,694,12,3,1575.1000000000931,365857.6000000001,8006,VNB,C,11
0,test,1,0.0,1-Back,,,Tue Apr 15 2025 17:25:28 GMT-0500 (Central Daylight Time),367432.7000000002,022_y_f_d_a.png,I,space,8333,1,3,1575.1000000000931,365857.6000000001,8006,VNB,C,0
1,test,1,0.0,1-Back,1,m,Tue Apr 15 2025 17:25:28 GMT-0500 (Central Daylight Time),385776.6000000001,019_m_f_n_a.png,I,m,794,2,3,1810.8999999999069,383965.7000000002,8006,VNB,C,1
2,test,1,0.0,1-Back,1,m,Tue Apr 15 2025 17:25:28 GMT-0500 (Central Daylight Time),388242.6000000001,015_o_m_h_a.png,I,m,1433,3,3,2461.3000000002794,385781.2999999998,8006,VNB,C,2
3,test,1,1.0,1-Back,1,z,Tue Apr 15 2025 17:25:28 GMT-0500 (Central Daylight Time),390125.2999999998,014_m_m_h_a.png,I,z,864,4,3,1879.1999999997206,388246.1000000001,8006,VNB,C,3
4,test,1,0.0,1-Back,1,m,Tue Apr 15 2025 17:25:28 GMT-0500 (Central Daylight Time),391791.7000000002,012_o_f_n_a.png,I,m,645,5,3,1662.9000000003725,390128.7999999998,8006,VNB,C,4
5,test,1,0.0,1-Back,1,m,Tue Apr 15 2025 17:25:28 GMT-0500 (Central Daylight Time),394141.0,025_y_m_d_a.png,I,m,1323,6,3,2344.2999999998137,391796.7000000002,8006,VNB,C,5
6,test,1,1.0,1-Back,1,z,Tue Apr 15 2025 17:25:28 GMT-0500 (Central Daylight Time),396023.3999999999,019_m_f_d_a.png,I,z,853,7,3,1878.3999999999069,394145.0,8006,VNB,C,6
7,test,1,0.0,1-Back,1,m,Tue Apr 15 2025 17:25:28 GMT-0500 (Central Daylight Time),397756.3999999999,022_y_f_h_a.png,I,m,706,8,3,1728.5,396027.8999999999,8006,VNB,C,7
8,test,1,0.0,1-Back,1,m,Tue Apr 15 2025 17:25:28 GMT-0500 (Central Daylight Time),399539.2999999998,015_o_m_n_a.png,I,m,766,9,3,1778.6999999997206,397760.6000000001,8006,VNB,C,8
9,test,1,0.0,1-Back,1,m,Tue Apr 15 2025 17:25:28 GMT-0500 (Central Daylight Time),401388.6000000001,025_y_m_h_a.png,I,m,790,10,3,1844.8000000002794,399543.7999999998,8006,VNB,C,9
10,test,1,0.0,1-Back,1,m,Tue Apr 15 2025 17:25:28 GMT-0500 (Central Daylight Time),403071.2000000002,015_o_m_d_a.png,I,m,662,11,3,1678.2000000001863,401393.0,8006,VNB,C,10
11,test,1,1.0,1-Back,1,z,Tue Apr 15 2025 17:25:28 GMT-0500 (Central Daylight Time),404937.2999999998,012_o_f_d_a.png,I,z,843,12,3,1861.7999999998137,403075.5,8006,VNB,C,11
12,test,1,0.0,1-Back,1,m,Tue Apr 15 2025 17:25:28 GMT-0500 (Central Daylight Time),406503.5,014_m_m_n_a.png,I,m,545,13,3,1561.7999999998137,404941.7000000002,8006,VNB,C,12
13,test,1,1.0,1-Back,1,z,Tue Apr 15 2025 17:25:28 GMT-0500 (Central Daylight Time),408269.6000000001,022_y_f_n_a.png,I,z,739,14,3,1761.8999999999069,406507.7000000002,8006,VNB,C,13
14,test,1,0.0,1-Back,1,m,Tue Apr 15 2025 17:25:28 GMT-0500 (Central Daylight Time),409885.7000000002,019_m_f_h_a.png,I,m,589,15,3,1611.2000000001863,408274.5,8006,VNB,C,14
15,test,1,0.0,1-Back,1,m,Tue Apr 15 2025 17:25:28 GMT-0500 (Central Daylight Time),411735.2999999998,014_m_m_d_a.png,I,m,820,16,3,1845.2999999998137,409890.0,8006,VNB,C,15
16,test,1,0.0,1-Back,1,m,Tue Apr 15 2025 17:25:28 GMT-0500 (Central Daylight Time),413501.3999999999,025_y_m_n_a.png,I,m,747,17,3,1761.7999999998137,411739.6000000001,8006,VNB,C,16
17,test,1,0.0,1-Back,1,m,Tue Apr 15 2025 17:25:28 GMT-0500 (Central Daylight Time),415100.7000000002,012_o_f_h_a.png,I,m,573,18,3,1595.1000000000931,413505.6000000001,8006,VNB,C,17
0,test,2,0.0,1-Back,,,Tue Apr 15 2025 17:25:28 GMT-0500 (Central Daylight Time),415100.7000000002,025_y_m_n_a.png,I,space,1270,1,3,1595.1000000000931,413505.6000000001,8006,VNB,C,0
1,test,2,0.0,1-Back,1,m,Tue Apr 15 2025 17:25:28 GMT-0500 (Central Daylight Time),420632.5,022_y_f_h_a.png,I,m,1210,2,3,2228.399999999907,418404.1000000001,8006,VNB,C,1
2,test,2,1.0,1-Back,1,m,Tue Apr 15 2025 17:25:28 GMT-0500 (Central Daylight Time),422331.8999999999,015_o_m_n_a.png,I,m,673,3,3,1694.8999999999069,420637.0,8006,VNB,C,2
3,test,2,0.0,1-Back,1,m,Tue Apr 15 2025 17:25:28 GMT-0500 (Central Daylight Time),424158.7000000002,019_m_f_d_a.png,I,m,809,4,3,1822.2000000001863,422336.5,8006,VNB,C,3
3,test,2,0.0,1-Back,0,z,Tue Apr 15 2025 17:25:28 GMT-0500 (Central Daylight Time),426280.7000000002,014_m_m_d_a.png,I,m,1093,5,3,2116.600000000093,424164.1000000001,8006,VNB,C,4
4,test,2,0.0,1-Back,1,m,Tue Apr 15 2025 17:25:28 GMT-0500 (Central Daylight Time),427996.7000000002,025_y_m_h_a.png,I,m,690,6,3,1711.4000000003725,426285.2999999998,8006,VNB,C,5
5,test,2,1.0,1-Back,1,z,Tue Apr 15 2025 17:25:28 GMT-0500 (Central Daylight Time),429563.0,012_o_f_h_a.png,I,z,549,7,3,1561.7999999998137,428001.2000000002,8006,VNB,C,6
6,test,2,0.0,1-Back,1,m,Tue Apr 15 2025 17:25:28 GMT-0500 (Central Daylight Time),431096.0,019_m_f_n_a.png,I,m,503,8,3,1528.3999999999069,429567.6000000001,8006,VNB,C,7
7,test,2,0.0,1-Back,1,m,Tue Apr 15 2025 17:25:28 GMT-0500 (Central Daylight Time),432728.6000000001,022_y_f_d_a.png,I,m,601,9,3,1629.0,431099.6000000001,8006,VNB,C,8
8,test,2,0.0,1-Back,1,m,Tue Apr 15 2025 17:25:28 GMT-0500 (Central Daylight Time),434278.1000000001,014_m_m_n_a.png,I,m,530,10,3,1545.3999999999069,432732.7000000002,8006,VNB,C,9
9,test,2,1.0,1-Back,1,m,Tue Apr 15 2025 17:25:28 GMT-0500 (Central Daylight Time),435744.3999999999,019_m_f_h_a.png,I,m,436,11,3,1461.6999999997206,434282.7000000002,8006,VNB,C,10
10,test,2,0.0,1-Back,1,z,Tue Apr 15 2025 17:25:28 GMT-0500 (Central Daylight Time),437477.1000000001,015_o_m_h_a.png,I,z,706,12,3,1729.0,435748.1000000001,8006,VNB,C,11
11,test,2,0.0,1-Back,1,m,Tue Apr 15 2025 17:25:28 GMT-0500 (Central Daylight Time),439026.7999999998,025_y_m_d_a.png,I,m,525,13,3,1546.0999999996275,437480.7000000002,8006,VNB,C,12
12,test,2,0.0,1-Back,1,m,Tue Apr 15 2025 17:25:28 GMT-0500 (Central Daylight Time),440759.5,012_o_f_n_a.png,I,m,712,14,3,1728.2999999998137,439031.2000000002,8006,VNB,C,13
13,test,2,0.0,1-Back,1,z,Tue Apr 15 2025 17:25:28 GMT-0500 (Central Daylight Time),442375.6000000001,022_y_f_n_a.png,I,z,595,15,3,1611.7000000001863,440763.8999999999,8006,VNB,C,14
14,test,2,1.0,1-Back,1,m,Tue Apr 15 2025 17:25:28 GMT-0500 (Central Daylight Time),443875.2000000002,014_m_m_h_a.png,I,m,483,16,3,1495.8000000002794,442379.3999999999,8006,VNB,C,15
15,test,2,0.0,1-Back,1,m,Tue Apr 15 2025 17:25:28 GMT-0500 (Central Daylight Time),445591.5,012_o_f_d_a.png,I,m,695,17,3,1712.0,443879.5,8006,VNB,C,16
16,test,2,1.0,1-Back,1,z,Tue Apr 15 2025 17:25:28 GMT-0500 (Central Daylight Time),447324.0,015_o_m_d_a.png,I,z,707,18,3,1728.2000000001863,445595.7999999998,8006,VNB,C,17
0,test,3,1.0,1-Back,,,Tue Apr 15 2025 17:25:28 GMT-0500 (Central Daylight Time),447324.0,012_o_f_h_a.png,I,space,1262,1,3,1728.2000000001863,445595.7999999998,8006,VNB,C,0
1,test,3,0.0,1-Back,1,m,Tue Apr 15 2025 17:25:28 GMT-0500 (Central Daylight Time),452405.7999999998,019_m_f_d_a.png,I,m,663,2,3,1677.7999999998137,450728.0,8006,VNB,C,1
2,test,3,1.0,1-Back,1,m,Tue Apr 15 2025 17:25:28 GMT-0500 (Central Daylight Time),454321.7999999998,014_m_m_n_a.png,I,m,884,3,3,1911.5999999996275,452410.2000000002,8006,VNB,C,2
3,test,3,0.0,1-Back,1,z,Tue Apr 15 2025 17:25:28 GMT-0500 (Central Daylight Time),456287.8999999999,012_o_f_n_a.png,I,z,937,4,3,1962.0,454325.8999999999,8006,VNB,C,3
4,test,3,1.0,1-Back,1,m,Tue Apr 15 2025 17:25:28 GMT-0500 (Central Daylight Time),457887.6000000001,015_o_m_d_a.png,I,m,578,5,3,1595.1000000000931,456292.5,8006,VNB,C,4
5,test,3,0.0,1-Back,1,m,Tue Apr 15 2025 17:25:28 GMT-0500 (Central Daylight Time),459620.1000000001,022_y_f_h_a.png,I,m,706,6,3,1728.6000000000931,457891.5,8006,VNB,C,5
6,test,3,0.0,1-Back,1,z,Tue Apr 15 2025 17:25:28 GMT-0500 (Central Daylight Time),461219.3999999999,025_y_m_h_a.png,I,z,582,7,3,1595.1999999997206,459624.2000000002,8006,VNB,C,6
7,test,3,0.0,1-Back,1,m,Tue Apr 15 2025 17:25:28 GMT-0500 (Central Daylight Time),463152.5,019_m_f_n_a.png,I,m,903,8,3,1928.7000000001863,461223.7999999998,8006,VNB,C,7
8,test,3,0.0,1-Back,1,m,Tue Apr 15 2025 17:25:28 GMT-0500 (Central Daylight Time),464868.5,022_y_f_d_a.png,I,m,689,9,3,1711.7000000001863,463156.7999999998,8006,VNB,C,8
9,test,3,1.0,1-Back,1,m,Tue Apr 15 2025 17:25:28 GMT-0500 (Central Daylight Time),467084.7000000002,015_o_m_n_a.png,I,m,1197,10,3,2211.9000000003725,464872.7999999998,8006,VNB,C,9
10,test,3,0.0,1-Back,1,m,Tue Apr 15 2025 17:25:28 GMT-0500 (Central Daylight Time),468983.8999999999,014_m_m_h_a.png,I,m,878,11,3,1895.3999999999069,467088.5,8006,VNB,C,10
11,test,3,0.0,1-Back,1,z,Tue Apr 15 2025 17:25:28 GMT-0500 (Central Daylight Time),470600.2000000002,019_m_f_h_a.png,I,z,586,12,3,1612.2000000001863,468988.0,8006,VNB,C,11
12,test,3,1.0,1-Back,1,m,Tue Apr 15 2025 17:25:28 GMT-0500 (Central Daylight Time),472316.2999999998,012_o_f_d_a.png,I,m,698,13,3,1711.8999999999069,470604.3999999999,8006,VNB,C,12
13,test,3,0.0,1-Back,1,z,Tue Apr 15 2025 17:25:28 GMT-0500 (Central Daylight Time),473999.0,014_m_m_d_a.png,I,z,661,14,3,1679.2999999998137,472319.7000000002,8006,VNB,C,13
14,test,3,0.0,1-Back,1,m,Tue Apr 15 2025 17:25:28 GMT-0500 (Central Daylight Time),475698.6000000001,025_y_m_n_a.png,I,m,675,15,3,1694.8999999999069,474003.7000000002,8006,VNB,C,14
15,test,3,1.0,1-Back,1,m,Tue Apr 15 2025 17:25:28 GMT-0500 (Central Daylight Time),477398.0,015_o_m_h_a.png,I,m,679,16,3,1694.6000000000931,475703.3999999999,8006,VNB,C,15
16,test,3,0.0,1-Back,1,m,Tue Apr 15 2025 17:25:28 GMT-0500 (Central Daylight Time),478963.7999999998,025_y_m_d_a.png,I,m,548,17,3,1561.5,477402.2999999998,8006,VNB,C,16
17,test,3,1.0,1-Back,1,m,Tue Apr 15 2025 17:25:28 GMT-0500 (Central Daylight Time),480463.5,022_y_f_n_a.png,I,m,478,18,3,1496.2999999998137,478967.2000000002,8006,VNB,C,17
0,test,4,1.0,1-Back,,,Tue Apr 15 2025 17:25:28 GMT-0500 (Central Daylight Time),480463.5,014_m_m_d_a.png,I,space,1107,1,3,1496.2999999998137,478967.2000000002,8006,VNB,C,0
1,test,4,0.0,1-Back,1,z,Tue Apr 15 2025 17:25:28 GMT-0500 (Central Daylight Time),485495.3999999999,015_o_m_d_a.png,I,z,878,2,3,1895.3999999999069,483600.0,8006,VNB,C,1
2,test,4,0.0,1-Back,1,m,Tue Apr 15 2025 17:25:28 GMT-0500 (Central Daylight Time),487095.1000000001,025_y_m_h_a.png,I,m,570,3,3,1596.3000000002794,485498.7999999998,8006,VNB,C,2
3,test,4,0.0,1-Back,1,m,Tue Apr 15 2025 17:25:28 GMT-0500 (Central Daylight Time),488761.0,019_m_f_n_a.png,I,m,635,4,3,1661.5,487099.5,8006,VNB,C,3
4,test,4,1.0,1-Back,1,m,Tue Apr 15 2025 17:25:28 GMT-0500 (Central Daylight Time),490577.2000000002,012_o_f_h_a.png,I,m,793,5,3,1812.2000000001863,488765.0,8006,VNB,C,4
5,test,4,0.0,1-Back,1,m,Tue Apr 15 2025 17:25:28 GMT-0500 (Central Daylight Time),492343.2999999998,014_m_m_n_a.png,I,m,744,6,3,1761.8999999999069,490581.3999999999,8006,VNB,C,5
6,test,4,0.0,1-Back,1,m,Tue Apr 15 2025 17:25:28 GMT-0500 (Central Daylight Time),493909.5,025_y_m_d_a.png,I,m,539,7,3,1562.1000000000931,492347.3999999999,8006,VNB,C,6
7,test,4,1.0,1-Back,1,z,Tue Apr 15 2025 17:25:28 GMT-0500 (Central Daylight Time),495508.7999999998,022_y_f_d_a.png,I,z,581,8,3,1595.3999999999069,493913.3999999999,8006,VNB,C,7
8,test,4,0.0,1-Back,1,m,Tue Apr 15 2025 17:25:28 GMT-0500 (Central Daylight Time),497058.6000000001,019_m_f_h_a.png,I,m,517,9,3,1545.0,495513.6000000001,8006,VNB,C,8
9,test,4,0.0,1-Back,1,z,Tue Apr 15 2025 17:25:28 GMT-0500 (Central Daylight Time),498691.2999999998,015_o_m_h_a.png,I,z,616,10,3,1628.2999999998137,497063.0,8006,VNB,C,9
10,test,4,1.0,1-Back,1,m,Tue Apr 15 2025 17:25:28 GMT-0500 (Central Daylight Time),500274.3999999999,012_o_f_n_a.png,I,m,559,11,3,1577.1999999997206,498697.2000000002,8006,VNB,C,10
11,test,4,0.0,1-Back,1,m,Tue Apr 15 2025 17:25:28 GMT-0500 (Central Daylight Time),501973.7999999998,019_m_f_d_a.png,I,m,680,12,3,1695.0999999996275,500278.7000000002,8006,VNB,C,11
12,test,4,0.0,1-Back,1,m,Tue Apr 15 2025 17:25:28 GMT-0500 (Central Daylight Time),503489.7000000002,022_y_f_n_a.png,I,m,493,13,3,1512.3000000002794,501977.3999999999,8006,VNB,C,12
13,test,4,0.0,1-Back,1,m,Tue Apr 15 2025 17:25:28 GMT-0500 (Central Daylight Time),505139.2000000002,012_o_f_d_a.png,I,m,632,14,3,1646.2000000001863,503493.0,8006,VNB,C,13
14,test,4,0.0,1-Back,1,m,Tue Apr 15 2025 17:25:28 GMT-0500 (Central Daylight Time),506955.2999999998,022_y_f_h_a.png,I,m,783,15,3,1811.7999999998137,505143.5,8006,VNB,C,14
15,test,4,1.0,1-Back,1,z,Tue Apr 15 2025 17:25:28 GMT-0500 (Central Daylight Time),508421.6000000001,014_m_m_h_a.png,I,z,447,16,3,1462.1000000000931,506959.5,8006,VNB,C,15
16,test,4,0.0,1-Back,1,m,Tue Apr 15 2025 17:25:28 GMT-0500 (Central Daylight Time),509987.6000000001,015_o_m_n_a.png,I,m,548,17,3,1561.7000000001863,508425.8999999999,8006,VNB,C,16
17,test,4,1.0,1-Back,1,z,Tue Apr 15 2025 17:25:28 GMT-0500 (Central Daylight Time),511587.6000000001,025_y_m_n_a.png,I,z,573,18,3,1596.2000000001863,509991.3999999999,8006,VNB,C,17
0,test,5,1.0,1-Back,,,Tue Apr 15 2025 17:25:28 GMT-0500 (Central Daylight Time),511587.6000000001,015_o_m_n_a.png,I,space,1127,1,3,1596.2000000001863,509991.3999999999,8006,VNB,C,0
1,test,5,1.0,1-Back,1,m,Tue Apr 15 2025 17:25:28 GMT-0500 (Central Daylight Time),516419.2999999998,012_o_f_h_a.png,I,m,650,2,3,1678.5999999996275,514740.7000000002,8006,VNB,C,1
2,test,5,0.0,1-Back,1,m,Tue Apr 15 2025 17:25:28 GMT-0500 (Central Daylight Time),518246.5,025_y_m_d_a.png,I,m,810,3,3,1822.5,516424.0,8006,VNB,C,2
2,test,5,0.0,1-Back,0,z,Tue Apr 15 2025 17:25:28 GMT-0500 (Central Daylight Time),520767.8999999999,015_o_m_d_a.png,I,m,1510,4,3,2517.600000000093,518250.2999999998,8006,VNB,C,3
3,test,5,0.0,1-Back,1,m,Tue Apr 15 2025 17:25:28 GMT-0500 (Central Daylight Time),523250.3999999999,019_m_f_h_a.png,I,m,1459,5,3,2478.0,520772.3999999999,8006,VNB,C,4
4,test,5,0.0,1-Back,1,m,Tue Apr 15 2025 17:25:28 GMT-0500 (Central Daylight Time),524816.5,022_y_f_n_a.png,I,m,544,6,3,1562.0,523254.5,8006,VNB,C,5
5,test,5,1.0,1-Back,1,z,Tue Apr 15 2025 17:25:28 GMT-0500 (Central Daylight Time),526499.2000000002,012_o_f_n_a.png,I,z,666,7,3,1678.9000000003725,524820.2999999998,8006,VNB,C,6
6,test,5,0.0,1-Back,1,m,Tue Apr 15 2025 17:25:28 GMT-0500 (Central Daylight Time),528182.2000000002,019_m_f_d_a.png,I,m,663,8,3,1678.7000000001863,526503.5,8006,VNB,C,7
7,test,5,0.0,1-Back,1,m,Tue Apr 15 2025 17:25:28 GMT-0500 (Central Daylight Time),529948.2999999998,025_y_m_h_a.png,I,m,740,9,3,1761.6999999997206,528186.6000000001,8006,VNB,C,8
8,test,5,0.0,1-Back,1,m,Tue Apr 15 2025 17:25:28 GMT-0500 (Central Daylight Time),531531.2000000002,022_y_f_d_a.png,I,m,566,10,3,1578.8000000002794,529952.3999999999,8006,VNB,C,9
9,test,5,0.0,1-Back,1,m,Tue Apr 15 2025 17:25:28 GMT-0500 (Central Daylight Time),533230.6000000001,014_m_m_n_a.png,I,m,679,11,3,1695.8999999999069,531534.7000000002,8006,VNB,C,10
10,test,5,1.0,1-Back,1,z,Tue Apr 15 2025 17:25:28 GMT-0500 (Central Daylight Time),534713.3999999999,019_m_f_n_a.png,I,z,460,12,3,1479.3999999999069,533234.0,8006,VNB,C,11
11,test,5,0.0,1-Back,1,m,Tue Apr 15 2025 17:25:28 GMT-0500 (Central Daylight Time),536263.1000000001,015_o_m_h_a.png,I,m,521,13,3,1546.1000000000931,534717.0,8006,VNB,C,12
12,test,5,0.0,1-Back,1,z,Tue Apr 15 2025 17:25:28 GMT-0500 (Central Daylight Time),537779.0,014_m_m_h_a.png,I,z,491,14,3,1511.3999999999069,536267.6000000001,8006,VNB,C,13
13,test,5,1.0,1-Back,1,m,Tue Apr 15 2025 17:25:28 GMT-0500 (Central Daylight Time),539328.5,012_o_f_d_a.png,I,m,519,15,3,1545.3999999999069,537783.1000000001,8006,VNB,C,14
14,test,5,0.0,1-Back,1,m,Tue Apr 15 2025 17:25:28 GMT-0500 (Central Daylight Time),540878.1000000001,025_y_m_n_a.png,I,m,522,16,3,1545.3999999999069,539332.7000000002,8006,VNB,C,15
15,test,5,0.0,1-Back,1,m,Tue Apr 15 2025 17:25:28 GMT-0500 (Central Daylight Time),542444.2999999998,022_y_f_h_a.png,I,m,480,17,3,1562.2999999998137,540882.0,8006,VNB,C,16
16,test,5,0.0,1-Back,1,m,Tue Apr 15 2025 17:25:28 GMT-0500 (Central Daylight Time),544060.6000000001,014_m_m_d_a.png,I,m,590,18,3,1612.2000000001863,542448.3999999999,8006,VNB,C,17
0,prac,1,0.0,2-Back,,,Tue Apr 15 2025 17:25:28 GMT-0500 (Central Daylight Time),544060.6000000001,019_m_f_n_a.png,I,space,1273,1,3,1612.2000000001863,542448.3999999999,8006,VNB,C,0
0,prac,1,0.0,2-Back,,,Tue Apr 15 2025 17:25:28 GMT-0500 (Central Daylight Time),544060.6000000001,012_o_f_h_a.png,I,space,1273,2,3,1612.2000000001863,542448.3999999999,8006,VNB,C,0
1,prac,1,0.0,2-Back,1,m,Tue Apr 15 2025 17:25:28 GMT-0500 (Central Daylight Time),619153.7000000002,015_o_m_d_a.png,I,m,1174,3,3,2075.7000000001863,617078.0,8006,VNB,C,1
2,prac,1,1.0,2-Back,1,z,Tue Apr 15 2025 17:25:28 GMT-0500 (Central Daylight Time),620970.0,014_m_m_h_a.png,I,z,926,4,3,1810.9000000003725,619159.0999999996,8006,VNB,C,2
2,prac,1,0.0,2-Back,0,m,Tue Apr 15 2025 17:25:28 GMT-0500 (Central Daylight Time),623885.5,022_y_f_n_a.png,I,None,2017,5,3,2908.4000000003725,620977.0999999996,8006,VNB,C,3
2,prac,1,1.0,2-Back,0,z,Tue Apr 15 2025 17:25:28 GMT-0500 (Central Daylight Time),625968.0999999996,015_o_m_h_a.png,I,m,1176,6,3,2076.0999999996275,623892.0,8006,VNB,C,4
3,prac,1,1.0,2-Back,1,z,Tue Apr 15 2025 17:25:28 GMT-0500 (Central Daylight Time),628084.0,025_y_m_n_a.png,I,z,1245,7,3,2109.7999999998137,625974.2000000002,8006,VNB,C,5
4,prac,1,0.0,2-Back,1,m,Tue Apr 15 2025 17:25:28 GMT-0500 (Central Daylight Time),629850.5,019_m_f_d_a.png,I,m,866,8,3,1760.7999999998137,628089.7000000002,8006,VNB,C,6
4,prac,1,0.0,2-Back,0,m,Tue Apr 15 2025 17:25:28 GMT-0500 (Central Daylight Time),632266.2999999998,012_o_f_d_a.png,I,z,1522,9,3,2409.2000000001863,629857.0999999996,8006,VNB,C,7
5,prac,1,0.0,2-Back,1,m,Tue Apr 15 2025 17:25:28 GMT-0500 (Central Daylight Time),634015.7000000002,014_m_m_h_a.png,I,m,971,10,3,1743.6000000005588,632272.0999999996,8006,VNB,C,8
5,prac,1,1.0,2-Back,0,z,Tue Apr 15 2025 17:25:28 GMT-0500 (Central Daylight Time),636232.5999999996,022_y_f_d_a.png,I,m,1328,11,3,2210.5999999996275,634022.0,8006,VNB,C,9
6,prac,1,0.0,2-Back,1,m,Tue Apr 15 2025 17:25:28 GMT-0500 (Central Daylight Time),638264.4000000004,015_o_m_n_a.png,I,m,1125,12,3,2024.9000000003725,636239.5,8006,VNB,C,10
0,prac,2,0.0,2-Back,,,Tue Apr 15 2025 17:25:28 GMT-0500 (Central Daylight Time),638264.4000000004,019_m_f_n_a.png,I,a,5487,1,3,2024.9000000003725,636239.5,8006,VNB,C,0
0,prac,2,0.0,2-Back,,,Tue Apr 15 2025 17:25:28 GMT-0500 (Central Daylight Time),638264.4000000004,012_o_f_h_a.png,I,a,5487,2,3,2024.9000000003725,636239.5,8006,VNB,C,0
1,prac,2,0.0,2-Back,1,m,Tue Apr 15 2025 17:25:28 GMT-0500 (Central Daylight Time),651177.0999999996,015_o_m_d_a.png,I,m,1218,3,3,2126.199999999255,649050.9000000004,8006,VNB,C,1
2,prac,2,1.0,2-Back,1,z,Tue Apr 15 2025 17:25:28 GMT-0500 (Central Daylight Time),653409.2999999998,014_m_m_h_a.png,I,z,1450,4,3,2225.2000000001863,651184.0999999996,8006,VNB,C,2
3,prac,2,0.0,2-Back,1,m,Tue Apr 15 2025 17:25:28 GMT-0500 (Central Daylight Time),655092.2999999998,022_y_f_n_a.png,I,m,758,5,3,1676.5999999996275,653415.7000000002,8006,VNB,C,3
3,prac,2,1.0,2-Back,0,z,Tue Apr 15 2025 17:25:28 GMT-0500 (Central Daylight Time),657258.4000000004,015_o_m_h_a.png,I,m,1257,6,3,2159.5,655098.9000000004,8006,VNB,C,4
3,prac,2,1.0,2-Back,0,z,Tue Apr 15 2025 17:25:28 GMT-0500 (Central Daylight Time),659488.5999999996,025_y_m_n_a.png,I,m,1255,7,3,2223.899999999441,657264.7000000002,8006,VNB,C,5
4,prac,2,0.0,2-Back,1,m,Tue Apr 15 2025 17:25:28 GMT-0500 (Central Daylight Time),661274.0999999996,019_m_f_d_a.png,I,m,880,8,3,1779.2999999998137,659494.7999999998,8006,VNB,C,6
5,prac,2,0.0,2-Back,1,m,Tue Apr 15 2025 17:25:28 GMT-0500 (Central Daylight Time),663390.0,012_o_f_d_a.png,I,m,1218,9,3,2109.7000000001863,661280.2999999998,8006,VNB,C,7
5,prac,2,0.0,2-Back,0,m,Tue Apr 15 2025 17:25:28 GMT-0500 (Central Daylight Time),665472.5999999996,014_m_m_h_a.png,I,z,1302,10,3,2076.7999999998137,663395.7999999998,8006,VNB,C,8
5,prac,2,1.0,2-Back,0,z,Tue Apr 15 2025 17:25:28 GMT-0500 (Central Daylight Time),666988.7999999998,022_y_f_d_a.png,I,m,616,11,3,1511.2000000001863,665477.5999999996,8006,VNB,C,9
6,prac,2,0.0,2-Back,1,m,Tue Apr 15 2025 17:25:28 GMT-0500 (Central Daylight Time),668871.4000000004,015_o_m_n_a.png,I,m,980,12,3,1877.2000000001863,666994.2000000002,8006,VNB,C,10
0,test,1,0.0,2-Back,,,Tue Apr 15 2025 17:25:28 GMT-0500 (Central Daylight Time),668871.4000000004,025_y_m_h_a.png,I,space,8427,1,3,1877.2000000001863,666994.2000000002,8006,VNB,C,0
0,test,1,0.0,2-Back,,,Tue Apr 15 2025 17:25:28 GMT-0500 (Central Daylight Time),668871.4000000004,012_o_f_n_a.png,I,space,8427,2,3,1877.2000000001863,666994.2000000002,8006,VNB,C,0
1,test,1,0.0,2-Back,1,z,Tue Apr 15 2025 17:25:28 GMT-0500 (Central Daylight Time),691730.7000000002,015_o_m_h_a.png,I,z,1884,3,3,2911.7999999998137,688818.9000000004,8006,VNB,C,1
2,test,1,0.0,2-Back,1,m,Tue Apr 15 2025 17:25:28 GMT-0500 (Central Daylight Time),694013.7000000002,019_m_f_d_a.png,I,m,1255,4,3,2278.2999999998137,691735.4000000004,8006,VNB,C,2
3,test,1,1.0,2-Back,1,m,Tue Apr 15 2025 17:25:28 GMT-0500 (Central Daylight Time),696079.5,025_y_m_n_a.png,I,m,1037,5,3,2062.5,694017.0,8006,VNB,C,3
4,test,1,0.0,2-Back,1,z,Tue Apr 15 2025 17:25:28 GMT-0500 (Central Daylight Time),697812.2000000002,022_y_f_d_a.png,I,z,715,6,3,1729.2000000001863,696083.0,8006,VNB,C,4
5,test,1,0.0,2-Back,1,m,Tue Apr 15 2025 17:25:28 GMT-0500 (Central Daylight Time),699728.0999999996,014_m_m_h_a.png,I,m,886,7,3,1912.199999999255,697815.9000000004,8006,VNB,C,5
6,test,1,1.0,2-Back,1,m,Tue Apr 15 2025 17:25:28 GMT-0500 (Central Daylight Time),701394.5,022_y_f_n_a.png,I,m,634,8,3,1662.9000000003725,699731.5999999996,8006,VNB,C,6
7,test,1,0.0,2-Back,1,z,Tue Apr 15 2025 17:25:28 GMT-0500 (Central Daylight Time),703177.5,012_o_f_h_a.png,I,z,752,9,3,1778.5999999996275,701398.9000000004,8006,VNB,C,7
8,test,1,0.0,2-Back,1,m,Tue Apr 15 2025 17:25:28 GMT-0500 (Central Daylight Time),704993.2999999998,015_o_m_d_a.png,I,m,785,10,3,1812.3999999994412,703180.9000000004,8006,VNB,C,8
9,test,1,1.0,2-Back,1,m,Tue Apr 15 2025 17:25:28 GMT-0500 (Central Daylight Time),707059.2999999998,014_m_m_d_a.png,I,m,1049,11,3,2061.899999999441,704997.4000000004,8006,VNB,C,9
10,test,1,0.0,2-Back,1,m,Tue Apr 15 2025 17:25:28 GMT-0500 (Central Daylight Time),708992.2999999998,019_m_f_n_a.png,I,m,903,12,3,1929.5,707062.7999999998,8006,VNB,C,10
11,test,1,0.0,2-Back,1,m,Tue Apr 15 2025 17:25:28 GMT-0500 (Central Daylight Time),710741.4000000004,022_y_f_h_a.png,I,m,729,13,3,1746.0,708995.4000000004,8006,VNB,C,11
11,test,1,0.0,2-Back,0,z,Tue Apr 15 2025 17:25:28 GMT-0500 (Central Daylight Time),712507.9000000004,014_m_m_n_a.png,I,m,741,14,3,1763.0,710744.9000000004,8006,VNB,C,12
12,test,1,0.0,2-Back,1,m,Tue Apr 15 2025 17:25:28 GMT-0500 (Central Daylight Time),714273.7999999998,025_y_m_d_a.png,I,m,743,15,3,1762.5,712511.2999999998,8006,VNB,C,13
13,test,1,1.0,2-Back,1,m,Tue Apr 15 2025 17:25:28 GMT-0500 (Central Daylight Time),716106.7999999998,019_m_f_h_a.png,I,m,799,16,3,1828.8999999994412,714277.9000000004,8006,VNB,C,14
13,test,1,0.0,2-Back,0,z,Tue Apr 15 2025 17:25:28 GMT-0500 (Central Daylight Time),718089.2000000002,012_o_f_d_a.png,I,m,952,17,3,1978.9000000003725,716110.2999999998,8006,VNB,C,15
14,test,1,0.0,2-Back,1,m,Tue Apr 15 2025 17:25:28 GMT-0500 (Central Daylight Time),719655.4000000004,015_o_m_n_a.png,I,m,545,18,3,1562.300000000745,718093.0999999996,8006,VNB,C,16
0,test,2,0.0,2-Back,,,Tue Apr 15 2025 17:25:28 GMT-0500 (Central Daylight Time),719655.4000000004,014_m_m_h_a.png,I,space,1019,1,3,1562.300000000745,718093.0999999996,8006,VNB,C,0
0,test,2,0.0,2-Back,,,Tue Apr 15 2025 17:25:28 GMT-0500 (Central Daylight Time),719655.4000000004,022_y_f_n_a.png,I,space,1019,2,3,1562.300000000745,718093.0999999996,8006,VNB,C,0
1,test,2,1.0,2-Back,1,z,Tue Apr 15 2025 17:25:28 GMT-0500 (Central Daylight Time),727769.7000000002,012_o_f_h_a.png,I,z,785,3,3,1812.4000000003725,725957.2999999998,8006,VNB,C,1
2,test,2,0.0,2-Back,1,m,Tue Apr 15 2025 17:25:28 GMT-0500 (Central Daylight Time),729702.0999999996,015_o_m_d_a.png,I,m,905,4,3,1929.0,727773.0999999996,8006,VNB,C,2
3,test,2,0.0,2-Back,1,m,Tue Apr 15 2025 17:25:28 GMT-0500 (Central Daylight Time),731751.7000000002,019_m_f_d_a.png,I,m,1020,5,3,2045.7999999998137,729705.9000000004,8006,VNB,C,3
4,test,2,0.0,2-Back,1,m,Tue Apr 15 2025 17:25:28 GMT-0500 (Central Daylight Time),733367.5999999996,025_y_m_h_a.png,I,m,595,6,3,1612.3999999994412,731755.2000000002,8006,VNB,C,4
5,test,2,0.0,2-Back,1,m,Tue Apr 15 2025 17:25:28 GMT-0500 (Central Daylight Time),735117.4000000004,012_o_f_n_a.png,I,m,730,7,3,1746.7000000001863,733370.7000000002,8006,VNB,C,5
6,test,2,1.0,2-Back,1,z,Tue Apr 15 2025 17:25:28 GMT-0500 (Central Daylight Time),736733.4000000004,015_o_m_h_a.png,I,z,589,8,3,1612.4000000003725,735121.0,8006,VNB,C,6
7,test,2,0.0,2-Back,1,m,Tue Apr 15 2025 17:25:28 GMT-0500 (Central Daylight Time),738449.5,022_y_f_d_a.png,I,m,693,9,3,1712.5,736737.0,8006,VNB,C,7
8,test,2,0.0,2-Back,1,m,Tue Apr 15 2025 17:25:28 GMT-0500 (Central Daylight Time),740099.2000000002,025_y_m_d_a.png,I,m,617,10,3,1645.1000000005588,738454.0999999996,8006,VNB,C,8
9,test,2,0.0,2-Back,1,m,Tue Apr 15 2025 17:25:28 GMT-0500 (Central Daylight Time),741731.7000000002,014_m_m_n_a.png,I,m,607,11,3,1629.1000000005588,740102.5999999996,8006,VNB,C,9
10,test,2,0.0,2-Back,1,m,Tue Apr 15 2025 17:25:28 GMT-0500 (Central Daylight Time),743797.7000000002,019_m_f_h_a.png,I,m,1047,12,3,2062.2999999998137,741735.4000000004,8006,VNB,C,10
11,test,2,1.0,2-Back,1,z,Tue Apr 15 2025 17:25:28 GMT-0500 (Central Daylight Time),745397.4000000004,015_o_m_n_a.png,I,z,572,13,3,1596.5,743800.9000000004,8006,VNB,C,11
12,test,2,0.0,2-Back,1,m,Tue Apr 15 2025 17:25:28 GMT-0500 (Central Daylight Time),747096.7000000002,012_o_f_d_a.png,I,m,669,14,3,1695.0,745401.7000000002,8006,VNB,C,12
12,test,2,0.0,2-Back,0,m,Tue Apr 15 2025 17:25:28 GMT-0500 (Central Daylight Time),748829.5999999996,022_y_f_h_a.png,I,z,713,15,3,1729.3999999994412,747100.2000000002,8006,VNB,C,13
12,test,2,0.0,2-Back,0,z,Tue Apr 15 2025 17:25:28 GMT-0500 (Central Daylight Time),750529.2999999998,014_m_m_d_a.png,I,m,669,16,3,1695.7999999998137,748833.5,8006,VNB,C,14
13,test,2,0.0,2-Back,1,m,Tue Apr 15 2025 17:25:28 GMT-0500 (Central Daylight Time),752195.0999999996,025_y_m_n_a.png,I,m,641,17,3,1661.2999999998137,750533.7999999998,8006,VNB,C,15
14,test,2,1.0,2-Back,1,m,Tue Apr 15 2025 17:25:28 GMT-0500 (Central Daylight Time),753777.7999999998,019_m_f_n_a.png,I,m,553,18,3,1579.3999999994412,752198.4000000004,8006,VNB,C,16
0,test,3,1.0,2-Back,,,Tue Apr 15 2025 17:25:28 GMT-0500 (Central Daylight Time),753777.7999999998,015_o_m_n_a.png,I,space,1201,1,3,1579.3999999994412,752198.4000000004,8006,VNB,C,0
0,test,3,1.0,2-Back,,,Tue Apr 15 2025 17:25:28 GMT-0500 (Central Daylight Time),753777.7999999998,012_o_f_d_a.png,I,space,1201,2,3,1579.3999999994412,752198.4000000004,8006,VNB,C,0
1,test,3,0.0,2-Back,1,m,Tue Apr 15 2025 17:25:28 GMT-0500 (Central Daylight Time),761992.0999999996,022_y_f_h_a.png,I,m,927,3,3,1946.0,760046.0999999996,8006,VNB,C,1
2,test,3,0.0,2-Back,1,z,Tue Apr 15 2025 17:25:28 GMT-0500 (Central Daylight Time),764041.5999999996,019_m_f_d_a.png,I,z,1018,4,3,2045.5,761996.0999999996,8006,VNB,C,2
3,test,3,1.0,2-Back,1,m,Tue Apr 15 2025 17:25:28 GMT-0500 (Central Daylight Time),765791.0,025_y_m_n_a.png,I,m,728,5,3,1744.7999999998137,764046.2000000002,8006,VNB,C,3
4,test,3,0.0,2-Back,1,m,Tue Apr 15 2025 17:25:28 GMT-0500 (Central Daylight Time),767906.9000000004,015_o_m_h_a.png,I,m,1091,6,3,2112.100000000559,765794.7999999998,8006,VNB,C,4
5,test,3,0.0,2-Back,1,z,Tue Apr 15 2025 17:25:28 GMT-0500 (Central Daylight Time),769923.2000000002,022_y_f_n_a.png,I,z,983,7,3,2012.1000000005588,767911.0999999996,8006,VNB,C,5
6,test,3,1.0,2-Back,1,m,Tue Apr 15 2025 17:25:28 GMT-0500 (Central Daylight Time),771622.5,014_m_m_d_a.png,I,m,679,8,3,1695.5,769927.0,8006,VNB,C,6
7,test,3,0.0,2-Back,1,m,Tue Apr 15 2025 17:25:28 GMT-0500 (Central Daylight Time),773538.4000000004,025_y_m_d_a.png,I,m,884,9,3,1912.2000000001863,771626.2000000002,8006,VNB,C,7
8,test,3,0.0,2-Back,1,m,Tue Apr 15 2025 17:25:28 GMT-0500 (Central Daylight Time),775487.7999999998,012_o_f_h_a.png,I,m,928,10,3,1945.5,773542.2999999998,8006,VNB,C,8
9,test,3,1.0,2-Back,1,m,Tue Apr 15 2025 17:25:28 GMT-0500 (Central Daylight Time),777295.4000000004,019_m_f_n_a.png,I,m,790,11,3,1804.300000000745,775491.0999999996,8006,VNB,C,9
10,test,3,1.0,2-Back,1,z,Tue Apr 15 2025 17:25:28 GMT-0500 (Central Daylight Time),778804.7000000002,014_m_m_h_a.png,I,z,499,12,3,1504.6000000005588,777300.0999999996,8006,VNB,C,10
11,test,3,0.0,2-Back,1,m,Tue Apr 15 2025 17:25:28 GMT-0500 (Central Daylight Time),780469.7999999998,022_y_f_d_a.png,I,m,647,13,3,1661.5999999996275,778808.2000000002,8006,VNB,C,11
12,test,3,0.0,2-Back,1,m,Tue Apr 15 2025 17:25:28 GMT-0500 (Central Daylight Time),782619.2000000002,012_o_f_n_a.png,I,m,1116,14,3,2146.2999999998137,780472.9000000004,8006,VNB,C,12
12,test,3,0.0,2-Back,0,z,Tue Apr 15 2025 17:25:28 GMT-0500 (Central Daylight Time),784636.2000000002,015_o_m_d_a.png,I,m,983,15,3,2013.6000000005588,782622.5999999996,8006,VNB,C,13
12,test,3,1.0,2-Back,0,m,Tue Apr 15 2025 17:25:28 GMT-0500 (Central Daylight Time),786334.5999999996,019_m_f_h_a.png,I,z,679,16,3,1694.3999999994412,784640.2000000002,8006,VNB,C,14
13,test,3,0.0,2-Back,1,m,Tue Apr 15 2025 17:25:28 GMT-0500 (Central Daylight Time),788100.4000000004,014_m_m_n_a.png,I,m,748,17,3,1762.2000000001863,786338.2000000002,8006,VNB,C,15
13,test,3,0.0,2-Back,0,z,Tue Apr 15 2025 17:25:28 GMT-0500 (Central Daylight Time),790133.2999999998,025_y_m_h_a.png,I,m,1014,18,3,2028.8999999994412,788104.4000000004,8006,VNB,C,16
0,test,4,0.0,2-Back,,,Tue Apr 15 2025 17:25:28 GMT-0500 (Central Daylight Time),790133.2999999998,019_m_f_n_a.png,I,space,893,1,3,2028.8999999994412,788104.4000000004,8006,VNB,C,0
0,test,4,0.0,2-Back,,,Tue Apr 15 2025 17:25:28 GMT-0500 (Central Daylight Time),790133.2999999998,015_o_m_n_a.png,I,space,893,2,3,2028.8999999994412,788104.4000000004,8006,VNB,C,0
1,test,4,1.0,2-Back,1,m,Tue Apr 15 2025 17:25:28 GMT-0500 (Central Daylight Time),798031.0,025_y_m_h_a.png,I,m,696,3,3,1711.7999999998137,796319.2000000002,8006,VNB,C,1
2,test,4,1.0,2-Back,1,m,Tue Apr 15 2025 17:25:28 GMT-0500 (Central Daylight Time),799747.0,012_o_f_d_a.png,I,m,700,4,3,1711.7999999998137,798035.2000000002,8006,VNB,C,2
3,test,4,0.0,2-Back,1,z,Tue Apr 15 2025 17:25:28 GMT-0500 (Central Daylight Time),801579.5999999996,015_o_m_h_a.png,I,z,721,5,3,1829.199999999255,799750.4000000004,8006,VNB,C,3
4,test,4,0.0,2-Back,1,m,Tue Apr 15 2025 17:25:28 GMT-0500 (Central Daylight Time),803562.4000000004,014_m_m_n_a.png,I,m,958,6,3,1979.2000000001863,801583.2000000002,8006,VNB,C,4
5,test,4,0.0,2-Back,1,m,Tue Apr 15 2025 17:25:28 GMT-0500 (Central Daylight Time),805328.7000000002,019_m_f_d_a.png,I,m,744,7,3,1761.9000000003725,803566.7999999998,8006,VNB,C,5
5,test,4,0.0,2-Back,0,z,Tue Apr 15 2025 17:25:28 GMT-0500 (Central Daylight Time),807261.2999999998,022_y_f_n_a.png,I,m,913,8,3,1928.8999999994412,805332.4000000004,8006,VNB,C,6
6,test,4,1.0,2-Back,1,m,Tue Apr 15 2025 17:25:28 GMT-0500 (Central Daylight Time),808877.5,012_o_f_h_a.png,I,m,597,9,3,1612.5999999996275,807264.9000000004,8006,VNB,C,7
7,test,4,0.0,2-Back,1,m,Tue Apr 15 2025 17:25:28 GMT-0500 (Central Daylight Time),810693.5999999996,014_m_m_h_a.png,I,m,789,10,3,1812.0,808881.5999999996,8006,VNB,C,8
8,test,4,0.0,2-Back,1,m,Tue Apr 15 2025 17:25:28 GMT-0500 (Central Daylight Time),812543.0,022_y_f_d_a.png,I,m,829,11,3,1845.9000000003725,810697.0999999996,8006,VNB,C,9
9,test,4,0.0,2-Back,1,m,Tue Apr 15 2025 17:25:28 GMT-0500 (Central Daylight Time),814475.7999999998,025_y_m_n_a.png,I,m,907,12,3,1929.5999999996275,812546.2000000002,8006,VNB,C,10
9,test,4,0.0,2-Back,0,z,Tue Apr 15 2025 17:25:28 GMT-0500 (Central Daylight Time),816343.7000000002,015_o_m_d_a.png,I,m,847,13,3,1864.7999999998137,814478.9000000004,8006,VNB,C,11
10,test,4,1.0,2-Back,1,m,Tue Apr 15 2025 17:25:28 GMT-0500 (Central Daylight Time),818542.2000000002,019_m_f_h_a.png,I,m,1172,14,3,2195.2999999998137,816346.9000000004,8006,VNB,C,12
11,test,4,1.0,2-Back,1,m,Tue Apr 15 2025 17:25:28 GMT-0500 (Central Daylight Time),820490.5999999996,022_y_f_h_a.png,I,m,925,15,3,1944.5,818546.0999999996,8006,VNB,C,13
12,test,4,0.0,2-Back,1,m,Tue Apr 15 2025 17:25:28 GMT-0500 (Central Daylight Time),822223.2000000002,012_o_f_n_a.png,I,m,711,16,3,1729.5,820493.7000000002,8006,VNB,C,14
13,test,4,0.0,2-Back,1,m,Tue Apr 15 2025 17:25:28 GMT-0500 (Central Daylight Time),824005.7999999998,025_y_m_d_a.png,I,m,755,17,3,1779.3999999994412,822226.4000000004,8006,VNB,C,15
14,test,4,1.0,2-Back,1,m,Tue Apr 15 2025 17:25:28 GMT-0500 (Central Daylight Time),825905.4000000004,014_m_m_d_a.png,I,m,876,18,3,1895.9000000003725,824009.5,8006,VNB,C,16
0,test,5,1.0,2-Back,,,Tue Apr 15 2025 17:25:28 GMT-0500 (Central Daylight Time),825905.4000000004,022_y_f_d_a.png,I,space,1729,1,3,1895.9000000003725,824009.5,8006,VNB,C,0
0,test,5,1.0,2-Back,,,Tue Apr 15 2025 17:25:28 GMT-0500 (Central Daylight Time),825905.4000000004,012_o_f_h_a.png,I,space,1729,2,3,1895.9000000003725,824009.5,8006,VNB,C,0
1,test,5,1.0,2-Back,1,z,Tue Apr 15 2025 17:25:28 GMT-0500 (Central Daylight Time),834919.2000000002,015_o_m_d_a.png,I,z,970,3,3,1995.2999999998137,832923.9000000004,8006,VNB,C,1
2,test,5,1.0,2-Back,1,m,Tue Apr 15 2025 17:25:28 GMT-0500 (Central Daylight Time),836668.7999999998,019_m_f_n_a.png,I,m,723,4,3,1745.7000000001863,834923.0999999996,8006,VNB,C,2
3,test,5,0.0,2-Back,1,m,Tue Apr 15 2025 17:25:28 GMT-0500 (Central Daylight Time),838584.7999999998,014_m_m_h_a.png,I,m,893,5,3,1912.8999999994412,836671.9000000004,8006,VNB,C,3
4,test,5,0.0,2-Back,1,z,Tue Apr 15 2025 17:25:28 GMT-0500 (Central Daylight Time),840400.9000000004,022_y_f_n_a.png,I,z,793,6,3,1813.0,838587.9000000004,8006,VNB,C,4
5,test,5,0.0,2-Back,1,m,Tue Apr 15 2025 17:25:28 GMT-0500 (Central Daylight Time),842250.2000000002,012_o_f_d_a.png,I,m,825,7,3,1845.2000000001863,840405.0,8006,VNB,C,5
6,test,5,0.0,2-Back,1,m,Tue Apr 15 2025 17:25:28 GMT-0500 (Central Daylight Time),843899.7999999998,015_o_m_h_a.png,I,m,624,8,3,1646.3999999994412,842253.4000000004,8006,VNB,C,6
7,test,5,1.0,2-Back,1,z,Tue Apr 15 2025 17:25:28 GMT-0500 (Central Daylight Time),845465.9000000004,019_m_f_d_a.png,I,z,543,9,3,1562.300000000745,843903.5999999996,8006,VNB,C,7
8,test,5,0.0,2-Back,1,m,Tue Apr 15 2025 17:25:28 GMT-0500 (Central Daylight Time),847182.0999999996,025_y_m_n_a.png,I,m,688,10,3,1712.3999999994412,845469.7000000002,8006,VNB,C,8
8,test,5,0.0,2-Back,0,m,Tue Apr 15 2025 17:25:28 GMT-0500 (Central Daylight Time),849214.7999999998,014_m_m_n_a.png,I,z,1012,11,3,2028.5999999996275,847186.2000000002,8006,VNB,C,9
9,test,5,0.0,2-Back,1,m,Tue Apr 15 2025 17:25:28 GMT-0500 (Central Daylight Time),850780.9000000004,022_y_f_h_a.png,I,m,547,12,3,1562.5,849218.4000000004,8006,VNB,C,10
10,test,5,0.0,2-Back,1,m,Tue Apr 15 2025 17:25:28 GMT-0500 (Central Daylight Time),852414.0999999996,025_y_m_d_a.png,I,m,605,13,3,1629.3999999994412,850784.7000000002,8006,VNB,C,11
11,test,5,1.0,2-Back,1,z,Tue Apr 15 2025 17:25:28 GMT-0500 (Central Daylight Time),853913.5,019_m_f_h_a.png,I,z,476,14,3,1495.7000000001863,852417.7999999998,8006,VNB,C,12
12,test,5,0.0,2-Back,1,m,Tue Apr 15 2025 17:25:28 GMT-0500 (Central Daylight Time),855696.2000000002,015_o_m_n_a.png,I,m,753,15,3,1779.6000000005588,853916.5999999996,8006,VNB,C,13
13,test,5,0.0,2-Back,1,m,Tue Apr 15 2025 17:25:28 GMT-0500 (Central Daylight Time),857595.5999999996,014_m_m_d_a.png,I,m,874,16,3,1895.7999999998137,855699.7999999998,8006,VNB,C,14
14,test,5,0.0,2-Back,1,z,Tue Apr 15 2025 17:25:28 GMT-0500 (Central Daylight Time),859178.5999999996,012_o_f_n_a.png,I,z,551,17,3,1578.7999999998137,857599.7999999998,8006,VNB,C,15
15,test,5,1.0,2-Back,1,m,Tue Apr 15 2025 17:25:28 GMT-0500 (Central Daylight Time),860711.0999999996,025_y_m_h_a.png,I,m,504,18,3,1528.699999999255,859182.4000000004,8006,VNB,C,16
