acc_sum,block,block_c,condition,correct,correct_response,datetime,endtime,flanker,jitter,project,response,response_test_buffer_response,response_test_target_response,response_time,response_time_test_buffer_response,response_time_test_target_response,row_sel,session_number,start_end,starttime,subject_id,target,task,task_vers,time_test_buffer,time_test_buffer_response,time_test_constants,time_test_flanker,time_test_jitter,time_test_logger,time_test_target,time_test_target_response,time_test_variables,trial
0,prac,1,inc,0,z,Fri Feb 07 2025 12:26:23 GMT-0600 (Central Standard Time),119703.19999999553,cobalt,1100,I,None,,,1815,,,4,1,5177.5,114525.69999999553,7046,raisin,NF,C,,,,,,,,,,1
0,prac,1,con,0,z,Fri Feb 07 2025 12:26:23 GMT-0600 (Central Standard Time),122185.60000000149,lime,800,I,m,,,381,,,5,1,2477.8000000044703,119707.79999999702,7046,lime,NF,C,,,,,,,,,,2
1,prac,1,con,1,m,Fri Feb 07 2025 12:26:23 GMT-0600 (Central Standard Time),124568.29999999702,gold,800,I,m,,,282,,,13,1,2378.1999999955297,122190.10000000149,7046,gold,NF,C,,,,,,,,,,3
2,prac,1,con,1,z,Fri Feb 07 2025 12:26:23 GMT-0600 (Central Standard Time),127267.10000000149,orange,1000,I,z,,,396,,,3,1,2694.4000000059605,124572.69999999553,7046,orange,NF,C,,,,,,,,,,4
2,prac,1,inc,0,m,Fri Feb 07 2025 12:26:23 GMT-0600 (Central Standard Time),129766.39999999851,cherry,900,I,z,,,285,,,10,1,2494.7000000029802,127271.69999999553,7046,copper,NF,C,,,,,,,,,,5
3,prac,1,inc,1,z,Fri Feb 07 2025 12:26:23 GMT-0600 (Central Standard Time),132615.6000000015,lead,1100,I,z,,,433,,,8,1,2844.7000000029802,129770.89999999851,7046,plum,NF,C,,,,,,,,,,6
3,prac,1,inc,0,z,Fri Feb 07 2025 12:26:23 GMT-0600 (Central Standard Time),135081.3999999985,iron,900,I,m,,,255,,,6,1,2461.39999999851,132620.0,7046,pear,NF,C,,,,,,,,,,7
4,prac,1,con,1,z,Fri Feb 07 2025 12:26:23 GMT-0600 (Central Standard Time),137797.1000000015,kiwi,1000,I,z,,,410,,,7,1,2711.5,135085.6000000015,7046,kiwi,NF,C,,,,,,,,,,8
5,prac,1,con,1,m,Fri Feb 07 2025 12:26:23 GMT-0600 (Central Standard Time),140380.0,silver,1000,I,m,,,270,,,11,1,2578.5,137801.5,7046,silver,NF,C,,,,,,,,,,9
5,prac,1,inc,0,m,Fri Feb 07 2025 12:26:23 GMT-0600 (Central Standard Time),143029.0,raisin,1100,I,z,,,236,,,12,1,2644.7000000029802,140384.29999999702,7046,cobalt,NF,C,,,,,,,,,,10
6,prac,1,con,1,m,Fri Feb 07 2025 12:26:23 GMT-0600 (Central Standard Time),145461.5,zinc,1000,I,m,,,127,,,15,1,2427.89999999851,143033.6000000015,7046,zinc,NF,C,,,,,,,,,,11
7,prac,1,inc,1,z,Fri Feb 07 2025 12:26:23 GMT-0600 (Central Standard Time),148044.0,copper,900,I,z,,,378,,,2,1,2578.10000000149,145465.8999999985,7046,cherry,NF,C,,,,,,,,,,12
7,prac,1,con,0,z,Fri Feb 07 2025 12:26:23 GMT-0600 (Central Standard Time),150310.19999999553,banana,800,I,m,,,152,,,1,1,2262.1999999955297,148048.0,7046,banana,NF,C,,,,,,,,,,13
7,prac,1,inc,0,m,Fri Feb 07 2025 12:26:23 GMT-0600 (Central Standard Time),152626.1000000015,pear,900,I,z,,,114,,,14,1,2311.7000000029802,150314.3999999985,7046,iron,NF,C,,,,,,,,,,14
8,prac,1,inc,1,m,Fri Feb 07 2025 12:26:23 GMT-0600 (Central Standard Time),155358.3999999985,plum,1100,I,m,,,325,,,16,1,2727.89999999851,152630.5,7046,lead,NF,C,,,,,,,,,,15
8,prac,1,con,0,m,Fri Feb 07 2025 12:26:23 GMT-0600 (Central Standard Time),157708.79999999702,bronze,800,I,z,,,244,,,9,1,2346.10000000149,155362.69999999553,7046,bronze,NF,C,,,,,,,,,,16
1,prac,2,con,1,z,Fri Feb 07 2025 12:26:23 GMT-0600 (Central Standard Time),174502.6000000015,kiwi,1000,I,z,,,343,,,7,1,2645.8000000044703,171856.79999999702,7046,kiwi,NF,C,,,,,,,,,,1
1,prac,2,con,0,z,Fri Feb 07 2025 12:26:23 GMT-0600 (Central Standard Time),176918.3999999985,banana,800,I,m,,,309,,,1,1,2410.7000000029802,174507.69999999553,7046,banana,NF,C,,,,,,,,,,2
2,prac,2,inc,1,m,Fri Feb 07 2025 12:26:23 GMT-0600 (Central Standard Time),179650.79999999702,raisin,1100,I,m,,,321,,,12,1,2728.2999999970198,176922.5,7046,cobalt,NF,C,,,,,,,,,,3
3,prac,2,inc,1,z,Fri Feb 07 2025 12:26:23 GMT-0600 (Central Standard Time),182533.0,lead,1100,I,z,,,469,,,8,1,2877.89999999851,179655.1000000015,7046,plum,NF,C,,,,,,,,,,4
3,prac,2,con,0,m,Fri Feb 07 2025 12:26:23 GMT-0600 (Central Standard Time),185215.8999999985,silver,1000,I,z,,,375,,,11,1,2678.7999999970198,182537.1000000015,7046,silver,NF,C,,,,,,,,,,5
4,prac,2,inc,1,z,Fri Feb 07 2025 12:26:23 GMT-0600 (Central Standard Time),187848.19999999553,copper,900,I,z,,,423,,,2,1,2628.39999999851,185219.79999999702,7046,cherry,NF,C,,,,,,,,,,6
5,prac,2,inc,1,z,Fri Feb 07 2025 12:26:23 GMT-0600 (Central Standard Time),190464.0,iron,900,I,z,,,406,,,6,1,2611.89999999851,187852.1000000015,7046,pear,NF,C,,,,,,,,,,7
5,prac,2,con,0,z,Fri Feb 07 2025 12:26:23 GMT-0600 (Central Standard Time),193129.69999999553,orange,1000,I,m,,,356,,,3,1,2662.0,190467.69999999553,7046,orange,NF,C,,,,,,,,,,8
6,prac,2,inc,1,m,Fri Feb 07 2025 12:26:23 GMT-0600 (Central Standard Time),195729.19999999553,cherry,900,I,m,,,390,,,10,1,2595.5999999940395,193133.6000000015,7046,copper,NF,C,,,,,,,,,,9
6,prac,2,con,0,z,Fri Feb 07 2025 12:26:23 GMT-0600 (Central Standard Time),198261.69999999553,lime,800,I,m,,,419,,,5,1,2528.2999999970198,195733.3999999985,7046,lime,NF,C,,,,,,,,,,10
7,prac,2,inc,1,m,Fri Feb 07 2025 12:26:23 GMT-0600 (Central Standard Time),200927.6000000015,pear,900,I,m,,,449,,,14,1,2662.0,198265.6000000015,7046,iron,NF,C,,,,,,,,,,11
7,prac,2,inc,0,z,Fri Feb 07 2025 12:26:23 GMT-0600 (Central Standard Time),203859.69999999553,cobalt,1100,I,m,,,521,,,4,1,2928.2999999970198,200931.3999999985,7046,raisin,NF,C,,,,,,,,,,12
7,prac,2,con,0,m,Fri Feb 07 2025 12:26:23 GMT-0600 (Central Standard Time),206461.19999999553,bronze,800,I,z,,,504,,,9,1,2597.5,203863.69999999553,7046,bronze,NF,C,,,,,,,,,,13
7,prac,2,inc,0,m,Fri Feb 07 2025 12:26:23 GMT-0600 (Central Standard Time),209224.5,plum,1100,I,z,,,357,,,16,1,2758.60000000149,206465.8999999985,7046,lead,NF,C,,,,,,,,,,14
7,prac,2,con,0,m,Fri Feb 07 2025 12:26:23 GMT-0600 (Central Standard Time),211674.19999999553,gold,800,I,z,,,339,,,13,1,2445.5,209228.69999999553,7046,gold,NF,C,,,,,,,,,,15
8,prac,2,con,1,m,Fri Feb 07 2025 12:26:23 GMT-0600 (Central Standard Time),214339.79999999702,zinc,1000,I,m,,,354,,,15,1,2661.6999999955297,211678.1000000015,7046,zinc,NF,C,,,,,,,,,,16
1,test,1,con,1,m,Fri Feb 07 2025 12:26:23 GMT-0600 (Central Standard Time),235816.29999999702,gold,900,I,m,m,None,409,210.0,199.0,98,1,1845.7999999970198,233970.5,7046,gold,NF,C,230037,230037,228408,229322,228409,230253,229838,229838,230253,1
2,test,1,inc,1,m,Fri Feb 07 2025 12:26:23 GMT-0600 (Central Standard Time),237666.1000000015,banana,800,I,m,m,None,499,284.0,215.0,85,1,1845.2000000029802,235820.8999999985,7046,silver,NF,C,231803,231803,230258,231071,230259,232103,231588,231588,232103,2
3,test,1,con,1,m,Fri Feb 07 2025 12:26:23 GMT-0600 (Central Standard Time),239448.79999999702,silver,800,I,m,m,None,434,235.0,199.0,81,1,1777.3999999985099,237671.3999999985,7046,silver,NF,C,233636,233636,232108,232921,232110,233886,233437,233437,233886,3
4,test,1,con,1,z,Fri Feb 07 2025 12:26:23 GMT-0600 (Central Standard Time),241131.5,banana,800,I,z,z,None,339,124.0,215.0,1,1,1678.7000000029802,239452.79999999702,7046,banana,NF,C,235435,235435,233890,234703,233891,235569,235220,235220,235568,4
5,test,1,inc,1,z,Fri Feb 07 2025 12:26:23 GMT-0600 (Central Standard Time),242947.69999999553,gold,800,I,z,z,None,480,281.0,199.0,53,1,1812.3999999985099,241135.29999999702,7046,kiwi,NF,C,237102,237102,235572,236386,235574,237385,236902,236902,237385,5
6,test,1,inc,1,z,Fri Feb 07 2025 12:26:23 GMT-0600 (Central Standard Time),244980.19999999553,silver,1000,I,z,z,None,487,273.0,214.0,7,1,2028.5,242951.69999999553,7046,banana,NF,C,239134,239134,237389,238402,237390,239417,238920,238920,239417,6
7,test,1,inc,1,m,Fri Feb 07 2025 12:26:23 GMT-0600 (Central Standard Time),246946.19999999553,plum,1100,I,m,m,None,332,133.0,199.0,112,1,1962.0999999940395,244984.1000000015,7046,iron,NF,C,241250,241250,239421,240535,239423,241383,241051,241051,241383,7
8,test,1,inc,1,m,Fri Feb 07 2025 12:26:23 GMT-0600 (Central Standard Time),249062.29999999702,plum,1100,I,m,m,None,477,262.0,215.0,120,1,2112.1999999955297,246950.1000000015,7046,zinc,NF,C,243233,243233,241387,242501,241389,243499,243018,243018,243499,8
8,test,1,inc,0,m,Fri Feb 07 2025 12:26:23 GMT-0600 (Central Standard Time),251146.1000000015,plum,1100,I,z,z,None,450,251.0,199.0,128,1,2080.0,249066.1000000015,7046,lead,NF,C,245332,245332,243503,244617,243504,245583,245133,245133,245583,9
8,test,1,inc,0,m,Fri Feb 07 2025 12:26:23 GMT-0600 (Central Standard Time),252961.1000000015,cherry,900,I,z,z,None,367,168.0,199.0,86,1,1811.2000000029802,251149.8999999985,7046,silver,NF,C,247215,247215,245587,246499,245588,247398,247016,247016,247398,10
9,test,1,inc,1,z,Fri Feb 07 2025 12:26:23 GMT-0600 (Central Standard Time),254960.5,silver,1000,I,z,z,None,459,260.0,199.0,15,1,1995.7000000029802,252964.79999999702,7046,cherry,NF,C,249131,249131,247402,248415,247403,249398,248932,248932,249398,11
9,test,1,inc,0,z,Fri Feb 07 2025 12:26:23 GMT-0600 (Central Standard Time),256676.69999999553,gold,800,I,m,m,None,371,156.0,215.0,37,1,1712.0,254964.69999999553,7046,lime,NF,C,250947,250947,249402,250215,249403,251114,250732,250732,251114,12
10,test,1,con,1,z,Fri Feb 07 2025 12:26:23 GMT-0600 (Central Standard Time),258676.1000000015,banana,1100,I,z,z,None,362,147.0,215.0,4,1,1995.5,256680.6000000015,7046,banana,NF,C,252963,252964,251118,252231,251119,253113,252748,252748,253113,13
11,test,1,inc,1,m,Fri Feb 07 2025 12:26:23 GMT-0600 (Central Standard Time),260525.29999999702,kiwi,1000,I,m,m,None,311,96.0,215.0,103,1,1845.2999999970198,258680.0,7046,gold,NF,C,254863,254863,253117,254130,253118,254962,254647,254647,254962,14
12,test,1,con,1,m,Fri Feb 07 2025 12:26:23 GMT-0600 (Central Standard Time),262574.8999999985,copper,1100,I,m,m,None,410,211.0,199.0,76,1,2045.7999999970198,260529.1000000015,7046,copper,NF,C,256796,256796,254966,256080,254967,257012,256596,256596,257012,15
13,test,1,con,1,z,Fri Feb 07 2025 12:26:23 GMT-0600 (Central Standard Time),264557.5,raisin,1100,I,z,z,None,336,121.0,215.0,28,1,1979.0,262578.5,7046,raisin,NF,C,258861,258862,257016,258129,257017,258995,258646,258646,258994,16
14,test,1,inc,1,z,Fri Feb 07 2025 12:26:23 GMT-0600 (Central Standard Time),266390.19999999553,bronze,800,I,z,z,None,494,279.0,215.0,5,1,1828.7999999970198,264561.3999999985,7046,banana,NF,C,260544,260544,258998,259812,259000,260827,260329,260329,260827,17
15,test,1,con,1,z,Fri Feb 07 2025 12:26:23 GMT-0600 (Central Standard Time),268506.299999997,cherry,1100,I,z,z,None,465,250.0,215.0,12,1,2112.5,266393.799999997,7046,cherry,NF,C,262677,262677,260831,261945,260832,262943,262462,262462,262943,18
16,test,1,inc,1,m,Fri Feb 07 2025 12:26:23 GMT-0600 (Central Standard Time),270439.19999999553,raisin,1100,I,m,m,None,292,78.0,214.0,80,1,1929.1999999955297,268510.0,7046,copper,NF,C,264793,264793,262947,264061,262949,264876,264578,264579,264876,19
17,test,1,con,1,m,Fri Feb 07 2025 12:26:23 GMT-0600 (Central Standard Time),272288.3999999985,cobalt,1000,I,m,m,None,300,101.0,199.0,91,1,1845.1000000014901,270443.299999997,7046,cobalt,NF,C,266609,266609,264880,265893,264882,266726,266410,266410,266725,20
18,test,1,con,1,m,Fri Feb 07 2025 12:26:23 GMT-0600 (Central Standard Time),273987.69999999553,gold,800,I,m,m,None,356,157.0,199.0,97,1,1695.0,272292.69999999553,7046,gold,NF,C,268258,268258,266730,267543,266731,268425,268059,268059,268425,21
19,test,1,con,1,z,Fri Feb 07 2025 12:26:23 GMT-0600 (Central Standard Time),275954.0,pear,1100,I,z,z,None,331,116.0,215.0,44,1,1962.3999999985099,273991.6000000015,7046,pear,NF,C,270275,270275,268429,269542,268430,270391,270059,270059,270391,22
20,test,1,inc,1,m,Fri Feb 07 2025 12:26:23 GMT-0600 (Central Standard Time),277853.19999999553,orange,1000,I,m,m,None,321,122.0,199.0,95,1,1895.6999999955297,275957.5,7046,cobalt,NF,C,272157,272157,270395,271450,270396,272290,271958,271958,272290,23
20,test,1,con,0,m,Fri Feb 07 2025 12:26:23 GMT-0600 (Central Standard Time),279752.6000000015,silver,1000,I,z,z,None,358,143.0,215.0,83,1,1895.2000000029802,277857.3999999985,7046,silver,NF,C,274040,274040,272294,273308,272296,274190,273825,273825,274190,24
20,test,1,inc,0,z,Fri Feb 07 2025 12:26:23 GMT-0600 (Central Standard Time),281735.3999999985,zinc,1000,I,m,m,None,435,236.0,199.0,63,1,1979.0,279756.3999999985,7046,plum,NF,C,275923,275923,274193,275207,274195,276172,275724,275724,276172,25
20,test,1,inc,0,m,Fri Feb 07 2025 12:26:23 GMT-0600 (Central Standard Time),283434.8999999985,lime,800,I,z,z,None,356,141.0,215.0,101,1,1695.3999999985099,281739.5,7046,gold,NF,C,277722,277722,276176,276990,276178,277872,277507,277507,277872,26
20,test,1,con,0,z,Fri Feb 07 2025 12:26:23 GMT-0600 (Central Standard Time),285250.8999999985,plum,900,I,m,m,None,373,174.0,199.0,58,1,1812.3999999985099,283438.5,7046,plum,NF,C,279505,279505,277876,278789,277877,279688,279306,279306,279688,27
20,test,1,inc,0,z,Fri Feb 07 2025 12:26:23 GMT-0600 (Central Standard Time),288883.1000000015,cobalt,1100,I,None,None,None,1799,1799.0,199.0,8,1,3628.0,285255.1000000015,7046,banana,NF,C,281521,281521,279692,280806,279694,283320,281322,281322,283320,28
21,test,1,con,1,m,Fri Feb 07 2025 12:26:23 GMT-0600 (Central Standard Time),290815.8999999985,iron,1100,I,m,m,None,285,86.0,199.0,108,1,1928.6000000014901,288887.299999997,7046,iron,NF,C,285153,285153,283324,284437,283326,285253,284954,284954,285253,29
22,test,1,con,1,m,Fri Feb 07 2025 12:26:23 GMT-0600 (Central Standard Time),292848.6000000015,zinc,1100,I,m,m,None,392,193.0,199.0,116,1,2029.1000000014901,290819.5,7046,zinc,NF,C,287086,287086,285257,286370,285258,287286,286887,286887,287286,30
23,test,1,con,1,z,Fri Feb 07 2025 12:26:23 GMT-0600 (Central Standard Time),294614.69999999553,orange,900,I,z,z,None,319,104.0,215.0,18,1,1762.0,292852.69999999553,7046,orange,NF,C,288935,288935,287290,288203,287291,289052,288720,288720,289052,31
23,test,1,con,0,z,Fri Feb 07 2025 12:26:23 GMT-0600 (Central Standard Time),296247.3999999985,lime,800,I,m,m,None,285,86.0,199.0,33,1,1629.0,294618.3999999985,7046,lime,NF,C,290585,290585,289055,289869,289057,290684,290386,290386,290684,32
24,test,1,con,1,m,Fri Feb 07 2025 12:26:23 GMT-0600 (Central Standard Time),298096.8999999985,zinc,1000,I,m,m,None,308,93.0,215.0,115,1,1845.6000000014901,296251.299999997,7046,zinc,NF,C,292434,292434,290688,291702,290690,292534,292218,292219,292534,33
24,test,1,inc,0,m,Fri Feb 07 2025 12:26:23 GMT-0600 (Central Standard Time),300046.19999999553,orange,1000,I,z,z,None,403,204.0,199.0,71,1,1945.7999999970198,298100.3999999985,7046,bronze,NF,C,294267,294267,292537,293551,292539,294483,294068,294068,294483,34
25,test,1,inc,1,z,Fri Feb 07 2025 12:26:23 GMT-0600 (Central Standard Time),302112.299999997,lead,1100,I,z,z,None,425,226.0,199.0,48,1,2062.0,300050.299999997,7046,pear,NF,C,296316,296317,294487,295601,294489,296549,296117,296117,296549,35
26,test,1,con,1,m,Fri Feb 07 2025 12:26:23 GMT-0600 (Central Standard Time),303911.3999999985,iron,900,I,m,m,None,351,152.0,199.0,106,1,1795.2999999970198,302116.1000000015,7046,iron,NF,C,298182,298182,296553,297467,296554,298348,297983,297983,298348,36
27,test,1,inc,1,z,Fri Feb 07 2025 12:26:23 GMT-0600 (Central Standard Time),305694.5,copper,900,I,z,z,None,344,144.0,200.0,6,1,1778.8999999985099,303915.6000000015,7046,banana,NF,C,299983,299983,298353,299266,298354,300132,299783,299783,300132,37
27,test,1,con,0,z,Fri Feb 07 2025 12:26:23 GMT-0600 (Central Standard Time),307561.8999999985,lime,900,I,m,m,None,433,218.0,215.0,34,1,1863.7000000029802,305698.19999999553,7046,lime,NF,C,301781,301781,300135,301049,300137,301999,301566,301566,301999,38
28,test,1,con,1,m,Fri Feb 07 2025 12:26:23 GMT-0600 (Central Standard Time),309477.0,silver,1100,I,m,m,None,270,71.0,199.0,84,1,1911.2000000029802,307565.799999997,7046,silver,NF,C,303832,303832,302003,303115,302004,303914,303632,303632,303914,39
28,test,1,inc,0,m,Fri Feb 07 2025 12:26:23 GMT-0600 (Central Standard Time),311442.3999999985,raisin,1100,I,z,z,None,331,116.0,215.0,96,1,1962.0,309480.3999999985,7046,cobalt,NF,C,305763,305763,303917,305031,303919,305879,305548,305548,305879,40
28,test,1,inc,0,z,Fri Feb 07 2025 12:26:23 GMT-0600 (Central Standard Time),313125.5,gold,800,I,m,m,None,337,138.0,199.0,45,1,1679.6000000014901,311445.8999999985,7046,pear,NF,C,307413,307413,305883,306697,305884,307563,307214,307214,307563,41
29,test,1,inc,1,m,Fri Feb 07 2025 12:26:23 GMT-0600 (Central Standard Time),315458.1000000015,lime,800,I,m,m,None,998,783.0,215.0,117,1,2328.5,313129.6000000015,7046,zinc,NF,C,309112,309112,307567,308380,307568,309895,308897,308897,309895,42
30,test,1,inc,1,m,Fri Feb 07 2025 12:26:23 GMT-0600 (Central Standard Time),317407.3999999985,pear,900,I,m,m,None,510,311.0,199.0,110,1,1945.3999999985099,315462.0,7046,iron,NF,C,311528,311528,309899,310812,309900,311845,311329,311329,311844,43
30,test,1,inc,0,m,Fri Feb 07 2025 12:26:23 GMT-0600 (Central Standard Time),319007.1000000015,banana,800,I,z,z,None,252,37.0,215.0,77,1,1595.7000000029802,317411.3999999985,7046,copper,NF,C,313394,313394,311848,312662,311850,313444,313178,313179,313444,44
31,test,1,con,1,m,Fri Feb 07 2025 12:26:23 GMT-0600 (Central Standard Time),320839.8999999985,lead,900,I,m,m,None,393,194.0,199.0,122,1,1829.1000000014901,319010.799999997,7046,lead,NF,C,315077,315077,313448,314361,313449,315277,314878,314878,315277,45
32,test,1,inc,1,z,Fri Feb 07 2025 12:26:23 GMT-0600 (Central Standard Time),322740.19999999553,zinc,1000,I,z,z,None,363,148.0,215.0,47,1,1896.3999999985099,320843.799999997,7046,pear,NF,C,317027,317027,315281,316294,315282,317177,316811,316811,317177,46
33,test,1,con,1,z,Fri Feb 07 2025 12:26:23 GMT-0600 (Central Standard Time),324588.6000000015,cherry,800,I,z,z,None,460,256.0,204.0,9,1,1844.3000000044703,322744.299999997,7046,cherry,NF,C,318759,318759,317181,317994,317182,319026,318555,318555,319026,47
34,test,1,con,1,m,Fri Feb 07 2025 12:26:23 GMT-0600 (Central Standard Time),326321.299999997,cobalt,900,I,m,m,None,291,76.0,215.0,90,1,1729.1999999955297,324592.1000000015,7046,cobalt,NF,C,320675,320675,319029,319943,319031,320758,320460,320460,320758,48
35,test,1,con,1,m,Fri Feb 07 2025 12:26:23 GMT-0600 (Central Standard Time),328054.19999999553,copper,800,I,m,m,None,386,187.0,199.0,73,1,1728.7999999970198,326325.3999999985,7046,copper,NF,C,322292,322292,320762,321576,320764,322491,322092,322092,322491,49
35,test,1,inc,0,z,Fri Feb 07 2025 12:26:23 GMT-0600 (Central Standard Time),330070.19999999553,lead,1100,I,m,m,None,378,179.0,199.0,40,1,2012.0999999940395,328058.1000000015,7046,lime,NF,C,324324,324324,322495,323609,322496,324507,324125,324125,324507,50
35,test,1,inc,0,m,Fri Feb 07 2025 12:26:23 GMT-0600 (Central Standard Time),332036.3999999985,raisin,1100,I,z,z,None,330,131.0,199.0,88,1,1962.2999999970198,330074.1000000015,7046,silver,NF,C,326340,326340,324511,325625,324512,326473,326141,326141,326473,51
36,test,1,con,1,z,Fri Feb 07 2025 12:26:23 GMT-0600 (Central Standard Time),333852.299999997,plum,800,I,z,z,None,471,272.0,199.0,57,1,1812.1999999955297,332040.1000000015,7046,plum,NF,C,328007,328007,326477,327292,326479,328289,327807,327807,328289,52
36,test,1,con,0,z,Fri Feb 07 2025 12:26:23 GMT-0600 (Central Standard Time),337484.6000000015,plum,1100,I,None,None,None,1800,1800.0,199.0,60,1,3628.4000000059605,333856.19999999553,7046,plum,NF,C,330122,330122,328293,329407,328295,331922,329923,329923,331922,53
37,test,1,con,1,m,Fri Feb 07 2025 12:26:23 GMT-0600 (Central Standard Time),339417.1000000015,lead,1000,I,m,m,None,391,176.0,215.0,123,1,1928.8000000044703,337488.299999997,7046,lead,NF,C,333671,333671,331925,332939,331927,333854,333456,333456,333854,54
38,test,1,inc,1,z,Fri Feb 07 2025 12:26:23 GMT-0600 (Central Standard Time),341300.1000000015,copper,900,I,z,z,None,447,248.0,199.0,14,1,1879.1000000014901,339421.0,7046,cherry,NF,C,335487,335487,333858,334772,333859,335737,335288,335288,335737,55
39,test,1,con,1,m,Fri Feb 07 2025 12:26:23 GMT-0600 (Central Standard Time),343149.299999997,gold,1000,I,m,m,None,304,105.0,199.0,99,1,1845.6000000014901,341303.69999999553,7046,gold,NF,C,337470,337470,335741,336754,335742,337586,337271,337271,337586,56
39,test,1,con,0,m,Fri Feb 07 2025 12:26:23 GMT-0600 (Central Standard Time),345282.19999999553,gold,1100,I,z,z,None,498,283.0,215.0,100,1,2129.0,343153.19999999553,7046,gold,NF,C,339436,339436,337590,338704,337592,339719,339221,339221,339719,57
40,test,1,inc,1,z,Fri Feb 07 2025 12:26:23 GMT-0600 (Central Standard Time),347164.799999997,zinc,1000,I,z,z,None,337,122.0,215.0,55,1,1878.8999999985099,345285.8999999985,7046,kiwi,NF,C,341469,341469,339723,340736,339724,341602,341254,341254,341602,58
41,test,1,inc,1,z,Fri Feb 07 2025 12:26:23 GMT-0600 (Central Standard Time),349031.0,copper,900,I,z,z,None,419,220.0,199.0,30,1,1862.6000000014901,347168.3999999985,7046,raisin,NF,C,343235,343235,341605,342519,341607,343468,343036,343036,343468,59
42,test,1,inc,1,m,Fri Feb 07 2025 12:26:23 GMT-0600 (Central Standard Time),350930.3999999985,orange,1000,I,m,m,None,357,158.0,199.0,87,1,1895.5,349034.8999999985,7046,silver,NF,C,345201,345201,343472,344486,343474,345367,345002,345002,345367,60
43,test,1,con,1,m,Fri Feb 07 2025 12:26:23 GMT-0600 (Central Standard Time),352846.19999999553,bronze,1000,I,m,m,None,369,154.0,215.0,67,1,1912.0,350934.19999999553,7046,bronze,NF,C,347117,347117,345371,346385,345373,347283,346902,346902,347283,61
44,test,1,con,1,z,Fri Feb 07 2025 12:26:23 GMT-0600 (Central Standard Time),354729.1000000015,plum,1000,I,z,z,None,333,118.0,215.0,59,1,1879.1000000014901,352850.0,7046,plum,NF,C,349033,349033,347287,348301,347289,349166,348818,348818,349166,62
45,test,1,con,1,z,Fri Feb 07 2025 12:26:23 GMT-0600 (Central Standard Time),356628.5,cherry,900,I,z,z,None,455,256.0,199.0,10,1,1895.6000000014901,354732.8999999985,7046,cherry,NF,C,350799,350799,349170,350083,349171,351066,350600,350600,351065,63
45,test,1,inc,0,z,Fri Feb 07 2025 12:26:23 GMT-0600 (Central Standard Time),358444.799999997,zinc,1000,I,m,m,None,279,64.0,215.0,39,1,1812.6000000014901,356632.19999999553,7046,lime,NF,C,352815,352815,351069,352083,351071,352882,352600,352600,352882,64
46,test,1,inc,1,m,Fri Feb 07 2025 12:26:23 GMT-0600 (Central Standard Time),360227.19999999553,cherry,900,I,m,m,None,340,140.0,200.0,78,1,1778.5,358448.69999999553,7046,copper,NF,C,354515,354515,352886,353799,352887,354664,354315,354315,354664,65
47,test,1,con,1,z,Fri Feb 07 2025 12:26:23 GMT-0600 (Central Standard Time),362176.799999997,kiwi,1000,I,z,z,None,408,193.0,215.0,51,1,1945.5,360231.299999997,7046,kiwi,NF,C,356414,356414,354668,355682,354670,356614,356199,356199,356614,66
48,test,1,con,1,z,Fri Feb 07 2025 12:26:23 GMT-0600 (Central Standard Time),363942.8999999985,banana,900,I,z,z,None,327,128.0,199.0,2,1,1762.2000000029802,362180.69999999553,7046,banana,NF,C,358247,358247,356618,357531,356619,358380,358048,358048,358380,67
49,test,1,con,1,z,Fri Feb 07 2025 12:26:23 GMT-0600 (Central Standard Time),365792.299999997,raisin,900,I,z,z,None,408,193.0,215.0,26,1,1845.6000000014901,363946.69999999553,7046,raisin,NF,C,360030,360030,358384,359297,358385,360229,359814,359815,360229,68
50,test,1,con,1,z,Fri Feb 07 2025 12:26:23 GMT-0600 (Central Standard Time),367775.0,pear,1000,I,z,z,None,443,228.0,215.0,43,1,1978.8999999985099,365796.1000000015,7046,pear,NF,C,361979,361979,360233,361247,360235,362212,361764,361764,362212,69
51,test,1,inc,1,m,Fri Feb 07 2025 12:26:23 GMT-0600 (Central Standard Time),369441.1000000015,banana,800,I,m,m,None,325,126.0,199.0,93,1,1662.1000000014901,367779.0,7046,cobalt,NF,C,363745,363745,362216,363030,362218,363878,363546,363546,363878,70
52,test,1,inc,1,z,Fri Feb 07 2025 12:26:23 GMT-0600 (Central Standard Time),371573.8999999985,cobalt,1100,I,z,z,None,383,179.0,204.0,32,1,2129.0,369444.8999999985,7046,raisin,NF,C,365828,365828,363882,364996,363883,366011,365624,365624,366011,71
53,test,1,inc,1,m,Fri Feb 07 2025 12:26:23 GMT-0600 (Central Standard Time),373473.1000000015,pear,900,I,m,m,None,458,259.0,199.0,126,1,1895.2000000029802,371577.8999999985,7046,lead,NF,C,367644,367644,366015,366928,366016,367910,367445,367445,367910,72
54,test,1,inc,1,z,Fri Feb 07 2025 12:26:23 GMT-0600 (Central Standard Time),375206.0,bronze,800,I,z,z,None,394,195.0,199.0,29,1,1729.1000000014901,373476.8999999985,7046,raisin,NF,C,369444,369444,367914,368728,367916,369643,369244,369244,369643,73
55,test,1,inc,1,m,Fri Feb 07 2025 12:26:23 GMT-0600 (Central Standard Time),377205.299999997,kiwi,1000,I,m,m,None,454,255.0,199.0,119,1,1995.2999999970198,375210.0,7046,zinc,NF,C,371376,371376,369647,370660,369648,371642,371177,371177,371642,74
56,test,1,inc,1,z,Fri Feb 07 2025 12:26:23 GMT-0600 (Central Standard Time),379088.1000000015,iron,900,I,z,z,None,434,219.0,215.0,62,1,1878.8000000044703,377209.299999997,7046,plum,NF,C,373292,373292,371646,372560,371648,373525,373077,373077,373525,75
57,test,1,con,1,m,Fri Feb 07 2025 12:26:23 GMT-0600 (Central Standard Time),380954.19999999553,copper,1000,I,m,m,None,332,133.0,199.0,75,1,1862.3999999985099,379091.799999997,7046,copper,NF,C,375258,375258,373529,374543,373530,375391,375059,375059,375391,76
57,test,1,con,0,m,Fri Feb 07 2025 12:26:23 GMT-0600 (Central Standard Time),382670.19999999553,cobalt,800,I,z,z,None,369,154.0,215.0,89,1,1712.1999999955297,380958.0,7046,cobalt,NF,C,376941,376941,375395,376208,375396,377107,376726,376726,377107,77
58,test,1,inc,1,z,Fri Feb 07 2025 12:26:23 GMT-0600 (Central Standard Time),384369.8999999985,bronze,800,I,z,z,None,350,151.0,199.0,13,1,1696.0,382673.8999999985,7046,cherry,NF,C,378640,378640,377111,377925,377112,378807,378441,378441,378807,78
58,test,1,con,0,z,Fri Feb 07 2025 12:26:23 GMT-0600 (Central Standard Time),386202.5,kiwi,900,I,m,m,None,388,174.0,214.0,50,1,1828.7000000029802,384373.799999997,7046,kiwi,NF,C,380457,380457,378811,379724,378812,380640,380242,380242,380639,79
59,test,1,con,1,m,Fri Feb 07 2025 12:26:23 GMT-0600 (Central Standard Time),387818.6000000015,lead,800,I,m,m,None,281,66.0,215.0,121,1,1612.4000000059605,386206.19999999553,7046,lead,NF,C,382189,382189,380643,381457,380645,382256,381974,381974,382256,80
59,test,1,con,0,m,Fri Feb 07 2025 12:26:23 GMT-0600 (Central Standard Time),389635.0,copper,900,I,z,z,None,373,158.0,215.0,74,1,1812.6000000014901,387822.3999999985,7046,copper,NF,C,383905,383905,382259,383173,382261,384072,383690,383690,384072,81
60,test,1,inc,1,z,Fri Feb 07 2025 12:26:23 GMT-0600 (Central Standard Time),391734.19999999553,lead,1100,I,z,z,None,460,245.0,215.0,56,1,2095.39999999851,389638.799999997,7046,kiwi,NF,C,385922,385922,384076,385189,384077,386171,385707,385707,386171,82
61,test,1,inc,1,m,Fri Feb 07 2025 12:26:23 GMT-0600 (Central Standard Time),393533.6000000015,pear,900,I,m,m,None,362,163.0,199.0,102,1,1795.8000000044703,391737.799999997,7046,gold,NF,C,387804,387804,386175,387089,386176,387971,387605,387605,387971,83
62,test,1,con,1,z,Fri Feb 07 2025 12:26:23 GMT-0600 (Central Standard Time),395650.0,lime,1100,I,z,z,None,416,201.0,215.0,36,1,2112.60000000149,393537.3999999985,7046,lime,NF,C,389870,389870,387974,389149,387976,390087,389655,389655,390087,84
63,test,1,con,1,m,Fri Feb 07 2025 12:26:23 GMT-0600 (Central Standard Time),397549.0,iron,1000,I,m,m,None,361,146.0,215.0,107,1,1895.3000000044703,395653.69999999553,7046,iron,NF,C,391837,391837,390091,391104,390092,391986,391621,391621,391986,85
63,test,1,inc,0,m,Fri Feb 07 2025 12:26:23 GMT-0600 (Central Standard Time),399565.1000000015,plum,1100,I,z,z,None,379,180.0,199.0,104,1,2012.3000000044703,397552.799999997,7046,gold,NF,C,393819,393819,391990,393103,391991,394002,393620,393620,394002,86
64,test,1,inc,1,z,Fri Feb 07 2025 12:26:23 GMT-0600 (Central Standard Time),401414.5,silver,1000,I,z,z,None,303,104.0,199.0,23,1,1845.6000000014901,399568.8999999985,7046,orange,NF,C,395735,395735,394006,395019,394007,395852,395536,395536,395852,87
64,test,1,inc,0,z,Fri Feb 07 2025 12:26:23 GMT-0600 (Central Standard Time),403447.299999997,lead,1100,I,m,m,None,393,193.0,200.0,64,1,2029.0,401418.299999997,7046,plum,NF,C,397686,397686,395855,396969,395857,397884,397486,397486,397884,88
65,test,1,inc,1,m,Fri Feb 07 2025 12:26:23 GMT-0600 (Central Standard Time),405513.3999999985,orange,1000,I,m,m,None,525,326.0,199.0,79,1,2062.0,403451.3999999985,7046,copper,NF,C,399617,399617,397888,398901,397890,399950,399418,399418,399950,89
66,test,1,con,1,z,Fri Feb 07 2025 12:26:23 GMT-0600 (Central Standard Time),407245.8999999985,kiwi,800,I,z,z,None,387,188.0,199.0,49,1,1728.6000000014901,405517.299999997,7046,kiwi,NF,C,401483,401483,399954,400767,399956,401683,401284,401284,401683,90
67,test,1,con,1,z,Fri Feb 07 2025 12:26:23 GMT-0600 (Central Standard Time),409128.69999999553,cherry,1000,I,z,z,None,342,143.0,199.0,11,1,1879.0999999940395,407249.6000000015,7046,cherry,NF,C,403416,403416,401687,402700,401688,403566,403217,403217,403566,91
67,test,1,inc,0,z,Fri Feb 07 2025 12:26:23 GMT-0600 (Central Standard Time),410861.299999997,iron,900,I,m,m,None,287,88.0,199.0,38,1,1728.6000000014901,409132.69999999553,7046,lime,NF,C,405199,405199,403570,404483,403571,405298,405000,405000,405298,92
67,test,1,con,0,z,Fri Feb 07 2025 12:26:23 GMT-0600 (Central Standard Time),412511.0,orange,800,I,m,m,None,310,111.0,199.0,17,1,1645.7000000029802,410865.299999997,7046,orange,NF,C,406832,406832,405302,406116,405303,406948,406633,406633,406948,93
68,test,1,con,1,m,Fri Feb 07 2025 12:26:23 GMT-0600 (Central Standard Time),414360.3999999985,zinc,800,I,m,m,None,501,302.0,199.0,113,1,1845.5,412514.8999999985,7046,zinc,NF,C,408481,408481,406952,407765,406953,408798,408282,408282,408797,94
69,test,1,con,1,z,Fri Feb 07 2025 12:26:23 GMT-0600 (Central Standard Time),416076.6000000015,pear,800,I,z,z,None,371,156.0,215.0,41,1,1712.2000000029802,414364.3999999985,7046,pear,NF,C,410347,410347,408801,409615,408803,410514,410132,410132,410514,95
70,test,1,inc,1,m,Fri Feb 07 2025 12:26:23 GMT-0600 (Central Standard Time),418251.8999999985,kiwi,1000,I,m,m,None,639,425.0,214.0,127,1,2171.2999999970198,416080.6000000015,7046,lead,NF,C,412264,412264,410518,411531,410519,412689,412049,412049,412689,96
70,test,1,con,0,m,Fri Feb 07 2025 12:26:23 GMT-0600 (Central Standard Time),420058.6000000015,silver,900,I,z,z,None,373,158.0,215.0,82,1,1802.6000000014901,418256.0,7046,silver,NF,C,414329,414329,412693,413597,412695,414496,414114,414114,414496,97
71,test,1,inc,1,m,Fri Feb 07 2025 12:26:23 GMT-0600 (Central Standard Time),421908.1000000015,lime,800,I,m,m,None,513,314.0,199.0,109,1,1845.7000000029802,420062.3999999985,7046,iron,NF,C,416029,416029,414499,415313,414501,416345,415830,415830,416345,98
72,test,1,inc,1,z,Fri Feb 07 2025 12:26:23 GMT-0600 (Central Standard Time),423824.0,silver,1000,I,z,z,None,368,169.0,199.0,31,1,1912.3999999985099,421911.6000000015,7046,raisin,NF,C,418078,418078,416349,417362,416350,418261,417879,417879,418261,99
73,test,1,con,1,z,Fri Feb 07 2025 12:26:23 GMT-0600 (Central Standard Time),425590.19999999553,raisin,800,I,z,z,None,419,204.0,215.0,25,1,1762.2999999970198,423827.8999999985,7046,raisin,NF,C,419811,419811,418265,419078,418266,420027,419596,419596,420027,100
74,test,1,con,1,z,Fri Feb 07 2025 12:26:23 GMT-0600 (Central Standard Time),427722.799999997,raisin,1000,I,z,z,None,590,390.0,200.0,27,1,2128.7999999970198,425594.0,7046,raisin,NF,C,421761,421761,420031,421045,420032,422160,421561,421561,422160,101
75,test,1,con,1,z,Fri Feb 07 2025 12:26:23 GMT-0600 (Central Standard Time),429572.299999997,orange,1000,I,z,z,None,313,114.0,199.0,19,1,1845.7999999970198,427726.5,7046,orange,NF,C,423893,423893,422164,423177,422165,424009,423694,423694,424009,102
76,test,1,inc,1,z,Fri Feb 07 2025 12:26:23 GMT-0600 (Central Standard Time),431488.3999999985,copper,900,I,z,z,None,475,260.0,215.0,22,1,1912.2000000029802,429576.19999999553,7046,orange,NF,C,425659,425659,424013,424927,424014,425926,425444,425444,425925,103
77,test,1,inc,1,z,Fri Feb 07 2025 12:26:23 GMT-0600 (Central Standard Time),433554.3999999985,cobalt,1100,I,z,z,None,423,208.0,215.0,24,1,2062.10000000149,431492.299999997,7046,orange,NF,C,427775,427775,425929,427043,425931,427991,427560,427560,427991,104
78,test,1,inc,1,z,Fri Feb 07 2025 12:26:23 GMT-0600 (Central Standard Time),435353.8999999985,bronze,800,I,z,z,None,449,234.0,215.0,21,1,1795.7000000029802,433558.19999999553,7046,orange,NF,C,429541,429541,427995,428809,427997,429791,429326,429326,429791,105
79,test,1,con,1,m,Fri Feb 07 2025 12:26:23 GMT-0600 (Central Standard Time),437036.799999997,bronze,800,I,m,m,None,338,139.0,199.0,65,1,1679.1999999955297,435357.6000000015,7046,bronze,NF,C,431324,431324,429795,430608,429796,431474,431125,431125,431474,106
80,test,1,con,1,m,Fri Feb 07 2025 12:26:23 GMT-0600 (Central Standard Time),439069.3999999985,bronze,1100,I,m,m,None,395,196.0,199.0,68,1,2029.0,437040.3999999985,7046,bronze,NF,C,433307,433307,431477,432591,431479,433506,433108,433108,433506,107
81,test,1,inc,1,m,Fri Feb 07 2025 12:26:23 GMT-0600 (Central Standard Time),441002.1000000015,cherry,900,I,m,m,None,490,275.0,215.0,94,1,1929.0,439073.1000000015,7046,cobalt,NF,C,435156,435156,433510,434424,433512,435439,434941,434941,435439,108
82,test,1,inc,1,m,Fri Feb 07 2025 12:26:23 GMT-0600 (Central Standard Time),443018.19999999553,kiwi,1000,I,m,m,None,482,283.0,199.0,111,1,2012.5,441005.69999999553,7046,iron,NF,C,437172,437172,435443,436456,435444,437455,436973,436973,437455,109
83,test,1,inc,1,z,Fri Feb 07 2025 12:26:23 GMT-0600 (Central Standard Time),445100.799999997,cobalt,1100,I,z,z,None,438,239.0,199.0,16,1,2079.10000000149,443021.69999999553,7046,cherry,NF,C,439288,439288,437459,438573,437460,439538,439089,439089,439538,110
84,test,1,con,1,z,Fri Feb 07 2025 12:26:23 GMT-0600 (Central Standard Time),447016.799999997,lime,1000,I,z,z,None,375,176.0,199.0,35,1,1911.8999999985099,445104.8999999985,7046,lime,NF,C,441271,441271,439542,440555,439543,441454,441072,441072,441454,111
85,test,1,con,1,z,Fri Feb 07 2025 12:26:23 GMT-0600 (Central Standard Time),448799.6000000015,pear,900,I,z,z,None,343,144.0,199.0,42,1,1778.8000000044703,447020.799999997,7046,pear,NF,C,443087,443087,441458,442371,441459,443237,442888,442888,443237,112
86,test,1,inc,1,m,Fri Feb 07 2025 12:26:23 GMT-0600 (Central Standard Time),450832.299999997,raisin,1100,I,m,m,None,392,177.0,215.0,72,1,2029.0,448803.299999997,7046,bronze,NF,C,445086,445086,443240,444354,443242,445269,444871,444871,445269,113
87,test,1,con,1,m,Fri Feb 07 2025 12:26:23 GMT-0600 (Central Standard Time),452614.8999999985,zinc,900,I,m,m,None,343,128.0,215.0,114,1,1778.6000000014901,450836.299999997,7046,zinc,NF,C,446919,446919,445273,446187,445275,447052,446703,446704,447052,114
87,test,1,con,0,m,Fri Feb 07 2025 12:26:23 GMT-0600 (Central Standard Time),454431.19999999553,bronze,900,I,z,z,None,369,170.0,199.0,66,1,1812.2999999970198,452618.8999999985,7046,bronze,NF,C,448685,448685,447056,447970,447057,448868,448486,448486,448868,115
87,test,1,inc,0,m,Fri Feb 07 2025 12:26:23 GMT-0600 (Central Standard Time),457763.6000000015,banana,800,I,None,None,None,1799,1799.0,199.0,69,1,3328.5,454435.1000000015,7046,bronze,NF,C,450401,450401,448872,449686,448873,452201,450202,450202,452201,116
88,test,1,con,1,z,Fri Feb 07 2025 12:26:23 GMT-0600 (Central Standard Time),459962.6000000015,kiwi,1100,I,z,z,None,564,365.0,199.0,52,1,2195.4000000059605,457767.19999999553,7046,kiwi,NF,C,454034,454034,452204,453318,452206,454400,453834,453834,454400,117
89,test,1,con,1,m,Fri Feb 07 2025 12:26:23 GMT-0600 (Central Standard Time),461562.299999997,iron,800,I,m,m,None,257,58.0,199.0,105,1,1595.7999999970198,459966.5,7046,iron,NF,C,455933,455933,454404,455217,454405,455999,455734,455734,455999,118
89,test,1,inc,0,m,Fri Feb 07 2025 12:26:23 GMT-0600 (Central Standard Time),463228.3999999985,lime,800,I,z,z,None,329,114.0,215.0,125,1,1662.0,461566.3999999985,7046,lead,NF,C,457549,457549,456003,456816,456005,457666,457334,457334,457665,119
90,test,1,inc,1,z,Fri Feb 07 2025 12:26:23 GMT-0600 (Central Standard Time),464995.299999997,gold,800,I,z,z,None,423,208.0,215.0,61,1,1763.1000000014901,463232.19999999553,7046,plum,NF,C,459215,459215,457669,458483,457671,459432,459000,459000,459432,120
90,test,1,inc,0,m,Fri Feb 07 2025 12:26:23 GMT-0600 (Central Standard Time),466927.19999999553,cherry,900,I,z,z,None,485,286.0,199.0,70,1,1928.1999999955297,464999.0,7046,bronze,NF,C,461065,461065,459436,460349,459437,461364,460866,460866,461364,121
91,test,1,con,1,m,Fri Feb 07 2025 12:26:23 GMT-0600 (Central Standard Time),468960.0,lead,1100,I,m,m,None,384,169.0,215.0,124,1,2029.0,466931.0,7046,lead,NF,C,463214,463214,461368,462481,461369,463397,462999,462999,463397,122
91,test,1,inc,0,m,Fri Feb 07 2025 12:26:23 GMT-0600 (Central Standard Time),470792.8999999985,pear,900,I,z,z,None,384,185.0,199.0,118,1,1829.2000000029802,468963.69999999553,7046,zinc,NF,C,465030,465030,463401,464314,463402,465230,464831,464831,465230,123
92,test,1,inc,1,z,Fri Feb 07 2025 12:26:23 GMT-0600 (Central Standard Time),472626.3999999985,iron,900,I,z,z,None,399,200.0,199.0,46,1,1829.7999999970198,470796.6000000015,7046,pear,NF,C,466863,466863,465234,466147,465235,467063,466664,466664,467063,124
93,test,1,con,1,z,Fri Feb 07 2025 12:26:23 GMT-0600 (Central Standard Time),474541.6000000015,banana,1000,I,z,z,None,370,155.0,215.0,3,1,1911.6000000014901,472630.0,7046,banana,NF,C,468812,468812,467067,468080,467068,468979,468597,468597,468979,125
94,test,1,con,1,z,Fri Feb 07 2025 12:26:23 GMT-0600 (Central Standard Time),476641.0,orange,1100,I,z,z,None,450,251.0,199.0,20,1,2095.7000000029802,474545.299999997,7046,orange,NF,C,470812,470812,468982,470096,468984,471078,470613,470613,471078,126
94,test,1,inc,0,z,Fri Feb 07 2025 12:26:23 GMT-0600 (Central Standard Time),478323.69999999553,iron,900,I,m,m,None,245,31.0,214.0,54,1,1678.6999999955297,476645.0,7046,kiwi,NF,C,472728,472728,471082,471995,471083,472761,472513,472513,472761,127
94,test,1,con,0,m,Fri Feb 07 2025 12:26:23 GMT-0600 (Central Standard Time),480323.299999997,cobalt,1100,I,z,z,None,355,140.0,215.0,92,1,1996.0,478327.299999997,7046,cobalt,NF,C,474611,474611,472764,473878,472766,474760,474395,474395,474760,128
