acc_sum,block,block_c,change,condition,correct,correct_response,datetime,endtime,face,project,response,response_time,row_sel,session_number,start_end,starttime,subject_id,task,task_vers,trial
0,prac,1,,1-Back,,,Fri Feb 07 2025 15:24:13 GMT-0600 (Central Standard Time),,050_m_f_n_a.png,O,space,12327,1,1,,,7040,NNB,A,0
1,prac,1,0.0,1-Back,1,m,Fri Feb 07 2025 15:24:13 GMT-0600 (Central Standard Time),201355.80000000447,063_y_f_n_a.png,O,m,611,2,1,1422.5,199933.30000000447,7040,NNB,A,1
1,prac,1,1.0,1-Back,0,z,Fri Feb 07 2025 15:24:13 GMT-0600 (Central Standard Time),204138.20000000298,063_y_f_n_a.png,O,None,2007,3,1,2774.7000000029802,201363.5,7040,NNB,A,2
2,prac,1,0.0,1-Back,1,m,Fri Feb 07 2025 15:24:13 GMT-0600 (Central Standard Time),206470.80000000447,053_o_m_n_a.png,O,m,1527,4,1,2325.5,204145.30000000447,7040,NNB,A,3
3,prac,1,0.0,1-Back,1,m,Fri Feb 07 2025 15:24:13 GMT-0600 (Central Standard Time),207987.20000000298,058_m_m_n_a.png,O,m,705,5,1,1509.0,206478.20000000298,7040,NNB,A,4
4,prac,1,1.0,1-Back,1,z,Fri Feb 07 2025 15:24:13 GMT-0600 (Central Standard Time),209520.0,058_m_m_n_a.png,O,z,758,6,1,1525.3999999985099,207994.6000000015,7040,NNB,A,5
5,prac,1,0.0,1-Back,1,m,Fri Feb 07 2025 15:24:13 GMT-0600 (Central Standard Time),211219.3999999985,047_o_f_n_a.png,O,m,864,7,1,1691.2999999970198,209528.1000000015,7040,NNB,A,6
6,prac,1,0.0,1-Back,1,m,Fri Feb 07 2025 15:24:13 GMT-0600 (Central Standard Time),212702.20000000298,045_m_m_n_a.png,O,m,671,8,1,1475.3999999985099,211226.80000000447,7040,NNB,A,7
7,prac,1,0.0,1-Back,1,m,Fri Feb 07 2025 15:24:13 GMT-0600 (Central Standard Time),214434.8999999985,050_m_f_n_a.png,O,m,946,9,1,1725.0999999940395,212709.80000000447,7040,NNB,A,8
7,prac,1,1.0,1-Back,0,z,Fri Feb 07 2025 15:24:13 GMT-0600 (Central Standard Time),215819.1000000015,050_m_f_n_a.png,O,m,606,10,1,1376.7999999970198,214442.30000000447,7040,NNB,A,9
8,prac,1,0.0,1-Back,1,m,Fri Feb 07 2025 15:24:13 GMT-0600 (Central Standard Time),217450.70000000298,053_o_m_n_a.png,O,m,854,11,1,1624.3999999985099,215826.30000000447,7040,NNB,A,10
9,prac,1,0.0,1-Back,1,m,Fri Feb 07 2025 15:24:13 GMT-0600 (Central Standard Time),219150.3999999985,010_y_f_n_a.png,O,m,865,12,1,1692.1999999955297,217458.20000000298,7040,NNB,A,11
0,test,1,0.0,1-Back,,,Fri Feb 07 2025 15:24:13 GMT-0600 (Central Standard Time),219150.3999999985,063_y_f_n_a.png,O,space,20994,1,1,1692.1999999955297,217458.20000000298,7040,NNB,A,0
1,test,1,0.0,1-Back,1,m,Fri Feb 07 2025 15:24:13 GMT-0600 (Central Standard Time),254372.5,043_m_f_n_a.png,O,m,1012,2,1,2027.1000000014901,252345.3999999985,7040,NNB,A,1
2,test,1,0.0,1-Back,1,m,Fri Feb 07 2025 15:24:13 GMT-0600 (Central Standard Time),256455.20000000298,010_y_f_n_a.png,O,m,1059,3,1,2076.39999999851,254378.80000000447,7040,NNB,A,2
3,test,1,1.0,1-Back,1,z,Fri Feb 07 2025 15:24:13 GMT-0600 (Central Standard Time),257988.20000000298,010_y_f_n_a.png,O,z,505,4,1,1526.6000000014901,256461.6000000015,7040,NNB,A,3
4,test,1,0.0,1-Back,1,m,Fri Feb 07 2025 15:24:13 GMT-0600 (Central Standard Time),259520.8999999985,043_m_f_n_a.png,O,m,508,5,1,1526.7999999970198,257994.1000000015,7040,NNB,A,4
4,test,1,0.0,1-Back,0,m,Fri Feb 07 2025 15:24:13 GMT-0600 (Central Standard Time),261036.8999999985,053_o_m_n_a.png,O,z,495,6,1,1509.8999999985099,259527.0,7040,NNB,A,5
4,test,1,1.0,1-Back,0,z,Fri Feb 07 2025 15:24:13 GMT-0600 (Central Standard Time),263702.80000000447,053_o_m_n_a.png,O,m,1636,7,1,2659.10000000149,261043.70000000298,7040,NNB,A,6
5,test,1,0.0,1-Back,1,m,Fri Feb 07 2025 15:24:13 GMT-0600 (Central Standard Time),265386.30000000447,058_m_m_n_a.png,O,m,665,8,1,1677.2000000029802,263709.1000000015,7040,NNB,A,7
6,test,1,0.0,1-Back,1,m,Fri Feb 07 2025 15:24:13 GMT-0600 (Central Standard Time),267035.200000003,047_o_f_n_a.png,O,m,622,9,1,1642.7000000029802,265392.5,7040,NNB,A,8
7,test,1,0.0,1-Back,1,m,Fri Feb 07 2025 15:24:13 GMT-0600 (Central Standard Time),268734.6000000015,058_m_m_n_a.png,O,m,677,10,1,1693.2000000029802,267041.3999999985,7040,NNB,A,9
8,test,1,0.0,1-Back,1,m,Fri Feb 07 2025 15:24:13 GMT-0600 (Central Standard Time),270350.700000003,041_y_m_n_a.png,O,m,593,11,1,1609.8000000044703,268740.8999999985,7040,NNB,A,10
8,test,1,1.0,1-Back,0,z,Fri Feb 07 2025 15:24:13 GMT-0600 (Central Standard Time),271850.3999999985,041_y_m_n_a.png,O,m,474,12,1,1493.5,270356.8999999985,7040,NNB,A,11
9,test,1,0.0,1-Back,1,m,Fri Feb 07 2025 15:24:13 GMT-0600 (Central Standard Time),273616.5,044_o_f_n_a.png,O,m,734,13,1,1759.8999999985099,271856.6000000015,7040,NNB,A,12
10,test,1,1.0,1-Back,1,z,Fri Feb 07 2025 15:24:13 GMT-0600 (Central Standard Time),275016.1000000015,044_o_f_n_a.png,O,z,375,14,1,1393.2999999970198,273622.80000000447,7040,NNB,A,13
11,test,1,0.0,1-Back,1,m,Fri Feb 07 2025 15:24:13 GMT-0600 (Central Standard Time),276598.8999999985,008_y_m_n_a.png,O,m,561,15,1,1576.3999999985099,275022.5,7040,NNB,A,14
12,test,1,0.0,1-Back,1,m,Fri Feb 07 2025 15:24:13 GMT-0600 (Central Standard Time),278332.700000003,050_m_f_n_a.png,O,m,713,16,1,1727.6000000014901,276605.1000000015,7040,NNB,A,15
13,test,1,0.0,1-Back,1,m,Fri Feb 07 2025 15:24:13 GMT-0600 (Central Standard Time),279931.200000003,046_o_m_n_a.png,O,m,580,17,1,1592.1000000014901,278339.1000000015,7040,NNB,A,16
14,test,1,0.0,1-Back,1,m,Fri Feb 07 2025 15:24:13 GMT-0600 (Central Standard Time),281414.1000000015,050_m_f_n_a.png,O,m,461,18,1,1476.3999999985099,279937.700000003,7040,NNB,A,17
0,test,2,0.0,1-Back,,,Fri Feb 07 2025 15:24:13 GMT-0600 (Central Standard Time),281414.1000000015,058_m_m_n_a.png,O,space,4395,1,1,1476.3999999985099,279937.700000003,7040,NNB,A,0
1,test,2,0.0,1-Back,1,m,Fri Feb 07 2025 15:24:13 GMT-0600 (Central Standard Time),289511.3999999985,043_m_f_n_a.png,O,m,660,2,1,1676.3999999985099,287835.0,7040,NNB,A,1
2,test,2,1.0,1-Back,1,z,Fri Feb 07 2025 15:24:13 GMT-0600 (Central Standard Time),291244.30000000447,043_m_f_n_a.png,O,z,712,3,1,1727.2000000029802,289517.1000000015,7040,NNB,A,2
3,test,2,0.0,1-Back,1,m,Fri Feb 07 2025 15:24:13 GMT-0600 (Central Standard Time),292710.700000003,058_m_m_n_a.png,O,m,435,4,1,1460.6000000014901,291250.1000000015,7040,NNB,A,3
4,test,2,0.0,1-Back,1,m,Fri Feb 07 2025 15:24:13 GMT-0600 (Central Standard Time),294376.3999999985,041_y_m_n_a.png,O,m,633,5,1,1659.1999999955297,292717.200000003,7040,NNB,A,4
5,test,2,0.0,1-Back,1,m,Fri Feb 07 2025 15:24:13 GMT-0600 (Central Standard Time),295909.3999999985,063_y_f_n_a.png,O,m,512,6,1,1526.7999999970198,294382.6000000015,7040,NNB,A,5
6,test,2,1.0,1-Back,1,z,Fri Feb 07 2025 15:24:13 GMT-0600 (Central Standard Time),297342.700000003,063_y_f_n_a.png,O,z,402,7,1,1427.7000000029802,295915.0,7040,NNB,A,6
7,test,2,0.0,1-Back,1,m,Fri Feb 07 2025 15:24:13 GMT-0600 (Central Standard Time),298875.30000000447,041_y_m_n_a.png,O,m,505,8,1,1526.4000000059605,297348.8999999985,7040,NNB,A,7
8,test,2,0.0,1-Back,1,m,Fri Feb 07 2025 15:24:13 GMT-0600 (Central Standard Time),300474.8999999985,044_o_f_n_a.png,O,m,572,9,1,1593.1999999955297,298881.700000003,7040,NNB,A,8
9,test,2,0.0,1-Back,1,m,Fri Feb 07 2025 15:24:13 GMT-0600 (Central Standard Time),302007.3999999985,045_m_m_n_a.png,O,m,509,10,1,1525.8999999985099,300481.5,7040,NNB,A,9
10,test,2,1.0,1-Back,1,z,Fri Feb 07 2025 15:24:13 GMT-0600 (Central Standard Time),303407.1000000015,045_m_m_n_a.png,O,z,376,11,1,1393.6000000014901,302013.5,7040,NNB,A,10
11,test,2,0.0,1-Back,1,m,Fri Feb 07 2025 15:24:13 GMT-0600 (Central Standard Time),305006.3999999985,044_o_f_n_a.png,O,m,577,12,1,1593.3999999985099,303413.0,7040,NNB,A,11
12,test,2,0.0,1-Back,1,m,Fri Feb 07 2025 15:24:13 GMT-0600 (Central Standard Time),306789.3999999985,047_o_f_n_a.png,O,m,761,13,1,1777.0999999940395,305012.30000000447,7040,NNB,A,12
13,test,2,0.0,1-Back,1,m,Fri Feb 07 2025 15:24:13 GMT-0600 (Central Standard Time),308238.8999999985,053_o_m_n_a.png,O,m,427,14,1,1443.0,306795.8999999985,7040,NNB,A,13
14,test,2,0.0,1-Back,1,m,Fri Feb 07 2025 15:24:13 GMT-0600 (Central Standard Time),309755.0,046_o_m_n_a.png,O,m,497,15,1,1509.8999999985099,308245.1000000015,7040,NNB,A,14
15,test,2,1.0,1-Back,1,z,Fri Feb 07 2025 15:24:13 GMT-0600 (Central Standard Time),311421.30000000447,046_o_m_n_a.png,O,z,646,16,1,1658.9000000059605,309762.3999999985,7040,NNB,A,15
16,test,2,0.0,1-Back,1,m,Fri Feb 07 2025 15:24:13 GMT-0600 (Central Standard Time),313004.1000000015,008_y_m_n_a.png,O,m,562,17,1,1576.6000000014901,311427.5,7040,NNB,A,16
16,test,2,1.0,1-Back,0,z,Fri Feb 07 2025 15:24:13 GMT-0600 (Central Standard Time),314453.6000000015,008_y_m_n_a.png,O,m,427,18,1,1443.0,313010.6000000015,7040,NNB,A,17
0,test,3,1.0,1-Back,,,Fri Feb 07 2025 15:24:13 GMT-0600 (Central Standard Time),314453.6000000015,010_y_f_n_a.png,O,space,2716,1,1,1443.0,313010.6000000015,7040,NNB,A,0
1,test,3,0.0,1-Back,1,m,Fri Feb 07 2025 15:24:13 GMT-0600 (Central Standard Time),320785.200000003,046_o_m_n_a.png,O,m,508,2,1,1526.8000000044703,319258.3999999985,7040,NNB,A,1
2,test,3,1.0,1-Back,1,z,Fri Feb 07 2025 15:24:13 GMT-0600 (Central Standard Time),322947.6000000015,046_o_m_n_a.png,O,z,1128,3,1,2155.5,320792.1000000015,7040,NNB,A,2
3,test,3,0.0,1-Back,1,m,Fri Feb 07 2025 15:24:13 GMT-0600 (Central Standard Time),324517.30000000447,050_m_f_n_a.png,O,m,538,4,1,1562.5,322954.80000000447,7040,NNB,A,3
4,test,3,1.0,1-Back,1,z,Fri Feb 07 2025 15:24:13 GMT-0600 (Central Standard Time),326066.80000000447,050_m_f_n_a.png,O,z,531,5,1,1543.4000000059605,324523.3999999985,7040,NNB,A,4
5,test,3,0.0,1-Back,1,m,Fri Feb 07 2025 15:24:13 GMT-0600 (Central Standard Time),327666.3999999985,044_o_f_n_a.png,O,m,574,6,1,1593.5,326072.8999999985,7040,NNB,A,5
6,test,3,0.0,1-Back,1,m,Fri Feb 07 2025 15:24:13 GMT-0600 (Central Standard Time),329365.5,041_y_m_n_a.png,O,m,678,7,1,1692.5,327673.0,7040,NNB,A,6
6,test,3,0.0,1-Back,0,m,Fri Feb 07 2025 15:24:13 GMT-0600 (Central Standard Time),331048.6000000015,044_o_f_n_a.png,O,z,650,8,1,1676.8999999985099,329371.700000003,7040,NNB,A,7
7,test,3,0.0,1-Back,1,m,Fri Feb 07 2025 15:24:13 GMT-0600 (Central Standard Time),332665.80000000447,008_y_m_n_a.png,O,m,583,9,1,1610.6000000014901,331055.200000003,7040,NNB,A,8
8,test,3,1.0,1-Back,1,z,Fri Feb 07 2025 15:24:13 GMT-0600 (Central Standard Time),334364.30000000447,008_y_m_n_a.png,O,z,679,10,1,1692.0,332672.30000000447,7040,NNB,A,9
9,test,3,0.0,1-Back,1,m,Fri Feb 07 2025 15:24:13 GMT-0600 (Central Standard Time),336146.8999999985,043_m_f_n_a.png,O,m,756,11,1,1776.1999999955297,334370.700000003,7040,NNB,A,10
10,test,3,0.0,1-Back,1,m,Fri Feb 07 2025 15:24:13 GMT-0600 (Central Standard Time),337880.8999999985,063_y_f_n_a.png,O,m,709,12,1,1727.1999999955297,336153.700000003,7040,NNB,A,11
11,test,3,1.0,1-Back,1,z,Fri Feb 07 2025 15:24:13 GMT-0600 (Central Standard Time),339495.80000000447,063_y_f_n_a.png,O,z,592,13,1,1609.2000000029802,337886.6000000015,7040,NNB,A,12
12,test,3,0.0,1-Back,1,m,Fri Feb 07 2025 15:24:13 GMT-0600 (Central Standard Time),341379.700000003,043_m_f_n_a.png,O,m,849,14,1,1877.2000000029802,339502.5,7040,NNB,A,13
13,test,3,0.0,1-Back,1,m,Fri Feb 07 2025 15:24:13 GMT-0600 (Central Standard Time),342861.700000003,058_m_m_n_a.png,O,m,462,15,1,1475.5,341386.200000003,7040,NNB,A,14
14,test,3,1.0,1-Back,1,z,Fri Feb 07 2025 15:24:13 GMT-0600 (Central Standard Time),344610.8999999985,058_m_m_n_a.png,O,z,713,16,1,1742.5999999940395,342868.30000000447,7040,NNB,A,15
15,test,3,0.0,1-Back,1,m,Fri Feb 07 2025 15:24:13 GMT-0600 (Central Standard Time),346468.3999999985,047_o_f_n_a.png,O,m,693,17,1,1851.6999999955297,344616.700000003,7040,NNB,A,16
16,test,3,1.0,1-Back,1,z,Fri Feb 07 2025 15:24:13 GMT-0600 (Central Standard Time),348159.80000000447,047_o_f_n_a.png,O,z,652,18,1,1684.4000000059605,346475.3999999985,7040,NNB,A,17
0,test,4,1.0,1-Back,,,Fri Feb 07 2025 15:24:13 GMT-0600 (Central Standard Time),348159.80000000447,050_m_f_n_a.png,O,space,2394,1,1,1684.4000000059605,346475.3999999985,7040,NNB,A,0
1,test,4,0.0,1-Back,1,m,Fri Feb 07 2025 15:24:13 GMT-0600 (Central Standard Time),354207.8999999985,046_o_m_n_a.png,O,m,600,2,1,1626.5,352581.3999999985,7040,NNB,A,1
2,test,4,0.0,1-Back,1,m,Fri Feb 07 2025 15:24:13 GMT-0600 (Central Standard Time),355874.0,050_m_f_n_a.png,O,m,640,3,1,1660.1000000014901,354213.8999999985,7040,NNB,A,2
3,test,4,0.0,1-Back,1,m,Fri Feb 07 2025 15:24:13 GMT-0600 (Central Standard Time),357440.3999999985,044_o_f_n_a.png,O,m,534,4,1,1560.0999999940395,355880.30000000447,7040,NNB,A,3
4,test,4,1.0,1-Back,1,z,Fri Feb 07 2025 15:24:13 GMT-0600 (Central Standard Time),359056.5,044_o_f_n_a.png,O,z,584,5,1,1609.8999999985099,357446.6000000015,7040,NNB,A,4
5,test,4,0.0,1-Back,1,m,Fri Feb 07 2025 15:24:13 GMT-0600 (Central Standard Time),360639.3999999985,063_y_f_n_a.png,O,m,551,6,1,1576.5999999940395,359062.80000000447,7040,NNB,A,5
6,test,4,0.0,1-Back,1,m,Fri Feb 07 2025 15:24:13 GMT-0600 (Central Standard Time),362122.30000000447,041_y_m_n_a.png,O,m,456,7,1,1475.8000000044703,360646.5,7040,NNB,A,6
7,test,4,1.0,1-Back,1,z,Fri Feb 07 2025 15:24:13 GMT-0600 (Central Standard Time),363788.1000000015,041_y_m_n_a.png,O,z,638,8,1,1659.2000000029802,362128.8999999985,7040,NNB,A,7
8,test,4,0.0,1-Back,1,m,Fri Feb 07 2025 15:24:13 GMT-0600 (Central Standard Time),365387.700000003,063_y_f_n_a.png,O,m,572,9,1,1593.3000000044703,363794.3999999985,7040,NNB,A,8
9,test,4,0.0,1-Back,1,m,Fri Feb 07 2025 15:24:13 GMT-0600 (Central Standard Time),366853.8999999985,045_m_m_n_a.png,O,m,444,10,1,1459.7999999970198,365394.1000000015,7040,NNB,A,9
10,test,4,1.0,1-Back,1,z,Fri Feb 07 2025 15:24:13 GMT-0600 (Central Standard Time),368520.200000003,045_m_m_n_a.png,O,z,642,11,1,1660.1000000014901,366860.1000000015,7040,NNB,A,10
11,test,4,0.0,1-Back,1,m,Fri Feb 07 2025 15:24:13 GMT-0600 (Central Standard Time),370269.700000003,047_o_f_n_a.png,O,m,720,12,1,1743.3000000044703,368526.3999999985,7040,NNB,A,11
12,test,4,0.0,1-Back,1,m,Fri Feb 07 2025 15:24:13 GMT-0600 (Central Standard Time),371702.3999999985,053_o_m_n_a.png,O,m,410,13,1,1426.0,370276.3999999985,7040,NNB,A,12
13,test,4,0.0,1-Back,1,m,Fri Feb 07 2025 15:24:13 GMT-0600 (Central Standard Time),373335.30000000447,047_o_f_n_a.png,O,m,601,14,1,1626.9000000059605,371708.3999999985,7040,NNB,A,13
14,test,4,0.0,1-Back,1,m,Fri Feb 07 2025 15:24:13 GMT-0600 (Central Standard Time),374984.700000003,010_y_f_n_a.png,O,m,625,15,1,1642.6000000014901,373342.1000000015,7040,NNB,A,14
15,test,4,1.0,1-Back,1,z,Fri Feb 07 2025 15:24:13 GMT-0600 (Central Standard Time),376500.80000000447,010_y_f_n_a.png,O,z,496,16,1,1509.6000000014901,374991.200000003,7040,NNB,A,15
16,test,4,0.0,1-Back,1,m,Fri Feb 07 2025 15:24:13 GMT-0600 (Central Standard Time),378050.30000000447,043_m_f_n_a.png,O,m,516,17,1,1544.2000000029802,376506.1000000015,7040,NNB,A,16
17,test,4,1.0,1-Back,1,z,Fri Feb 07 2025 15:24:13 GMT-0600 (Central Standard Time),379716.6000000015,043_m_f_n_a.png,O,z,637,18,1,1659.7999999970198,378056.80000000447,7040,NNB,A,17
0,test,5,1.0,1-Back,,,Fri Feb 07 2025 15:24:13 GMT-0600 (Central Standard Time),379716.6000000015,053_o_m_n_a.png,O,space,2093,1,1,1659.7999999970198,378056.80000000447,7040,NNB,A,0
1,test,5,1.0,1-Back,1,z,Fri Feb 07 2025 15:24:13 GMT-0600 (Central Standard Time),385398.30000000447,053_o_m_n_a.png,O,z,544,2,1,1560.7000000029802,383837.6000000015,7040,NNB,A,1
2,test,5,0.0,1-Back,1,m,Fri Feb 07 2025 15:24:13 GMT-0600 (Central Standard Time),386914.6000000015,063_y_f_n_a.png,O,m,482,3,1,1510.0,385404.6000000015,7040,NNB,A,2
3,test,5,0.0,1-Back,1,m,Fri Feb 07 2025 15:24:13 GMT-0600 (Central Standard Time),388447.200000003,041_y_m_n_a.png,O,m,509,4,1,1526.7000000029802,386920.5,7040,NNB,A,3
4,test,5,0.0,1-Back,1,m,Fri Feb 07 2025 15:24:13 GMT-0600 (Central Standard Time),390296.5,063_y_f_n_a.png,O,m,826,5,1,1842.8999999985099,388453.6000000015,7040,NNB,A,4
5,test,5,0.0,1-Back,1,m,Fri Feb 07 2025 15:24:13 GMT-0600 (Central Standard Time),391846.200000003,058_m_m_n_a.png,O,m,527,6,1,1544.0,390302.200000003,7040,NNB,A,5
6,test,5,1.0,1-Back,1,z,Fri Feb 07 2025 15:24:13 GMT-0600 (Central Standard Time),393571.1000000015,058_m_m_n_a.png,O,z,707,7,1,1718.5,391852.6000000015,7040,NNB,A,6
7,test,5,0.0,1-Back,1,m,Fri Feb 07 2025 15:24:13 GMT-0600 (Central Standard Time),395178.6000000015,010_y_f_n_a.png,O,m,581,8,1,1600.7999999970198,393577.80000000447,7040,NNB,A,7
8,test,5,0.0,1-Back,1,m,Fri Feb 07 2025 15:24:13 GMT-0600 (Central Standard Time),396761.30000000447,008_y_m_n_a.png,O,m,557,9,1,1576.6000000014901,395184.700000003,7040,NNB,A,8
9,test,5,0.0,1-Back,1,m,Fri Feb 07 2025 15:24:13 GMT-0600 (Central Standard Time),398560.700000003,010_y_f_n_a.png,O,m,766,10,1,1793.6000000014901,396767.1000000015,7040,NNB,A,9
10,test,5,0.0,1-Back,1,m,Fri Feb 07 2025 15:24:13 GMT-0600 (Central Standard Time),400043.3999999985,047_o_f_n_a.png,O,m,463,11,1,1476.3999999985099,398567.0,7040,NNB,A,10
10,test,5,1.0,1-Back,0,z,Fri Feb 07 2025 15:24:13 GMT-0600 (Central Standard Time),401494.30000000447,047_o_f_n_a.png,O,m,420,12,1,1444.4000000059605,400049.8999999985,7040,NNB,A,11
11,test,5,0.0,1-Back,1,m,Fri Feb 07 2025 15:24:13 GMT-0600 (Central Standard Time),403026.0,046_o_m_n_a.png,O,m,497,13,1,1525.6000000014901,401500.3999999985,7040,NNB,A,12
12,test,5,0.0,1-Back,1,m,Fri Feb 07 2025 15:24:13 GMT-0600 (Central Standard Time),404575.5,050_m_f_n_a.png,O,m,518,14,1,1543.6000000014901,403031.8999999985,7040,NNB,A,13
13,test,5,1.0,1-Back,1,z,Fri Feb 07 2025 15:24:13 GMT-0600 (Central Standard Time),406125.0,050_m_f_n_a.png,O,z,528,15,1,1542.8999999985099,404582.1000000015,7040,NNB,A,14
14,test,5,0.0,1-Back,1,m,Fri Feb 07 2025 15:24:13 GMT-0600 (Central Standard Time),407791.1000000015,046_o_m_n_a.png,O,m,644,16,1,1659.2000000029802,406131.8999999985,7040,NNB,A,15
15,test,5,0.0,1-Back,1,m,Fri Feb 07 2025 15:24:13 GMT-0600 (Central Standard Time),409440.700000003,043_m_f_n_a.png,O,m,624,17,1,1643.3999999985099,407797.30000000447,7040,NNB,A,16
16,test,5,0.0,1-Back,1,m,Fri Feb 07 2025 15:24:13 GMT-0600 (Central Standard Time),411056.700000003,045_m_m_n_a.png,O,m,592,18,1,1609.8000000044703,409446.8999999985,7040,NNB,A,17
0,prac,1,0.0,2-Back,,,Fri Feb 07 2025 15:24:13 GMT-0600 (Central Standard Time),411056.700000003,008_y_m_n_a.png,O,space,17184,1,1,1609.8000000044703,409446.8999999985,7040,NNB,A,0
0,prac,1,0.0,2-Back,,,Fri Feb 07 2025 15:24:13 GMT-0600 (Central Standard Time),411056.700000003,043_m_f_n_a.png,O,space,17184,2,1,1609.8000000044703,409446.8999999985,7040,NNB,A,0
1,prac,1,1.0,2-Back,1,m,Fri Feb 07 2025 15:24:13 GMT-0600 (Central Standard Time),548697.200000003,046_o_m_n_a.png,O,m,978,3,1,1773.8000000044703,546923.3999999985,7040,NNB,A,1
2,prac,1,0.0,2-Back,1,m,Fri Feb 07 2025 15:24:13 GMT-0600 (Central Standard Time),550913.200000003,047_o_f_n_a.png,O,m,1369,4,1,2208.60000000149,548704.6000000015,7040,NNB,A,2
2,prac,1,0.0,2-Back,0,z,Fri Feb 07 2025 15:24:13 GMT-0600 (Central Standard Time),552829.3000000045,046_o_m_n_a.png,O,m,1128,5,1,1908.3000000044703,550921.0,7040,NNB,A,3
3,prac,1,1.0,2-Back,1,z,Fri Feb 07 2025 15:24:13 GMT-0600 (Central Standard Time),555145.3000000045,047_o_f_n_a.png,O,z,1524,6,1,2308.5,552836.8000000045,7040,NNB,A,4
3,prac,1,0.0,2-Back,0,m,Fri Feb 07 2025 15:24:13 GMT-0600 (Central Standard Time),557944.0,045_m_m_n_a.png,O,None,2001,7,1,2791.39999999851,555152.6000000015,7040,NNB,A,5
4,prac,1,0.0,2-Back,1,m,Fri Feb 07 2025 15:24:13 GMT-0600 (Central Standard Time),560360.200000003,053_o_m_n_a.png,O,m,1605,8,1,2408.39999999851,557951.8000000045,7040,NNB,A,6
5,prac,1,0.0,2-Back,1,m,Fri Feb 07 2025 15:24:13 GMT-0600 (Central Standard Time),561976.5,010_y_f_n_a.png,O,m,772,9,1,1608.5,560368.0,7040,NNB,A,7
6,prac,1,1.0,2-Back,1,z,Fri Feb 07 2025 15:24:13 GMT-0600 (Central Standard Time),563859.0,053_o_m_n_a.png,O,z,1094,10,1,1872.0,561987.0,7040,NNB,A,8
7,prac,1,0.0,2-Back,1,m,Fri Feb 07 2025 15:24:13 GMT-0600 (Central Standard Time),566159.8000000045,063_y_f_n_a.png,O,m,1487,11,1,2293.7000000029802,563866.1000000015,7040,NNB,A,9
8,prac,1,0.0,2-Back,1,m,Fri Feb 07 2025 15:24:13 GMT-0600 (Central Standard Time),567908.8999999985,045_m_m_n_a.png,O,m,961,12,1,1741.5999999940395,566167.3000000045,7040,NNB,A,10
0,test,1,0.0,2-Back,,,Fri Feb 07 2025 15:24:13 GMT-0600 (Central Standard Time),567908.8999999985,041_y_m_n_a.png,O,space,21688,1,1,1741.5999999940395,566167.3000000045,7040,NNB,A,0
0,test,1,0.0,2-Back,,,Fri Feb 07 2025 15:24:13 GMT-0600 (Central Standard Time),567908.8999999985,041_y_m_n_a.png,O,space,21688,2,1,1741.5999999940395,566167.3000000045,7040,NNB,A,0
1,test,1,0.0,2-Back,1,m,Fri Feb 07 2025 15:24:13 GMT-0600 (Central Standard Time),609294.700000003,047_o_f_n_a.png,O,m,1560,3,1,2576.2000000029802,606718.5,7040,NNB,A,1
2,test,1,0.0,2-Back,1,m,Fri Feb 07 2025 15:24:13 GMT-0600 (Central Standard Time),611027.6000000015,058_m_m_n_a.png,O,m,713,4,1,1726.7000000029802,609300.8999999985,7040,NNB,A,2
3,test,1,1.0,2-Back,1,z,Fri Feb 07 2025 15:24:13 GMT-0600 (Central Standard Time),612477.0,047_o_f_n_a.png,O,z,429,5,1,1443.1999999955297,611033.8000000045,7040,NNB,A,3
3,test,1,0.0,2-Back,0,m,Fri Feb 07 2025 15:24:13 GMT-0600 (Central Standard Time),614160.0,063_y_f_n_a.png,O,z,658,6,1,1676.3999999985099,612483.6000000015,7040,NNB,A,4
4,test,1,0.0,2-Back,1,m,Fri Feb 07 2025 15:24:13 GMT-0600 (Central Standard Time),616026.3000000045,058_m_m_n_a.png,O,m,832,7,1,1858.1000000014901,614168.200000003,7040,NNB,A,5
5,test,1,1.0,2-Back,1,z,Fri Feb 07 2025 15:24:13 GMT-0600 (Central Standard Time),617708.8000000045,063_y_f_n_a.png,O,z,655,8,1,1676.1000000014901,616032.700000003,7040,NNB,A,6
6,test,1,0.0,2-Back,1,m,Fri Feb 07 2025 15:24:13 GMT-0600 (Central Standard Time),619575.1000000015,008_y_m_n_a.png,O,m,844,9,1,1859.8999999985099,617715.200000003,7040,NNB,A,7
7,test,1,0.0,2-Back,1,m,Fri Feb 07 2025 15:24:13 GMT-0600 (Central Standard Time),621257.6000000015,044_o_f_n_a.png,O,m,654,10,1,1676.2999999970198,619581.3000000045,7040,NNB,A,8
8,test,1,1.0,2-Back,1,z,Fri Feb 07 2025 15:24:13 GMT-0600 (Central Standard Time),622790.6000000015,008_y_m_n_a.png,O,z,502,11,1,1526.6000000014901,621264.0,7040,NNB,A,9
9,test,1,0.0,2-Back,1,m,Fri Feb 07 2025 15:24:13 GMT-0600 (Central Standard Time),624656.6000000015,043_m_f_n_a.png,O,m,841,12,1,1859.7000000029802,622796.8999999985,7040,NNB,A,10
10,test,1,0.0,2-Back,1,m,Fri Feb 07 2025 15:24:13 GMT-0600 (Central Standard Time),626739.5,043_m_f_n_a.png,O,m,1056,13,1,2076.39999999851,624663.1000000015,7040,NNB,A,11
11,test,1,0.0,2-Back,1,m,Fri Feb 07 2025 15:24:13 GMT-0600 (Central Standard Time),628505.700000003,046_o_m_n_a.png,O,m,733,14,1,1759.8000000044703,626745.8999999985,7040,NNB,A,12
12,test,1,0.0,2-Back,1,m,Fri Feb 07 2025 15:24:13 GMT-0600 (Central Standard Time),630471.6000000015,044_o_f_n_a.png,O,m,943,15,1,1959.3999999985099,628512.200000003,7040,NNB,A,13
13,test,1,1.0,2-Back,1,z,Fri Feb 07 2025 15:24:13 GMT-0600 (Central Standard Time),632670.8000000045,046_o_m_n_a.png,O,z,1176,16,1,2192.9000000059605,630477.8999999985,7040,NNB,A,14
14,test,1,0.0,2-Back,1,m,Fri Feb 07 2025 15:24:13 GMT-0600 (Central Standard Time),634586.8999999985,050_m_f_n_a.png,O,m,898,17,1,1909.5,632677.3999999985,7040,NNB,A,15
15,test,1,0.0,2-Back,1,m,Fri Feb 07 2025 15:24:13 GMT-0600 (Central Standard Time),636969.3999999985,045_m_m_n_a.png,O,m,1357,18,1,2375.7999999970198,634593.6000000015,7040,NNB,A,16
0,test,2,0.0,2-Back,,,Fri Feb 07 2025 15:24:13 GMT-0600 (Central Standard Time),636969.3999999985,045_m_m_n_a.png,O,space,2728,1,1,2375.7999999970198,634593.6000000015,7040,NNB,A,0
0,test,2,0.0,2-Back,,,Fri Feb 07 2025 15:24:13 GMT-0600 (Central Standard Time),636969.3999999985,010_y_f_n_a.png,O,space,2728,2,1,2375.7999999970198,634593.6000000015,7040,NNB,A,0
0,test,2,1.0,2-Back,0,z,Fri Feb 07 2025 15:24:13 GMT-0600 (Central Standard Time),646283.5,045_m_m_n_a.png,O,m,456,3,1,1477.3999999985099,644806.1000000015,7040,NNB,A,1
1,test,2,0.0,2-Back,1,m,Fri Feb 07 2025 15:24:13 GMT-0600 (Central Standard Time),648632.6000000015,050_m_f_n_a.png,O,m,1325,4,1,2343.2000000029802,646289.3999999985,7040,NNB,A,2
1,test,2,0.0,2-Back,0,m,Fri Feb 07 2025 15:24:13 GMT-0600 (Central Standard Time),650465.5,010_y_f_n_a.png,O,z,808,5,1,1826.7999999970198,648638.700000003,7040,NNB,A,3
2,test,2,0.0,2-Back,1,m,Fri Feb 07 2025 15:24:13 GMT-0600 (Central Standard Time),652214.700000003,046_o_m_n_a.png,O,m,718,6,1,1742.7000000029802,650472.0,7040,NNB,A,4
3,test,2,0.0,2-Back,1,m,Fri Feb 07 2025 15:24:13 GMT-0600 (Central Standard Time),653964.200000003,063_y_f_n_a.png,O,m,730,7,1,1742.8999999985099,652221.3000000045,7040,NNB,A,5
4,test,2,1.0,2-Back,1,z,Fri Feb 07 2025 15:24:13 GMT-0600 (Central Standard Time),655863.700000003,046_o_m_n_a.png,O,z,869,8,1,1893.0,653970.700000003,7040,NNB,A,6
5,test,2,0.0,2-Back,1,m,Fri Feb 07 2025 15:24:13 GMT-0600 (Central Standard Time),657796.3999999985,008_y_m_n_a.png,O,m,905,9,1,1926.2999999970198,655870.1000000015,7040,NNB,A,7
6,test,2,0.0,2-Back,1,m,Fri Feb 07 2025 15:24:13 GMT-0600 (Central Standard Time),659745.6000000015,008_y_m_n_a.png,O,m,915,10,1,1943.2999999970198,657802.3000000045,7040,NNB,A,8
7,test,2,0.0,2-Back,1,m,Fri Feb 07 2025 15:24:13 GMT-0600 (Central Standard Time),661711.8000000045,043_m_f_n_a.png,O,m,935,11,1,1960.1000000014901,659751.700000003,7040,NNB,A,9
8,test,2,0.0,2-Back,1,m,Fri Feb 07 2025 15:24:13 GMT-0600 (Central Standard Time),663612.5,010_y_f_n_a.png,O,m,881,12,1,1894.6000000014901,661717.8999999985,7040,NNB,A,10
9,test,2,1.0,2-Back,1,z,Fri Feb 07 2025 15:24:13 GMT-0600 (Central Standard Time),665544.0,043_m_f_n_a.png,O,z,909,13,1,1924.7999999970198,663619.200000003,7040,NNB,A,11
10,test,2,0.0,2-Back,1,m,Fri Feb 07 2025 15:24:13 GMT-0600 (Central Standard Time),667343.0,053_o_m_n_a.png,O,m,776,14,1,1792.3999999985099,665550.6000000015,7040,NNB,A,12
11,test,2,0.0,2-Back,1,m,Fri Feb 07 2025 15:24:13 GMT-0600 (Central Standard Time),669109.5,053_o_m_n_a.png,O,m,737,15,1,1758.7999999970198,667350.700000003,7040,NNB,A,13
12,test,2,0.0,2-Back,1,m,Fri Feb 07 2025 15:24:13 GMT-0600 (Central Standard Time),671058.8000000045,044_o_f_n_a.png,O,m,930,16,1,1942.7000000029802,669116.1000000015,7040,NNB,A,14
13,test,2,0.0,2-Back,1,m,Fri Feb 07 2025 15:24:13 GMT-0600 (Central Standard Time),672774.8000000045,058_m_m_n_a.png,O,m,686,17,1,1709.6000000014901,671065.200000003,7040,NNB,A,15
14,test,2,1.0,2-Back,1,z,Fri Feb 07 2025 15:24:13 GMT-0600 (Central Standard Time),674241.200000003,044_o_f_n_a.png,O,z,434,18,1,1460.1000000014901,672781.1000000015,7040,NNB,A,16
0,test,3,1.0,2-Back,,,Fri Feb 07 2025 15:24:13 GMT-0600 (Central Standard Time),674241.200000003,041_y_m_n_a.png,O,space,1265,1,1,1460.1000000014901,672781.1000000015,7040,NNB,A,0
0,test,3,1.0,2-Back,,,Fri Feb 07 2025 15:24:13 GMT-0600 (Central Standard Time),674241.200000003,041_y_m_n_a.png,O,space,1265,2,1,1460.1000000014901,672781.1000000015,7040,NNB,A,0
1,test,3,0.0,2-Back,1,m,Fri Feb 07 2025 15:24:13 GMT-0600 (Central Standard Time),682305.5,044_o_f_n_a.png,O,m,700,3,1,1726.6999999955297,680578.8000000045,7040,NNB,A,1
2,test,3,0.0,2-Back,1,m,Fri Feb 07 2025 15:24:13 GMT-0600 (Central Standard Time),684005.1000000015,045_m_m_n_a.png,O,m,671,4,1,1693.3999999985099,682311.700000003,7040,NNB,A,2
3,test,3,1.0,2-Back,1,z,Fri Feb 07 2025 15:24:13 GMT-0600 (Central Standard Time),685970.8999999985,044_o_f_n_a.png,O,z,948,5,1,1959.6999999955297,684011.200000003,7040,NNB,A,3
4,test,3,0.0,2-Back,1,m,Fri Feb 07 2025 15:24:13 GMT-0600 (Central Standard Time),687836.8999999985,008_y_m_n_a.png,O,m,838,6,1,1859.6999999955297,685977.200000003,7040,NNB,A,4
5,test,3,0.0,2-Back,1,m,Fri Feb 07 2025 15:24:13 GMT-0600 (Central Standard Time),690069.5,045_m_m_n_a.png,O,m,1212,7,1,2226.39999999851,687843.1000000015,7040,NNB,A,5
6,test,3,1.0,2-Back,1,z,Fri Feb 07 2025 15:24:13 GMT-0600 (Central Standard Time),691835.6000000015,008_y_m_n_a.png,O,z,747,8,1,1758.7000000029802,690076.8999999985,7040,NNB,A,6
7,test,3,0.0,2-Back,1,m,Fri Feb 07 2025 15:24:13 GMT-0600 (Central Standard Time),693668.6000000015,010_y_f_n_a.png,O,m,805,9,1,1826.6000000014901,691842.0,7040,NNB,A,7
8,test,3,0.0,2-Back,1,m,Fri Feb 07 2025 15:24:13 GMT-0600 (Central Standard Time),695301.3999999985,058_m_m_n_a.png,O,m,604,10,1,1626.3999999985099,693675.0,7040,NNB,A,8
9,test,3,1.0,2-Back,1,z,Fri Feb 07 2025 15:24:13 GMT-0600 (Central Standard Time),697184.0,010_y_f_n_a.png,O,z,851,11,1,1876.1000000014901,695307.8999999985,7040,NNB,A,9
9,test,3,1.0,2-Back,0,z,Fri Feb 07 2025 15:24:13 GMT-0600 (Central Standard Time),699150.0,058_m_m_n_a.png,O,m,937,12,1,1959.6999999955297,697190.3000000045,7040,NNB,A,10
10,test,3,0.0,2-Back,1,m,Fri Feb 07 2025 15:24:13 GMT-0600 (Central Standard Time),700899.6000000015,044_o_f_n_a.png,O,m,723,13,1,1743.6000000014901,699156.0,7040,NNB,A,11
11,test,3,0.0,2-Back,1,m,Fri Feb 07 2025 15:24:13 GMT-0600 (Central Standard Time),702449.0,050_m_f_n_a.png,O,m,525,14,1,1542.8999999985099,700906.1000000015,7040,NNB,A,12
12,test,3,0.0,2-Back,1,m,Fri Feb 07 2025 15:24:13 GMT-0600 (Central Standard Time),704115.1000000015,046_o_m_n_a.png,O,m,640,15,1,1659.5,702455.6000000015,7040,NNB,A,13
13,test,3,1.0,2-Back,1,z,Fri Feb 07 2025 15:24:13 GMT-0600 (Central Standard Time),705781.3999999985,050_m_f_n_a.png,O,z,645,16,1,1659.8999999985099,704121.5,7040,NNB,A,14
14,test,3,0.0,2-Back,1,m,Fri Feb 07 2025 15:24:13 GMT-0600 (Central Standard Time),707530.8000000045,047_o_f_n_a.png,O,m,731,17,1,1742.9000000059605,705787.8999999985,7040,NNB,A,15
15,test,3,0.0,2-Back,1,m,Fri Feb 07 2025 15:24:13 GMT-0600 (Central Standard Time),709496.8000000045,047_o_f_n_a.png,O,m,941,18,1,1959.4000000059605,707537.3999999985,7040,NNB,A,16
0,test,4,0.0,2-Back,,,Fri Feb 07 2025 15:24:13 GMT-0600 (Central Standard Time),709496.8000000045,053_o_m_n_a.png,O,space,1136,1,1,1959.4000000059605,707537.3999999985,7040,NNB,A,0
0,test,4,0.0,2-Back,,,Fri Feb 07 2025 15:24:13 GMT-0600 (Central Standard Time),709496.8000000045,063_y_f_n_a.png,O,space,1136,2,1,1959.4000000059605,707537.3999999985,7040,NNB,A,0
0,test,4,1.0,2-Back,0,z,Fri Feb 07 2025 15:24:13 GMT-0600 (Central Standard Time),717444.3999999985,053_o_m_n_a.png,O,m,680,3,1,1693.0999999940395,715751.3000000045,7040,NNB,A,1
1,test,4,1.0,2-Back,1,z,Fri Feb 07 2025 15:24:13 GMT-0600 (Central Standard Time),719293.8000000045,063_y_f_n_a.png,O,z,820,4,1,1842.8000000044703,717451.0,7040,NNB,A,2
2,test,4,0.0,2-Back,1,m,Fri Feb 07 2025 15:24:13 GMT-0600 (Central Standard Time),721159.8000000045,044_o_f_n_a.png,O,m,843,5,1,1859.2000000029802,719300.6000000015,7040,NNB,A,3
3,test,4,0.0,2-Back,1,m,Fri Feb 07 2025 15:24:13 GMT-0600 (Central Standard Time),723164.0,044_o_f_n_a.png,O,m,986,6,1,1997.6999999955297,721166.3000000045,7040,NNB,A,4
4,test,4,0.0,2-Back,1,m,Fri Feb 07 2025 15:24:13 GMT-0600 (Central Standard Time),724875.5,043_m_f_n_a.png,O,m,689,7,1,1702.2999999970198,723173.200000003,7040,NNB,A,5
5,test,4,0.0,2-Back,1,m,Fri Feb 07 2025 15:24:13 GMT-0600 (Central Standard Time),726641.8000000045,008_y_m_n_a.png,O,m,741,8,1,1759.5,724882.3000000045,7040,NNB,A,6
6,test,4,1.0,2-Back,1,z,Fri Feb 07 2025 15:24:13 GMT-0600 (Central Standard Time),728240.8999999985,043_m_f_n_a.png,O,z,576,9,1,1590.0999999940395,726650.8000000045,7040,NNB,A,7
7,test,4,0.0,2-Back,1,m,Fri Feb 07 2025 15:24:13 GMT-0600 (Central Standard Time),730306.8999999985,058_m_m_n_a.png,O,m,1032,10,1,2059.5,728247.3999999985,7040,NNB,A,8
8,test,4,0.0,2-Back,1,m,Fri Feb 07 2025 15:24:13 GMT-0600 (Central Standard Time),732123.1000000015,008_y_m_n_a.png,O,m,798,11,1,1809.2999999970198,730313.8000000045,7040,NNB,A,9
9,test,4,0.0,2-Back,1,m,Fri Feb 07 2025 15:24:13 GMT-0600 (Central Standard Time),734705.6000000015,047_o_f_n_a.png,O,m,1549,12,1,2576.0,732129.6000000015,7040,NNB,A,10
10,test,4,0.0,2-Back,1,m,Fri Feb 07 2025 15:24:13 GMT-0600 (Central Standard Time),736621.6000000015,041_y_m_n_a.png,O,m,895,13,1,1909.1000000014901,734712.5,7040,NNB,A,11
11,test,4,1.0,2-Back,1,z,Fri Feb 07 2025 15:24:13 GMT-0600 (Central Standard Time),738254.6000000015,047_o_f_n_a.png,O,z,611,14,1,1626.2999999970198,736628.3000000045,7040,NNB,A,12
11,test,4,1.0,2-Back,0,z,Fri Feb 07 2025 15:24:13 GMT-0600 (Central Standard Time),740303.8000000045,041_y_m_n_a.png,O,m,1018,15,1,2042.3000000044703,738261.5,7040,NNB,A,13
12,test,4,0.0,2-Back,1,m,Fri Feb 07 2025 15:24:13 GMT-0600 (Central Standard Time),742303.3000000045,045_m_m_n_a.png,O,m,977,16,1,1993.0,740310.3000000045,7040,NNB,A,14
13,test,4,0.0,2-Back,1,m,Fri Feb 07 2025 15:24:13 GMT-0600 (Central Standard Time),743869.3000000045,050_m_f_n_a.png,O,m,545,17,1,1559.8000000044703,742309.5,7040,NNB,A,15
14,test,4,1.0,2-Back,1,z,Fri Feb 07 2025 15:24:13 GMT-0600 (Central Standard Time),745552.200000003,045_m_m_n_a.png,O,z,651,18,1,1676.2000000029802,743876.0,7040,NNB,A,16
0,test,5,1.0,2-Back,,,Fri Feb 07 2025 15:24:13 GMT-0600 (Central Standard Time),745552.200000003,041_y_m_n_a.png,O,space,1369,1,1,1676.2000000029802,743876.0,7040,NNB,A,0
0,test,5,1.0,2-Back,,,Fri Feb 07 2025 15:24:13 GMT-0600 (Central Standard Time),745552.200000003,050_m_f_n_a.png,O,space,1369,2,1,1676.2000000029802,743876.0,7040,NNB,A,0
1,test,5,1.0,2-Back,1,z,Fri Feb 07 2025 15:24:13 GMT-0600 (Central Standard Time),753649.8000000045,041_y_m_n_a.png,O,z,633,3,1,1660.4000000059605,751989.3999999985,7040,NNB,A,1
2,test,5,1.0,2-Back,1,z,Fri Feb 07 2025 15:24:13 GMT-0600 (Central Standard Time),755499.3000000045,050_m_f_n_a.png,O,z,831,4,1,1843.1000000014901,753656.200000003,7040,NNB,A,2
3,test,5,0.0,2-Back,1,m,Fri Feb 07 2025 15:24:13 GMT-0600 (Central Standard Time),757398.700000003,047_o_f_n_a.png,O,m,877,5,1,1892.8000000044703,755505.8999999985,7040,NNB,A,3
4,test,5,0.0,2-Back,1,m,Fri Feb 07 2025 15:24:13 GMT-0600 (Central Standard Time),759081.3000000045,041_y_m_n_a.png,O,m,650,6,1,1675.6000000014901,757405.700000003,7040,NNB,A,4
5,test,5,0.0,2-Back,1,m,Fri Feb 07 2025 15:24:13 GMT-0600 (Central Standard Time),760880.8000000045,010_y_f_n_a.png,O,m,767,7,1,1792.7000000029802,759088.1000000015,7040,NNB,A,5
5,test,5,0.0,2-Back,0,m,Fri Feb 07 2025 15:24:13 GMT-0600 (Central Standard Time),762513.700000003,047_o_f_n_a.png,O,z,608,8,1,1626.3000000044703,760887.3999999985,7040,NNB,A,6
6,test,5,1.0,2-Back,1,z,Fri Feb 07 2025 15:24:13 GMT-0600 (Central Standard Time),764563.3999999985,010_y_f_n_a.png,O,z,1023,9,1,2043.6999999955297,762519.700000003,7040,NNB,A,7
7,test,5,0.0,2-Back,1,m,Fri Feb 07 2025 15:24:13 GMT-0600 (Central Standard Time),766212.5,046_o_m_n_a.png,O,m,621,10,1,1642.7999999970198,764569.700000003,7040,NNB,A,8
8,test,5,0.0,2-Back,1,m,Fri Feb 07 2025 15:24:13 GMT-0600 (Central Standard Time),767878.6000000015,043_m_f_n_a.png,O,m,635,11,1,1659.8999999985099,766218.700000003,7040,NNB,A,9
9,test,5,0.0,2-Back,1,m,Fri Feb 07 2025 15:24:13 GMT-0600 (Central Standard Time),769611.3999999985,058_m_m_n_a.png,O,m,706,12,1,1726.3999999985099,767885.0,7040,NNB,A,10
10,test,5,0.0,2-Back,1,m,Fri Feb 07 2025 15:24:13 GMT-0600 (Central Standard Time),771761.1000000015,046_o_m_n_a.png,O,m,1118,13,1,2143.10000000149,769618.0,7040,NNB,A,11
11,test,5,1.0,2-Back,1,z,Fri Feb 07 2025 15:24:13 GMT-0600 (Central Standard Time),773626.8000000045,058_m_m_n_a.png,O,z,840,14,1,1859.4000000059605,771767.3999999985,7040,NNB,A,12
12,test,5,0.0,2-Back,1,m,Fri Feb 07 2025 15:24:13 GMT-0600 (Central Standard Time),775359.700000003,063_y_f_n_a.png,O,m,710,15,1,1726.6000000014901,773633.1000000015,7040,NNB,A,13
13,test,5,0.0,2-Back,1,m,Fri Feb 07 2025 15:24:13 GMT-0600 (Central Standard Time),777092.5,053_o_m_n_a.png,O,m,712,16,1,1726.5,775366.0,7040,NNB,A,14
14,test,5,0.0,2-Back,1,m,Fri Feb 07 2025 15:24:13 GMT-0600 (Central Standard Time),779075.1000000015,043_m_f_n_a.png,O,m,956,17,1,1976.7000000029802,777098.3999999985,7040,NNB,A,15
14,test,5,1.0,2-Back,0,z,Fri Feb 07 2025 15:24:13 GMT-0600 (Central Standard Time),781357.8000000045,053_o_m_n_a.png,O,m,1260,18,1,2276.0,779081.8000000045,7040,NNB,A,16
