acc_sum,block,block_c,change,condition,correct,correct_response,datetime,endtime,face,project,response,response_time,row_sel,session_number,start_end,starttime,subject_id,task,task_vers,trial
0,prac,1,,1-Back,,,Tue Oct 08 2024 09:55:07 GMT-0500 (Central Daylight Time),,005_o_f_d_a.png,O,space,20086,1,1,,,7020,VNB,B,0
1,prac,1,0.0,1-Back,1,m,Tue Oct 08 2024 09:55:07 GMT-0500 (Central Daylight Time),175445.0,020_y_f_n_a.png,O,m,603,2,1,1475.5,173969.5,7020,VNB,B,1
2,prac,1,0.0,1-Back,1,m,Tue Oct 08 2024 09:55:07 GMT-0500 (Central Daylight Time),177211.30000001192,007_m_m_h_a.png,O,m,877,3,1,1760.5,175450.80000001192,7020,VNB,B,2
3,prac,1,0.0,1-Back,1,m,Tue Oct 08 2024 09:55:07 GMT-0500 (Central Daylight Time),179077.19999998808,016_y_m_d_a.png,O,m,964,4,1,1860.300000011921,177216.89999997616,7020,VNB,B,3
4,prac,1,0.0,1-Back,1,m,Tue Oct 08 2024 09:55:07 GMT-0500 (Central Daylight Time),180993.39999997616,005_o_f_n_a.png,O,m,1027,5,1,1910.3999999761581,179083.0,7020,VNB,B,4
5,prac,1,1.0,1-Back,1,z,Tue Oct 08 2024 09:55:07 GMT-0500 (Central Daylight Time),182576.19999998808,016_y_m_n_a.png,O,z,677,6,1,1576.800000011921,180999.39999997616,7020,VNB,B,5
6,prac,1,0.0,1-Back,1,m,Tue Oct 08 2024 09:55:07 GMT-0500 (Central Daylight Time),184025.80000001192,004_o_m_h_a.png,O,m,576,7,1,1443.6000000238419,182582.19999998808,7020,VNB,B,6
7,prac,1,0.0,1-Back,1,m,Tue Oct 08 2024 09:55:07 GMT-0500 (Central Daylight Time),185541.69999998808,011_m_f_d_a.png,O,m,623,8,1,1509.699999988079,184032.0,7020,VNB,B,7
7,prac,1,1.0,1-Back,0,z,Tue Oct 08 2024 09:55:07 GMT-0500 (Central Daylight Time),187458.0,020_y_f_d_a.png,O,m,1047,9,1,1910.699999988079,185547.30000001192,7020,VNB,B,8
8,prac,1,0.0,1-Back,1,m,Tue Oct 08 2024 09:55:07 GMT-0500 (Central Daylight Time),189224.09999996424,007_m_m_n_a.png,O,m,875,10,1,1760.3999999761581,187463.69999998808,7020,VNB,B,9
8,prac,1,0.0,1-Back,0,m,Tue Oct 08 2024 09:55:07 GMT-0500 (Central Daylight Time),190706.89999997616,005_o_f_h_a.png,O,z,602,11,1,1477.5999999642372,189229.30000001192,7020,VNB,B,10
9,prac,1,0.0,1-Back,1,m,Tue Oct 08 2024 09:55:07 GMT-0500 (Central Daylight Time),192239.89999997616,016_y_m_d_a.png,O,m,628,12,1,1526.5,190713.39999997616,7020,VNB,B,11
0,test,1,0.0,1-Back,,,Tue Oct 08 2024 09:55:07 GMT-0500 (Central Daylight Time),192239.89999997616,020_y_f_d_a.png,O,space,13616,1,1,1526.5,190713.39999997616,7020,VNB,B,0
1,test,1,0.0,1-Back,1,m,Tue Oct 08 2024 09:55:07 GMT-0500 (Central Daylight Time),217214.80000001192,011_m_f_n_a.png,O,m,528,2,1,1545.300000011921,215669.5,7020,VNB,B,1
2,test,1,0.0,1-Back,1,m,Tue Oct 08 2024 09:55:07 GMT-0500 (Central Daylight Time),218964.30000001192,004_o_m_h_a.png,O,m,722,3,1,1745.800000011921,217218.5,7020,VNB,B,2
3,test,1,1.0,1-Back,1,z,Tue Oct 08 2024 09:55:07 GMT-0500 (Central Daylight Time),220480.5,007_m_m_h_a.png,O,z,485,4,1,1512.800000011921,218967.69999998808,7020,VNB,B,3
4,test,1,0.0,1-Back,1,m,Tue Oct 08 2024 09:55:07 GMT-0500 (Central Daylight Time),221946.80000001192,005_o_f_n_a.png,O,m,449,5,1,1462.6000000238419,220484.19999998808,7020,VNB,B,4
4,test,1,0.0,1-Back,0,m,Tue Oct 08 2024 09:55:07 GMT-0500 (Central Daylight Time),223962.69999998808,016_y_m_d_a.png,O,z,881,6,1,2012.300000011921,221950.39999997616,7020,VNB,B,5
5,test,1,1.0,1-Back,1,z,Tue Oct 08 2024 09:55:07 GMT-0500 (Central Daylight Time),225678.80000001192,011_m_f_d_a.png,O,z,687,7,1,1712.4000000357628,223966.39999997616,7020,VNB,B,6
6,test,1,0.0,1-Back,1,m,Tue Oct 08 2024 09:55:07 GMT-0500 (Central Daylight Time),227161.89999997616,020_y_f_h_a.png,O,m,450,8,1,1479.300000011921,225682.59999996424,7020,VNB,B,7
6,test,1,0.0,1-Back,0,m,Tue Oct 08 2024 09:55:07 GMT-0500 (Central Daylight Time),228794.69999998808,004_o_m_n_a.png,O,z,607,9,1,1628.300000011921,227166.39999997616,7020,VNB,B,8
7,test,1,0.0,1-Back,1,m,Tue Oct 08 2024 09:55:07 GMT-0500 (Central Daylight Time),230877.30000001192,016_y_m_h_a.png,O,m,979,10,1,2078.300000011921,228799.0,7020,VNB,B,9
8,test,1,0.0,1-Back,1,m,Tue Oct 08 2024 09:55:07 GMT-0500 (Central Daylight Time),232460.30000001192,004_o_m_d_a.png,O,m,524,11,1,1579.0,230881.30000001192,7020,VNB,B,10
9,test,1,1.0,1-Back,1,z,Tue Oct 08 2024 09:55:07 GMT-0500 (Central Daylight Time),234076.39999997616,005_o_f_d_a.png,O,z,540,12,1,1611.0999999642372,232465.30000001192,7020,VNB,B,11
10,test,1,0.0,1-Back,1,m,Tue Oct 08 2024 09:55:07 GMT-0500 (Central Daylight Time),235892.39999997616,007_m_m_n_a.png,O,m,739,13,1,1812.0,234080.39999997616,7020,VNB,B,12
11,test,1,1.0,1-Back,1,z,Tue Oct 08 2024 09:55:07 GMT-0500 (Central Daylight Time),237658.5,020_y_f_n_a.png,O,z,699,14,1,1762.5,235896.0,7020,VNB,B,13
12,test,1,0.0,1-Back,1,m,Tue Oct 08 2024 09:55:07 GMT-0500 (Central Daylight Time),239324.59999996424,011_m_f_h_a.png,O,m,614,15,1,1662.3999999761581,237662.19999998808,7020,VNB,B,14
13,test,1,0.0,1-Back,1,m,Tue Oct 08 2024 09:55:07 GMT-0500 (Central Daylight Time),241090.80000001192,007_m_m_d_a.png,O,m,699,16,1,1762.4000000357628,239328.39999997616,7020,VNB,B,15
13,test,1,0.0,1-Back,0,m,Tue Oct 08 2024 09:55:07 GMT-0500 (Central Daylight Time),242706.89999997616,016_y_m_n_a.png,O,z,565,17,1,1612.300000011921,241094.59999996424,7020,VNB,B,16
14,test,1,0.0,1-Back,1,m,Tue Oct 08 2024 09:55:07 GMT-0500 (Central Daylight Time),244356.39999997616,005_o_f_h_a.png,O,m,589,18,1,1645.5999999642372,242710.80000001192,7020,VNB,B,17
0,test,2,0.0,1-Back,,,Tue Oct 08 2024 09:55:07 GMT-0500 (Central Daylight Time),244356.39999997616,016_y_m_n_a.png,O,space,3797,1,1,1645.5999999642372,242710.80000001192,7020,VNB,B,0
1,test,2,0.0,1-Back,1,m,Tue Oct 08 2024 09:55:07 GMT-0500 (Central Daylight Time),251754.09999996424,020_y_f_h_a.png,O,m,558,2,1,1578.8999999761581,250175.19999998808,7020,VNB,B,1
2,test,2,1.0,1-Back,1,m,Tue Oct 08 2024 09:55:07 GMT-0500 (Central Daylight Time),253337.09999996424,004_o_m_n_a.png,O,m,551,3,1,1579.5,251757.59999996424,7020,VNB,B,2
2,test,2,0.0,1-Back,0,m,Tue Oct 08 2024 09:55:07 GMT-0500 (Central Daylight Time),255353.59999996424,011_m_f_d_a.png,O,z,985,4,1,2011.8999999761581,253341.69999998808,7020,VNB,B,3
3,test,2,0.0,1-Back,1,z,Tue Oct 08 2024 09:55:07 GMT-0500 (Central Daylight Time),256952.80000001192,007_m_m_d_a.png,O,z,577,5,1,1594.6000000238419,255358.19999998808,7020,VNB,B,4
4,test,2,0.0,1-Back,1,m,Tue Oct 08 2024 09:55:07 GMT-0500 (Central Daylight Time),258402.39999997616,016_y_m_h_a.png,O,m,426,6,1,1445.5999999642372,256956.80000001192,7020,VNB,B,5
5,test,2,1.0,1-Back,1,z,Tue Oct 08 2024 09:55:07 GMT-0500 (Central Daylight Time),260002.0,005_o_f_h_a.png,O,z,543,7,1,1595.4000000357628,258406.59999996424,7020,VNB,B,6
6,test,2,0.0,1-Back,1,m,Tue Oct 08 2024 09:55:07 GMT-0500 (Central Daylight Time),261468.0,011_m_f_n_a.png,O,m,407,8,1,1461.800000011921,260006.19999998808,7020,VNB,B,7
7,test,2,0.0,1-Back,1,m,Tue Oct 08 2024 09:55:07 GMT-0500 (Central Daylight Time),263551.09999996424,020_y_f_d_a.png,O,m,1021,9,1,2079.2999999523163,261471.80000001192,7020,VNB,B,8
7,test,2,0.0,1-Back,0,m,Tue Oct 08 2024 09:55:07 GMT-0500 (Central Daylight Time),265200.0,007_m_m_n_a.png,O,z,585,10,1,1644.800000011921,263555.1999999881,7020,VNB,B,9
8,test,2,1.0,1-Back,1,m,Tue Oct 08 2024 09:55:07 GMT-0500 (Central Daylight Time),266883.0,011_m_f_h_a.png,O,m,617,11,1,1679.199999988079,265203.8000000119,7020,VNB,B,10
9,test,2,0.0,1-Back,1,z,Tue Oct 08 2024 09:55:07 GMT-0500 (Central Daylight Time),268382.59999996424,004_o_m_h_a.png,O,z,446,12,1,1495.699999988079,266886.89999997616,7020,VNB,B,11
10,test,2,0.0,1-Back,1,m,Tue Oct 08 2024 09:55:07 GMT-0500 (Central Daylight Time),270030.1999999881,016_y_m_d_a.png,O,m,450,13,1,1643.8999999761581,268386.3000000119,7020,VNB,B,12
10,test,2,0.0,1-Back,0,m,Tue Oct 08 2024 09:55:07 GMT-0500 (Central Daylight Time),271681.6999999881,005_o_f_n_a.png,O,z,593,14,1,1647.3999999761581,270034.3000000119,7020,VNB,B,13
11,test,2,0.0,1-Back,1,z,Tue Oct 08 2024 09:55:07 GMT-0500 (Central Daylight Time),273414.3000000119,020_y_f_n_a.png,O,z,672,15,1,1728.300000011921,271686.0,7020,VNB,B,14
12,test,2,1.0,1-Back,1,m,Tue Oct 08 2024 09:55:07 GMT-0500 (Central Daylight Time),275013.8000000119,007_m_m_h_a.png,O,m,530,16,1,1595.2000000476837,273418.59999996424,7020,VNB,B,15
12,test,2,0.0,1-Back,0,m,Tue Oct 08 2024 09:55:07 GMT-0500 (Central Daylight Time),276963.0,005_o_f_d_a.png,O,z,883,17,1,1945.800000011921,275017.1999999881,7020,VNB,B,16
13,test,2,1.0,1-Back,1,z,Tue Oct 08 2024 09:55:07 GMT-0500 (Central Daylight Time),278712.59999996424,004_o_m_d_a.png,O,z,694,18,1,1746.0,276966.59999996424,7020,VNB,B,17
0,test,3,1.0,1-Back,,,Tue Oct 08 2024 09:55:07 GMT-0500 (Central Daylight Time),278712.59999996424,005_o_f_h_a.png,O,space,2442,1,1,1746.0,276966.59999996424,7020,VNB,B,0
1,test,3,0.0,1-Back,1,m,Tue Oct 08 2024 09:55:07 GMT-0500 (Central Daylight Time),284894.0,011_m_f_d_a.png,O,m,563,2,1,1611.9000000357628,283282.09999996424,7020,VNB,B,1
2,test,3,1.0,1-Back,1,m,Tue Oct 08 2024 09:55:07 GMT-0500 (Central Daylight Time),286760.09999996424,007_m_m_n_a.png,O,m,803,3,1,1862.0,284898.09999996424,7020,VNB,B,2
3,test,3,0.0,1-Back,1,z,Tue Oct 08 2024 09:55:07 GMT-0500 (Central Daylight Time),288309.6999999881,005_o_f_n_a.png,O,z,497,4,1,1545.8999999761581,286763.8000000119,7020,VNB,B,3
4,test,3,1.0,1-Back,1,m,Tue Oct 08 2024 09:55:07 GMT-0500 (Central Daylight Time),289892.1999999881,004_o_m_d_a.png,O,m,515,5,1,1578.6000000238419,288313.59999996424,7020,VNB,B,4
5,test,3,0.0,1-Back,1,m,Tue Oct 08 2024 09:55:07 GMT-0500 (Central Daylight Time),291541.6999999881,020_y_f_h_a.png,O,m,579,6,1,1645.699999988079,289896.0,7020,VNB,B,5
6,test,3,0.0,1-Back,1,z,Tue Oct 08 2024 09:55:07 GMT-0500 (Central Daylight Time),293024.6999999881,016_y_m_h_a.png,O,z,427,7,1,1479.300000011921,291545.39999997616,7020,VNB,B,6
7,test,3,0.0,1-Back,1,m,Tue Oct 08 2024 09:55:07 GMT-0500 (Central Daylight Time),294590.8000000119,011_m_f_n_a.png,O,m,511,8,1,1562.4000000357628,293028.39999997616,7020,VNB,B,7
8,test,3,0.0,1-Back,1,m,Tue Oct 08 2024 09:55:07 GMT-0500 (Central Daylight Time),296740.3000000119,020_y_f_d_a.png,O,m,1098,9,1,2145.600000023842,294594.6999999881,7020,VNB,B,8
9,test,3,1.0,1-Back,1,m,Tue Oct 08 2024 09:55:07 GMT-0500 (Central Daylight Time),298506.39999997616,004_o_m_n_a.png,O,m,709,10,1,1762.0999999642372,296744.3000000119,7020,VNB,B,9
10,test,3,0.0,1-Back,1,m,Tue Oct 08 2024 09:55:07 GMT-0500 (Central Daylight Time),300439.3000000119,007_m_m_h_a.png,O,m,878,11,1,1928.2000000476837,298511.09999996424,7020,VNB,B,10
11,test,3,0.0,1-Back,1,z,Tue Oct 08 2024 09:55:07 GMT-0500 (Central Daylight Time),301955.3000000119,011_m_f_h_a.png,O,z,466,12,1,1511.9000000357628,300443.39999997616,7020,VNB,B,11
12,test,3,1.0,1-Back,1,m,Tue Oct 08 2024 09:55:07 GMT-0500 (Central Daylight Time),303588.1999999881,005_o_f_d_a.png,O,m,572,13,1,1629.1000000238419,301959.09999996424,7020,VNB,B,12
12,test,3,0.0,1-Back,0,z,Tue Oct 08 2024 09:55:07 GMT-0500 (Central Daylight Time),305137.59999996424,007_m_m_d_a.png,O,m,484,14,1,1545.5999999642372,303592.0,7020,VNB,B,13
12,test,3,0.0,1-Back,0,m,Tue Oct 08 2024 09:55:07 GMT-0500 (Central Daylight Time),306970.6999999881,016_y_m_n_a.png,O,z,767,15,1,1829.0,305141.6999999881,7020,VNB,B,14
13,test,3,1.0,1-Back,1,m,Tue Oct 08 2024 09:55:07 GMT-0500 (Central Daylight Time),308803.1999999881,004_o_m_h_a.png,O,m,782,16,1,1828.699999988079,306974.5,7020,VNB,B,15
14,test,3,0.0,1-Back,1,m,Tue Oct 08 2024 09:55:07 GMT-0500 (Central Daylight Time),310935.8000000119,016_y_m_d_a.png,O,m,1069,17,1,2129.0,308806.8000000119,7020,VNB,B,16
15,test,3,1.0,1-Back,1,m,Tue Oct 08 2024 09:55:07 GMT-0500 (Central Daylight Time),312785.3000000119,020_y_f_n_a.png,O,m,793,18,1,1845.6000000238419,310939.6999999881,7020,VNB,B,17
0,test,4,1.0,1-Back,,,Tue Oct 08 2024 09:55:07 GMT-0500 (Central Daylight Time),312785.3000000119,007_m_m_d_a.png,O,space,1729,1,1,1845.6000000238419,310939.6999999881,7020,VNB,B,0
1,test,4,0.0,1-Back,1,z,Tue Oct 08 2024 09:55:07 GMT-0500 (Central Daylight Time),318150.1999999881,004_o_m_d_a.png,O,z,596,2,1,1612.0,316538.1999999881,7020,VNB,B,1
2,test,4,0.0,1-Back,1,m,Tue Oct 08 2024 09:55:07 GMT-0500 (Central Daylight Time),319783.0,016_y_m_h_a.png,O,m,604,3,1,1629.699999988079,318153.3000000119,7020,VNB,B,2
3,test,4,0.0,1-Back,1,m,Tue Oct 08 2024 09:55:07 GMT-0500 (Central Daylight Time),321499.3000000119,011_m_f_n_a.png,O,m,683,4,1,1712.2000000476837,319787.09999996424,7020,VNB,B,3
4,test,4,1.0,1-Back,1,m,Tue Oct 08 2024 09:55:07 GMT-0500 (Central Daylight Time),323215.39999997616,005_o_f_h_a.png,O,m,687,5,1,1712.3999999761581,321503.0,7020,VNB,B,4
5,test,4,0.0,1-Back,1,m,Tue Oct 08 2024 09:55:07 GMT-0500 (Central Daylight Time),324831.5,007_m_m_n_a.png,O,m,595,6,1,1611.9000000357628,323219.59999996424,7020,VNB,B,5
6,test,4,0.0,1-Back,1,m,Tue Oct 08 2024 09:55:07 GMT-0500 (Central Daylight Time),326814.09999996424,016_y_m_d_a.png,O,m,963,7,1,1979.3999999761581,324834.6999999881,7020,VNB,B,6
7,test,4,1.0,1-Back,1,z,Tue Oct 08 2024 09:55:07 GMT-0500 (Central Daylight Time),328297.09999996424,020_y_f_d_a.png,O,z,452,8,1,1479.199999988079,326817.89999997616,7020,VNB,B,7
8,test,4,0.0,1-Back,1,m,Tue Oct 08 2024 09:55:07 GMT-0500 (Central Daylight Time),329813.3000000119,011_m_f_h_a.png,O,m,497,9,1,1512.300000011921,328301.0,7020,VNB,B,8
9,test,4,0.0,1-Back,1,z,Tue Oct 08 2024 09:55:07 GMT-0500 (Central Daylight Time),331296.0,004_o_m_h_a.png,O,z,461,10,1,1478.300000011921,329817.6999999881,7020,VNB,B,9
10,test,4,1.0,1-Back,1,m,Tue Oct 08 2024 09:55:07 GMT-0500 (Central Daylight Time),332812.3000000119,005_o_f_n_a.png,O,m,490,11,1,1510.9000000357628,331301.39999997616,7020,VNB,B,10
10,test,4,0.0,1-Back,0,m,Tue Oct 08 2024 09:55:07 GMT-0500 (Central Daylight Time),335045.0,011_m_f_d_a.png,O,z,1206,12,1,2228.600000023842,332816.39999997616,7020,VNB,B,11
11,test,4,0.0,1-Back,1,m,Tue Oct 08 2024 09:55:07 GMT-0500 (Central Daylight Time),337094.3000000119,020_y_f_n_a.png,O,m,1029,13,1,2045.5,335048.8000000119,7020,VNB,B,12
12,test,4,0.0,1-Back,1,m,Tue Oct 08 2024 09:55:07 GMT-0500 (Central Daylight Time),339293.8000000119,005_o_f_d_a.png,O,m,1180,14,1,2195.100000023842,337098.6999999881,7020,VNB,B,13
13,test,4,0.0,1-Back,1,m,Tue Oct 08 2024 09:55:07 GMT-0500 (Central Daylight Time),341076.39999997616,020_y_f_h_a.png,O,m,765,15,1,1778.3999999761581,339298.0,7020,VNB,B,14
14,test,4,1.0,1-Back,1,z,Tue Oct 08 2024 09:55:07 GMT-0500 (Central Daylight Time),342559.3000000119,007_m_m_h_a.png,O,z,454,16,1,1479.4000000357628,341079.89999997616,7020,VNB,B,15
15,test,4,0.0,1-Back,1,m,Tue Oct 08 2024 09:55:07 GMT-0500 (Central Daylight Time),344208.59999996424,004_o_m_n_a.png,O,m,627,17,1,1645.5,342563.09999996424,7020,VNB,B,16
16,test,4,1.0,1-Back,1,z,Tue Oct 08 2024 09:55:07 GMT-0500 (Central Daylight Time),345724.8000000119,016_y_m_n_a.png,O,z,496,18,1,1512.2000000476837,344212.59999996424,7020,VNB,B,17
0,test,5,1.0,1-Back,,,Tue Oct 08 2024 09:55:07 GMT-0500 (Central Daylight Time),345724.8000000119,004_o_m_n_a.png,O,space,2605,1,1,1512.2000000476837,344212.59999996424,7020,VNB,B,0
1,test,5,1.0,1-Back,1,m,Tue Oct 08 2024 09:55:07 GMT-0500 (Central Daylight Time),351922.89999997616,005_o_f_h_a.png,O,m,549,2,1,1561.8999999761581,350361.0,7020,VNB,B,1
2,test,5,0.0,1-Back,1,m,Tue Oct 08 2024 09:55:07 GMT-0500 (Central Daylight Time),353572.5,016_y_m_d_a.png,O,m,623,3,1,1645.4000000357628,351927.09999996424,7020,VNB,B,2
3,test,5,0.0,1-Back,1,z,Tue Oct 08 2024 09:55:07 GMT-0500 (Central Daylight Time),355105.5,004_o_m_d_a.png,O,z,501,4,1,1529.199999988079,353576.3000000119,7020,VNB,B,3
4,test,5,0.0,1-Back,1,m,Tue Oct 08 2024 09:55:07 GMT-0500 (Central Daylight Time),356688.1999999881,011_m_f_h_a.png,O,m,553,5,1,1578.5,355109.6999999881,7020,VNB,B,4
5,test,5,0.0,1-Back,1,m,Tue Oct 08 2024 09:55:07 GMT-0500 (Central Daylight Time),358537.59999996424,020_y_f_n_a.png,O,m,818,6,1,1845.5999999642372,356692.0,7020,VNB,B,5
6,test,5,1.0,1-Back,1,z,Tue Oct 08 2024 09:55:07 GMT-0500 (Central Daylight Time),360120.5,005_o_f_n_a.png,O,z,553,7,1,1579.699999988079,358540.8000000119,7020,VNB,B,6
7,test,5,0.0,1-Back,1,m,Tue Oct 08 2024 09:55:07 GMT-0500 (Central Daylight Time),361903.3000000119,011_m_f_d_a.png,O,m,762,8,1,1779.0,360124.3000000119,7020,VNB,B,7
8,test,5,0.0,1-Back,1,m,Tue Oct 08 2024 09:55:07 GMT-0500 (Central Daylight Time),363569.39999997616,016_y_m_h_a.png,O,m,635,9,1,1662.199999988079,361907.1999999881,7020,VNB,B,8
9,test,5,0.0,1-Back,1,m,Tue Oct 08 2024 09:55:07 GMT-0500 (Central Daylight Time),365235.39999997616,020_y_f_d_a.png,O,m,649,10,1,1662.0,363573.39999997616,7020,VNB,B,9
9,test,5,0.0,1-Back,0,m,Tue Oct 08 2024 09:55:07 GMT-0500 (Central Daylight Time),366801.59999996424,007_m_m_n_a.png,O,z,535,11,1,1562.2999999523163,365239.3000000119,7020,VNB,B,10
10,test,5,1.0,1-Back,1,z,Tue Oct 08 2024 09:55:07 GMT-0500 (Central Daylight Time),368668.6999999881,011_m_f_n_a.png,O,z,849,12,1,1863.0,366805.6999999881,7020,VNB,B,11
11,test,5,0.0,1-Back,1,m,Tue Oct 08 2024 09:55:07 GMT-0500 (Central Daylight Time),370200.5,004_o_m_h_a.png,O,m,503,13,1,1528.1000000238419,368672.39999997616,7020,VNB,B,12
12,test,5,0.0,1-Back,1,z,Tue Oct 08 2024 09:55:07 GMT-0500 (Central Daylight Time),371733.5,007_m_m_h_a.png,O,z,505,14,1,1529.1000000238419,370204.39999997616,7020,VNB,B,13
13,test,5,1.0,1-Back,1,m,Tue Oct 08 2024 09:55:07 GMT-0500 (Central Daylight Time),373282.6999999881,005_o_f_d_a.png,O,m,517,15,1,1545.300000011921,371737.39999997616,7020,VNB,B,14
14,test,5,0.0,1-Back,1,m,Tue Oct 08 2024 09:55:07 GMT-0500 (Central Daylight Time),375099.09999996424,016_y_m_n_a.png,O,m,791,16,1,1812.7999999523163,373286.3000000119,7020,VNB,B,15
15,test,5,0.0,1-Back,1,m,Tue Oct 08 2024 09:55:07 GMT-0500 (Central Daylight Time),376782.0,020_y_f_h_a.png,O,m,654,17,1,1679.1000000238419,375102.89999997616,7020,VNB,B,16
16,test,5,0.0,1-Back,1,m,Tue Oct 08 2024 09:55:07 GMT-0500 (Central Daylight Time),378464.8000000119,007_m_m_d_a.png,O,m,659,18,1,1679.0,376785.8000000119,7020,VNB,B,17
0,prac,1,0.0,2-Back,,,Tue Oct 08 2024 09:55:07 GMT-0500 (Central Daylight Time),378464.8000000119,011_m_f_n_a.png,O,space,14885,1,1,1679.0,376785.8000000119,7020,VNB,B,0
0,prac,1,0.0,2-Back,,,Tue Oct 08 2024 09:55:07 GMT-0500 (Central Daylight Time),378464.8000000119,005_o_f_h_a.png,O,space,14885,2,1,1679.0,376785.8000000119,7020,VNB,B,0
1,prac,1,0.0,2-Back,1,m,Tue Oct 08 2024 09:55:07 GMT-0500 (Central Daylight Time),505470.09999996424,004_o_m_d_a.png,O,m,1163,3,1,2147.699999988079,503322.39999997616,7020,VNB,B,1
2,prac,1,1.0,2-Back,1,z,Tue Oct 08 2024 09:55:07 GMT-0500 (Central Daylight Time),506958.0,007_m_m_h_a.png,O,z,514,4,1,1422.4000000357628,505535.59999996424,7020,VNB,B,2
3,prac,1,0.0,2-Back,1,m,Tue Oct 08 2024 09:55:07 GMT-0500 (Central Daylight Time),508774.0,020_y_f_n_a.png,O,m,938,5,1,1810.5,506963.5,7020,VNB,B,3
4,prac,1,1.0,2-Back,1,z,Tue Oct 08 2024 09:55:07 GMT-0500 (Central Daylight Time),510306.59999996424,004_o_m_h_a.png,O,z,671,6,1,1527.2999999523163,508779.3000000119,7020,VNB,B,4
4,prac,1,1.0,2-Back,0,z,Tue Oct 08 2024 09:55:07 GMT-0500 (Central Daylight Time),512122.89999997616,016_y_m_n_a.png,O,m,901,7,1,1810.199999988079,510312.6999999881,7020,VNB,B,5
5,prac,1,0.0,2-Back,1,m,Tue Oct 08 2024 09:55:07 GMT-0500 (Central Daylight Time),514222.1999999881,011_m_f_d_a.png,O,m,1214,8,1,2093.699999988079,512128.5,7020,VNB,B,6
5,prac,1,0.0,2-Back,0,m,Tue Oct 08 2024 09:55:07 GMT-0500 (Central Daylight Time),515821.8000000119,005_o_f_d_a.png,O,z,706,9,1,1594.2000000476837,514227.59999996424,7020,VNB,B,7
5,prac,1,0.0,2-Back,0,m,Tue Oct 08 2024 09:55:07 GMT-0500 (Central Daylight Time),517404.59999996424,007_m_m_h_a.png,O,z,800,10,1,1577.5999999642372,515827.0,7020,VNB,B,8
6,prac,1,1.0,2-Back,1,z,Tue Oct 08 2024 09:55:07 GMT-0500 (Central Daylight Time),519153.8000000119,020_y_f_d_a.png,O,z,872,11,1,1743.800000011921,517410.0,7020,VNB,B,9
7,prac,1,0.0,2-Back,1,m,Tue Oct 08 2024 09:55:07 GMT-0500 (Central Daylight Time),520753.59999996424,004_o_m_n_a.png,O,m,728,12,1,1594.5,519159.09999996424,7020,VNB,B,10
0,test,1,0.0,2-Back,,,Tue Oct 08 2024 09:55:07 GMT-0500 (Central Daylight Time),520753.59999996424,016_y_m_h_a.png,O,space,10809,1,1,1594.5,519159.09999996424,7020,VNB,B,0
0,test,1,0.0,2-Back,,,Tue Oct 08 2024 09:55:07 GMT-0500 (Central Daylight Time),520753.59999996424,005_o_f_n_a.png,O,space,10809,2,1,1594.5,519159.09999996424,7020,VNB,B,0
1,test,1,0.0,2-Back,1,z,Tue Oct 08 2024 09:55:07 GMT-0500 (Central Daylight Time),548278.0999999642,004_o_m_h_a.png,O,z,538,3,1,1562.2999999523163,546715.8000000119,7020,VNB,B,1
2,test,1,0.0,2-Back,1,m,Tue Oct 08 2024 09:55:07 GMT-0500 (Central Daylight Time),550094.3000000119,011_m_f_d_a.png,O,m,788,4,1,1811.800000011921,548282.5,7020,VNB,B,2
3,test,1,1.0,2-Back,1,m,Tue Oct 08 2024 09:55:07 GMT-0500 (Central Daylight Time),551726.8999999762,016_y_m_n_a.png,O,m,612,5,1,1629.0999999642372,550097.8000000119,7020,VNB,B,3
4,test,1,0.0,2-Back,1,z,Tue Oct 08 2024 09:55:07 GMT-0500 (Central Daylight Time),553709.6999999881,020_y_f_d_a.png,O,z,955,6,1,1979.199999988079,551730.5,7020,VNB,B,4
4,test,1,0.0,2-Back,0,m,Tue Oct 08 2024 09:55:07 GMT-0500 (Central Daylight Time),555459.1999999881,007_m_m_h_a.png,O,z,732,7,1,1746.300000011921,553712.8999999762,7020,VNB,B,5
4,test,1,1.0,2-Back,0,m,Tue Oct 08 2024 09:55:07 GMT-0500 (Central Daylight Time),557325.1999999881,020_y_f_n_a.png,O,z,839,8,1,1862.6000000238419,555462.5999999642,7020,VNB,B,6
5,test,1,0.0,2-Back,1,z,Tue Oct 08 2024 09:55:07 GMT-0500 (Central Daylight Time),559292.3999999762,005_o_f_h_a.png,O,z,949,9,1,1963.5,557328.8999999762,7020,VNB,B,7
6,test,1,0.0,2-Back,1,m,Tue Oct 08 2024 09:55:07 GMT-0500 (Central Daylight Time),560873.8999999762,004_o_m_d_a.png,O,m,559,10,1,1577.699999988079,559296.1999999881,7020,VNB,B,8
7,test,1,1.0,2-Back,1,m,Tue Oct 08 2024 09:55:07 GMT-0500 (Central Daylight Time),562458.1999999881,007_m_m_d_a.png,O,m,561,11,1,1580.800000011921,560877.3999999762,7020,VNB,B,9
7,test,1,0.0,2-Back,0,m,Tue Oct 08 2024 09:55:07 GMT-0500 (Central Daylight Time),564639.8000000119,011_m_f_n_a.png,O,z,1161,12,1,2177.900000035763,562461.8999999762,7020,VNB,B,10
7,test,1,0.0,2-Back,0,m,Tue Oct 08 2024 09:55:07 GMT-0500 (Central Daylight Time),566439.0999999642,020_y_f_h_a.png,O,z,779,13,1,1796.199999988079,564642.8999999762,7020,VNB,B,11
8,test,1,0.0,2-Back,1,z,Tue Oct 08 2024 09:55:07 GMT-0500 (Central Daylight Time),568238.5,007_m_m_n_a.png,O,z,771,14,1,1795.300000011921,566443.1999999881,7020,VNB,B,12
9,test,1,0.0,2-Back,1,m,Tue Oct 08 2024 09:55:07 GMT-0500 (Central Daylight Time),570521.1999999881,016_y_m_d_a.png,O,m,1252,15,1,2279.5,568241.6999999881,7020,VNB,B,13
9,test,1,1.0,2-Back,0,m,Tue Oct 08 2024 09:55:07 GMT-0500 (Central Daylight Time),572037.3000000119,011_m_f_h_a.png,O,z,489,16,1,1512.4000000357628,570524.8999999762,7020,VNB,B,14
10,test,1,0.0,2-Back,1,z,Tue Oct 08 2024 09:55:07 GMT-0500 (Central Daylight Time),574553.1999999881,005_o_f_d_a.png,O,z,1493,17,1,2512.100000023842,572041.0999999642,7020,VNB,B,15
11,test,1,0.0,2-Back,1,m,Tue Oct 08 2024 09:55:07 GMT-0500 (Central Daylight Time),576535.8999999762,004_o_m_n_a.png,O,m,953,18,1,1978.5,574557.3999999762,7020,VNB,B,16
0,test,2,0.0,2-Back,,,Tue Oct 08 2024 09:55:07 GMT-0500 (Central Daylight Time),576535.8999999762,007_m_m_h_a.png,O,space,4570,1,1,1978.5,574557.3999999762,7020,VNB,B,0
0,test,2,0.0,2-Back,,,Tue Oct 08 2024 09:55:07 GMT-0500 (Central Daylight Time),576535.8999999762,020_y_f_n_a.png,O,space,4570,2,1,1978.5,574557.3999999762,7020,VNB,B,0
0,test,2,1.0,2-Back,0,z,Tue Oct 08 2024 09:55:07 GMT-0500 (Central Daylight Time),587899.0,005_o_f_h_a.png,O,m,516,3,1,1529.0,586370.0,7020,VNB,B,1
1,test,2,0.0,2-Back,1,m,Tue Oct 08 2024 09:55:07 GMT-0500 (Central Daylight Time),589765.0999999642,004_o_m_d_a.png,O,m,806,4,1,1862.7999999523163,587902.3000000119,7020,VNB,B,2
2,test,2,0.0,2-Back,1,m,Tue Oct 08 2024 09:55:07 GMT-0500 (Central Daylight Time),591831.3000000119,011_m_f_d_a.png,O,m,1012,5,1,2062.5,589768.8000000119,7020,VNB,B,3
2,test,2,0.0,2-Back,0,m,Tue Oct 08 2024 09:55:07 GMT-0500 (Central Daylight Time),593563.8000000119,016_y_m_h_a.png,O,z,682,6,1,1728.6000000238419,591835.1999999881,7020,VNB,B,4
3,test,2,0.0,2-Back,1,m,Tue Oct 08 2024 09:55:07 GMT-0500 (Central Daylight Time),595613.3000000119,005_o_f_n_a.png,O,m,997,7,1,2046.0,593567.3000000119,7020,VNB,B,5
4,test,2,1.0,2-Back,1,z,Tue Oct 08 2024 09:55:07 GMT-0500 (Central Daylight Time),597329.6999999881,004_o_m_h_a.png,O,z,660,8,1,1712.8999999761581,595616.8000000119,7020,VNB,B,6
4,test,2,0.0,2-Back,0,m,Tue Oct 08 2024 09:55:07 GMT-0500 (Central Daylight Time),599145.6999999881,020_y_f_d_a.png,O,z,760,9,1,1811.699999988079,597334.0,7020,VNB,B,7
4,test,2,0.0,2-Back,0,m,Tue Oct 08 2024 09:55:07 GMT-0500 (Central Daylight Time),602211.3000000119,016_y_m_d_a.png,O,None,2016,10,1,3061.900000035763,599149.3999999762,7020,VNB,B,8
5,test,2,0.0,2-Back,1,m,Tue Oct 08 2024 09:55:07 GMT-0500 (Central Daylight Time),604160.8999999762,007_m_m_n_a.png,O,m,894,11,1,1946.0,602214.8999999762,7020,VNB,B,9
6,test,2,0.0,2-Back,1,m,Tue Oct 08 2024 09:55:07 GMT-0500 (Central Daylight Time),605860.0999999642,011_m_f_h_a.png,O,m,648,12,1,1695.7999999523163,604164.3000000119,7020,VNB,B,10
6,test,2,1.0,2-Back,0,z,Tue Oct 08 2024 09:55:07 GMT-0500 (Central Daylight Time),607526.3000000119,004_o_m_n_a.png,O,m,613,13,1,1662.5,605863.8000000119,7020,VNB,B,11
6,test,2,0.0,2-Back,0,m,Tue Oct 08 2024 09:55:07 GMT-0500 (Central Daylight Time),609325.5999999642,005_o_f_d_a.png,O,z,739,14,1,1795.3999999761581,607530.1999999881,7020,VNB,B,12
6,test,2,0.0,2-Back,0,m,Tue Oct 08 2024 09:55:07 GMT-0500 (Central Daylight Time),610991.8999999762,020_y_f_h_a.png,O,z,603,15,1,1662.300000011921,609329.5999999642,7020,VNB,B,13
7,test,2,0.0,2-Back,1,z,Tue Oct 08 2024 09:55:07 GMT-0500 (Central Daylight Time),612841.0999999642,007_m_m_d_a.png,O,z,826,16,1,1846.0999999642372,610995.0,7020,VNB,B,14
7,test,2,0.0,2-Back,0,m,Tue Oct 08 2024 09:55:07 GMT-0500 (Central Daylight Time),614557.3999999762,016_y_m_n_a.png,O,z,656,17,1,1712.5,612844.8999999762,7020,VNB,B,15
7,test,2,1.0,2-Back,0,m,Tue Oct 08 2024 09:55:07 GMT-0500 (Central Daylight Time),616473.3999999762,011_m_f_n_a.png,O,z,893,18,1,1913.0,614560.3999999762,7020,VNB,B,16
0,test,3,1.0,2-Back,,,Tue Oct 08 2024 09:55:07 GMT-0500 (Central Daylight Time),616473.3999999762,004_o_m_n_a.png,O,space,3161,1,1,1913.0,614560.3999999762,7020,VNB,B,0
0,test,3,1.0,2-Back,,,Tue Oct 08 2024 09:55:07 GMT-0500 (Central Daylight Time),616473.3999999762,005_o_f_d_a.png,O,space,3161,2,1,1913.0,614560.3999999762,7020,VNB,B,0
1,test,3,0.0,2-Back,1,m,Tue Oct 08 2024 09:55:07 GMT-0500 (Central Daylight Time),627036.8999999762,020_y_f_h_a.png,O,m,1106,3,1,2162.099999964237,624874.8000000119,7020,VNB,B,1
2,test,3,0.0,2-Back,1,z,Tue Oct 08 2024 09:55:07 GMT-0500 (Central Daylight Time),629002.8000000119,011_m_f_d_a.png,O,z,900,4,1,1962.300000011921,627040.5,7020,VNB,B,2
3,test,3,1.0,2-Back,1,m,Tue Oct 08 2024 09:55:07 GMT-0500 (Central Daylight Time),630885.5,016_y_m_n_a.png,O,m,864,5,1,1879.1000000238419,629006.3999999762,7020,VNB,B,3
3,test,3,0.0,2-Back,0,m,Tue Oct 08 2024 09:55:07 GMT-0500 (Central Daylight Time),632736.1999999881,004_o_m_h_a.png,O,z,788,6,1,1847.0,630889.1999999881,7020,VNB,B,4
3,test,3,0.0,2-Back,0,z,Tue Oct 08 2024 09:55:07 GMT-0500 (Central Daylight Time),634801.0,020_y_f_n_a.png,O,m,1002,7,1,2060.900000035763,632740.0999999642,7020,VNB,B,5
3,test,3,1.0,2-Back,0,m,Tue Oct 08 2024 09:55:07 GMT-0500 (Central Daylight Time),637183.6999999881,007_m_m_d_a.png,O,z,1303,8,1,2379.0,634804.6999999881,7020,VNB,B,6
3,test,3,0.0,2-Back,0,m,Tue Oct 08 2024 09:55:07 GMT-0500 (Central Daylight Time),639083.0,016_y_m_d_a.png,O,z,842,9,1,1895.0,637188.0,7020,VNB,B,7
3,test,3,0.0,2-Back,0,m,Tue Oct 08 2024 09:55:07 GMT-0500 (Central Daylight Time),641048.8000000119,005_o_f_h_a.png,O,z,876,10,1,1962.4000000357628,639086.3999999762,7020,VNB,B,8
4,test,3,1.0,2-Back,1,m,Tue Oct 08 2024 09:55:07 GMT-0500 (Central Daylight Time),643364.8999999762,011_m_f_n_a.png,O,m,1239,11,1,2312.199999988079,641052.6999999881,7020,VNB,B,9
5,test,3,1.0,2-Back,1,z,Tue Oct 08 2024 09:55:07 GMT-0500 (Central Daylight Time),644931.1999999881,007_m_m_h_a.png,O,z,500,12,1,1562.699999988079,643368.5,7020,VNB,B,10
6,test,3,0.0,2-Back,1,m,Tue Oct 08 2024 09:55:07 GMT-0500 (Central Daylight Time),646813.8999999762,020_y_f_d_a.png,O,m,821,13,1,1878.800000011921,644935.0999999642,7020,VNB,B,11
6,test,3,0.0,2-Back,0,m,Tue Oct 08 2024 09:55:07 GMT-0500 (Central Daylight Time),648879.8000000119,005_o_f_n_a.png,O,z,978,14,1,2062.2000000476837,646817.5999999642,7020,VNB,B,12
7,test,3,0.0,2-Back,1,z,Tue Oct 08 2024 09:55:07 GMT-0500 (Central Daylight Time),650779.1999999881,004_o_m_d_a.png,O,z,833,15,1,1895.199999988079,648884.0,7020,VNB,B,13
7,test,3,1.0,2-Back,0,m,Tue Oct 08 2024 09:55:07 GMT-0500 (Central Daylight Time),652529.8999999762,011_m_f_h_a.png,O,z,719,16,1,1747.5999999642372,650782.3000000119,7020,VNB,B,14
8,test,3,0.0,2-Back,1,m,Tue Oct 08 2024 09:55:07 GMT-0500 (Central Daylight Time),654811.3000000119,007_m_m_n_a.png,O,m,1216,17,1,2277.7000000476837,652533.5999999642,7020,VNB,B,15
9,test,3,0.0,2-Back,1,z,Tue Oct 08 2024 09:55:07 GMT-0500 (Central Daylight Time),656261.0,016_y_m_h_a.png,O,z,390,18,1,1446.4000000357628,654814.5999999642,7020,VNB,B,16
0,test,4,0.0,2-Back,,,Tue Oct 08 2024 09:55:07 GMT-0500 (Central Daylight Time),656261.0,011_m_f_n_a.png,O,space,2438,1,1,1446.4000000357628,654814.5999999642,7020,VNB,B,0
0,test,4,0.0,2-Back,,,Tue Oct 08 2024 09:55:07 GMT-0500 (Central Daylight Time),656261.0,004_o_m_n_a.png,O,space,2438,2,1,1446.4000000357628,654814.5999999642,7020,VNB,B,0
1,test,4,1.0,2-Back,1,m,Tue Oct 08 2024 09:55:07 GMT-0500 (Central Daylight Time),665458.0999999642,016_y_m_h_a.png,O,m,483,3,1,1512.2999999523163,663945.8000000119,7020,VNB,B,1
1,test,4,1.0,2-Back,0,m,Tue Oct 08 2024 09:55:07 GMT-0500 (Central Daylight Time),667340.6999999881,005_o_f_d_a.png,O,z,856,4,1,1878.8999999761581,665461.8000000119,7020,VNB,B,2
2,test,4,0.0,2-Back,1,z,Tue Oct 08 2024 09:55:07 GMT-0500 (Central Daylight Time),669173.5999999642,004_o_m_h_a.png,O,z,805,5,1,1828.8999999761581,667344.6999999881,7020,VNB,B,3
2,test,4,0.0,2-Back,0,m,Tue Oct 08 2024 09:55:07 GMT-0500 (Central Daylight Time),670940.5,007_m_m_n_a.png,O,z,749,6,1,1763.300000011921,669177.1999999881,7020,VNB,B,4
3,test,4,0.0,2-Back,1,m,Tue Oct 08 2024 09:55:07 GMT-0500 (Central Daylight Time),672839.1999999881,011_m_f_d_a.png,O,m,879,7,1,1895.0,670944.1999999881,7020,VNB,B,5
3,test,4,0.0,2-Back,0,z,Tue Oct 08 2024 09:55:07 GMT-0500 (Central Daylight Time),675338.0999999642,020_y_f_n_a.png,O,m,1467,8,1,2495.199999988079,672842.8999999762,7020,VNB,B,6
3,test,4,1.0,2-Back,0,m,Tue Oct 08 2024 09:55:07 GMT-0500 (Central Daylight Time),676954.8000000119,005_o_f_h_a.png,O,z,584,9,1,1613.0,675341.8000000119,7020,VNB,B,7
4,test,4,0.0,2-Back,1,m,Tue Oct 08 2024 09:55:07 GMT-0500 (Central Daylight Time),679103.8000000119,007_m_m_h_a.png,O,m,1120,10,1,2145.400000035763,676958.3999999762,7020,VNB,B,8
5,test,4,0.0,2-Back,1,m,Tue Oct 08 2024 09:55:07 GMT-0500 (Central Daylight Time),681319.8000000119,020_y_f_d_a.png,O,m,1193,11,1,2212.800000011921,679107.0,7020,VNB,B,9
6,test,4,0.0,2-Back,1,m,Tue Oct 08 2024 09:55:07 GMT-0500 (Central Daylight Time),683352.3999999762,016_y_m_n_a.png,O,m,1011,12,1,2029.5,681322.8999999762,7020,VNB,B,10
6,test,4,0.0,2-Back,0,z,Tue Oct 08 2024 09:55:07 GMT-0500 (Central Daylight Time),685551.8999999762,004_o_m_d_a.png,O,m,1178,13,1,2195.800000011921,683356.0999999642,7020,VNB,B,11
7,test,4,1.0,2-Back,1,m,Tue Oct 08 2024 09:55:07 GMT-0500 (Central Daylight Time),687618.0,011_m_f_h_a.png,O,m,1035,14,1,2062.600000023842,685555.3999999762,7020,VNB,B,12
8,test,4,1.0,2-Back,1,m,Tue Oct 08 2024 09:55:07 GMT-0500 (Central Daylight Time),689433.6999999881,020_y_f_h_a.png,O,m,793,15,1,1812.1000000238419,687621.5999999642,7020,VNB,B,13
9,test,4,0.0,2-Back,1,m,Tue Oct 08 2024 09:55:07 GMT-0500 (Central Daylight Time),691199.8999999762,005_o_f_n_a.png,O,m,736,16,1,1761.800000011921,689438.0999999642,7020,VNB,B,14
10,test,4,0.0,2-Back,1,m,Tue Oct 08 2024 09:55:07 GMT-0500 (Central Daylight Time),693049.3999999762,016_y_m_d_a.png,O,m,826,17,1,1846.300000011921,691203.0999999642,7020,VNB,B,15
11,test,4,1.0,2-Back,1,m,Tue Oct 08 2024 09:55:07 GMT-0500 (Central Daylight Time),694932.1999999881,007_m_m_d_a.png,O,m,865,18,1,1879.699999988079,693052.5,7020,VNB,B,16
0,test,5,1.0,2-Back,,,Tue Oct 08 2024 09:55:07 GMT-0500 (Central Daylight Time),694932.1999999881,020_y_f_d_a.png,O,space,1590,1,1,1879.699999988079,693052.5,7020,VNB,B,0
0,test,5,1.0,2-Back,,,Tue Oct 08 2024 09:55:07 GMT-0500 (Central Daylight Time),694932.1999999881,005_o_f_h_a.png,O,space,1590,2,1,1879.699999988079,693052.5,7020,VNB,B,0
1,test,5,1.0,2-Back,1,z,Tue Oct 08 2024 09:55:07 GMT-0500 (Central Daylight Time),703312.8999999762,004_o_m_d_a.png,O,z,486,3,1,1545.5999999642372,701767.3000000119,7020,VNB,B,1
2,test,5,1.0,2-Back,1,m,Tue Oct 08 2024 09:55:07 GMT-0500 (Central Daylight Time),704979.1999999881,011_m_f_n_a.png,O,m,616,4,1,1662.3999999761581,703316.8000000119,7020,VNB,B,2
2,test,5,0.0,2-Back,0,m,Tue Oct 08 2024 09:55:07 GMT-0500 (Central Daylight Time),706562.0,007_m_m_h_a.png,O,z,551,5,1,1579.199999988079,704982.8000000119,7020,VNB,B,3
3,test,5,0.0,2-Back,1,z,Tue Oct 08 2024 09:55:07 GMT-0500 (Central Daylight Time),708527.8000000119,020_y_f_n_a.png,O,z,911,6,1,1962.800000011921,706565.0,7020,VNB,B,4
4,test,5,0.0,2-Back,1,m,Tue Oct 08 2024 09:55:07 GMT-0500 (Central Daylight Time),710561.8000000119,005_o_f_d_a.png,O,m,977,7,1,2030.2000000476837,708531.5999999642,7020,VNB,B,5
4,test,5,0.0,2-Back,0,m,Tue Oct 08 2024 09:55:07 GMT-0500 (Central Daylight Time),712059.8999999762,004_o_m_h_a.png,O,z,448,8,1,1494.0,710565.8999999762,7020,VNB,B,6
4,test,5,1.0,2-Back,0,z,Tue Oct 08 2024 09:55:07 GMT-0500 (Central Daylight Time),714192.6999999881,011_m_f_d_a.png,O,m,1077,9,1,2129.5,712063.1999999881,7020,VNB,B,7
4,test,5,0.0,2-Back,0,m,Tue Oct 08 2024 09:55:07 GMT-0500 (Central Daylight Time),716110.0,016_y_m_n_a.png,O,z,864,10,1,1913.6000000238419,714196.3999999762,7020,VNB,B,8
5,test,5,0.0,2-Back,1,m,Tue Oct 08 2024 09:55:07 GMT-0500 (Central Daylight Time),718224.8000000119,007_m_m_n_a.png,O,m,992,11,1,2110.600000023842,716114.1999999881,7020,VNB,B,9
5,test,5,0.0,2-Back,0,m,Tue Oct 08 2024 09:55:07 GMT-0500 (Central Daylight Time),719890.8999999762,020_y_f_h_a.png,O,z,616,12,1,1662.5,718228.3999999762,7020,VNB,B,10
5,test,5,0.0,2-Back,0,m,Tue Oct 08 2024 09:55:07 GMT-0500 (Central Daylight Time),722107.1999999881,016_y_m_d_a.png,O,z,1166,13,1,2212.600000023842,719894.5999999642,7020,VNB,B,11
6,test,5,1.0,2-Back,1,z,Tue Oct 08 2024 09:55:07 GMT-0500 (Central Daylight Time),723789.6999999881,011_m_f_h_a.png,O,z,597,14,1,1678.6000000238419,722111.0999999642,7020,VNB,B,12
7,test,5,0.0,2-Back,1,m,Tue Oct 08 2024 09:55:07 GMT-0500 (Central Daylight Time),725789.3000000119,004_o_m_n_a.png,O,m,939,15,1,1995.7000000476837,723793.5999999642,7020,VNB,B,13
8,test,5,0.0,2-Back,1,m,Tue Oct 08 2024 09:55:07 GMT-0500 (Central Daylight Time),727438.6999999881,007_m_m_d_a.png,O,m,621,16,1,1645.6000000238419,725793.0999999642,7020,VNB,B,14
9,test,5,0.0,2-Back,1,z,Tue Oct 08 2024 09:55:07 GMT-0500 (Central Daylight Time),729354.6999999881,005_o_f_n_a.png,O,z,850,17,1,1912.1000000238419,727442.5999999642,7020,VNB,B,15
10,test,5,1.0,2-Back,1,m,Tue Oct 08 2024 09:55:07 GMT-0500 (Central Daylight Time),731338.3999999762,016_y_m_h_a.png,O,m,951,18,1,1979.8999999761581,729358.5,7020,VNB,B,16
