block_c,block_dur,condition,countdown,datetime,endtime,list,multichar_response,project,response,response_time,session_number,start_end,starttime,subject_id,task,task_vers,trial
,,,,Mon Mar 31 2025 11:07:23 GMT-0400 (Eastern Daylight Time),,,,I,space,806,1,,,9013,WL,A,
prac,,0,,Mon Mar 31 2025 11:07:23 GMT-0400 (Eastern Daylight Time),,NA,b,I,b,3815,1,,,9013,WL,A,1.0
prac,,0,,Mon Mar 31 2025 11:07:23 GMT-0400 (Eastern Daylight Time),,NA,bo,I,o,111,1,,,9013,WL,A,1.0
prac,,0,,Mon Mar 31 2025 11:07:23 GMT-0400 (Eastern Daylight Time),,NA,boo,I,o,149,1,,,9013,WL,A,1.0
prac,,0,,Mon Mar 31 2025 11:07:23 GMT-0400 (Eastern Daylight Time),,NA,boos,I,s,246,1,,,9013,WL,A,1.0
prac,,0,,Mon Mar 31 2025 11:07:23 GMT-0400 (Eastern Daylight Time),,NA,boost,I,t,119,1,,,9013,WL,A,1.0
prac,,0,,Mon Mar 31 2025 11:07:23 GMT-0400 (Eastern Daylight Time),,NA,boostenter,I,enter,1892,1,,,9013,WL,A,1.0
1,4.884000062942505,learn,55115.999937057495,Mon Mar 31 2025 11:07:23 GMT-0400 (Eastern Daylight Time),128070.40000009537,A,a,I,a,4863,1,4882.900000095367,123187.5,9013,WL,A,1.0
1,4.983000040054321,learn,55016.99995994568,Mon Mar 31 2025 11:07:23 GMT-0400 (Eastern Daylight Time),128170.30000019073,A,ap,I,p,76,1,4982.800000190735,123187.5,9013,WL,A,1.0
1,5.1000001430511475,learn,54899.99985694885,Mon Mar 31 2025 11:07:23 GMT-0400 (Eastern Daylight Time),128286.40000009537,A,app,I,p,94,1,5098.900000095367,123187.5,9013,WL,A,1.0
1,5.267000198364258,learn,54732.99980163574,Mon Mar 31 2025 11:07:23 GMT-0400 (Eastern Daylight Time),128453.40000009537,A,appl,I,l,139,1,5265.900000095367,123187.5,9013,WL,A,1.0
1,5.450000047683716,learn,54549.999952316284,Mon Mar 31 2025 11:07:23 GMT-0400 (Eastern Daylight Time),128636.80000019073,A,apple,I,e,148,1,5449.300000190735,123187.5,9013,WL,A,1.0
1,6.14900016784668,learn,53850.99983215332,Mon Mar 31 2025 11:07:23 GMT-0400 (Eastern Daylight Time),129336.2000002861,A,appleenter,I,enter,678,1,6148.700000286102,123187.5,9013,WL,A,1.0
1,10.633000135421753,learn,49366.99986457825,Mon Mar 31 2025 11:07:23 GMT-0400 (Eastern Daylight Time),133820.09999990463,A,t,I,t,4462,1,4483.199999809265,129336.90000009537,9013,WL,A,2.0
1,10.800000190734863,learn,49199.99980926514,Mon Mar 31 2025 11:07:23 GMT-0400 (Eastern Daylight Time),133986.80000019073,A,tr,I,r,149,1,4649.900000095367,129336.90000009537,9013,WL,A,2.0
1,11.0,learn,49000.0,Mon Mar 31 2025 11:07:23 GMT-0400 (Eastern Daylight Time),134186.7000002861,A,tra,I,a,165,1,4849.800000190735,129336.90000009537,9013,WL,A,2.0
1,11.082000017166138,learn,48917.99998283386,Mon Mar 31 2025 11:07:23 GMT-0400 (Eastern Daylight Time),134269.2000002861,A,trai,I,i,63,1,4932.300000190735,129336.90000009537,9013,WL,A,2.0
1,11.317000150680542,learn,48682.99984931946,Mon Mar 31 2025 11:07:23 GMT-0400 (Eastern Daylight Time),134503.40000009537,A,train,I,n,212,1,5166.5,129336.90000009537,9013,WL,A,2.0
1,12.449000120162964,learn,47550.999879837036,Mon Mar 31 2025 11:07:23 GMT-0400 (Eastern Daylight Time),135636.09999990463,A,trainenter,I,enter,1115,1,6299.199999809265,129336.90000009537,9013,WL,A,2.0
1,16.65000009536743,learn,43349.99990463257,Mon Mar 31 2025 11:07:23 GMT-0400 (Eastern Daylight Time),139836.5,A,f,I,f,4177,1,4199.799999713898,135636.7000002861,9013,WL,A,3.0
1,16.73300004005432,learn,43266.99995994568,Mon Mar 31 2025 11:07:23 GMT-0400 (Eastern Daylight Time),139919.7000002861,A,fl,I,l,68,1,4283.0,135636.7000002861,9013,WL,A,3.0
1,16.91700005531311,learn,43082.99994468689,Mon Mar 31 2025 11:07:23 GMT-0400 (Eastern Daylight Time),140103.40000009537,A,flo,I,o,165,1,4466.699999809265,135636.7000002861,9013,WL,A,3.0
1,17.08300018310547,learn,42916.99981689453,Mon Mar 31 2025 11:07:23 GMT-0400 (Eastern Daylight Time),140270.0,A,flow,I,w,146,1,4633.299999713898,135636.7000002861,9013,WL,A,3.0
1,17.16600012779236,learn,42833.99987220764,Mon Mar 31 2025 11:07:23 GMT-0400 (Eastern Daylight Time),140352.5,A,flowe,I,e,68,1,4715.799999713898,135636.7000002861,9013,WL,A,3.0
1,17.40000009536743,learn,42599.99990463257,Mon Mar 31 2025 11:07:23 GMT-0400 (Eastern Daylight Time),140586.59999990463,A,flower,I,r,213,1,4949.89999961853,135636.7000002861,9013,WL,A,3.0
1,17.633000135421753,learn,42366.99986457825,Mon Mar 31 2025 11:07:23 GMT-0400 (Eastern Daylight Time),140819.5,A,flowerenter,I,enter,207,1,5182.799999713898,135636.7000002861,9013,WL,A,3.0
1,18.683000087738037,learn,41316.99991226196,Mon Mar 31 2025 11:07:23 GMT-0400 (Eastern Daylight Time),141870.30000019073,A,r,I,r,1026,1,1050.2000002861023,140820.09999990463,9013,WL,A,4.0
1,18.766000032424927,learn,41233.99996757507,Mon Mar 31 2025 11:07:23 GMT-0400 (Eastern Daylight Time),141953.0,A,ru,I,u,69,1,1132.9000000953674,140820.09999990463,9013,WL,A,4.0
1,18.950000047683716,learn,41049.999952316284,Mon Mar 31 2025 11:07:23 GMT-0400 (Eastern Daylight Time),142136.80000019073,A,rug,I,g,161,1,1316.7000002861023,140820.09999990463,9013,WL,A,4.0
1,19.199000120162964,learn,40800.999879837036,Mon Mar 31 2025 11:07:23 GMT-0400 (Eastern Daylight Time),142386.2000002861,A,rugenter,I,enter,233,1,1566.1000003814697,140820.09999990463,9013,WL,A,4.0
1,22.617000102996826,learn,37382.999897003174,Mon Mar 31 2025 11:07:23 GMT-0400 (Eastern Daylight Time),145803.30000019073,A,r,I,r,3395,1,3416.5999999046326,142386.7000002861,9013,WL,A,5.0
1,22.91700005531311,learn,37082.99994468689,Mon Mar 31 2025 11:07:23 GMT-0400 (Eastern Daylight Time),146103.5,A,ra,I,a,280,1,3716.7999997138977,142386.7000002861,9013,WL,A,5.0
1,24.450000047683716,learn,35549.999952316284,Mon Mar 31 2025 11:07:23 GMT-0400 (Eastern Daylight Time),147636.7000002861,A,rat,I,t,1514,1,5250.0,142386.7000002861,9013,WL,A,5.0
1,25.06599998474121,learn,34934.00001525879,Mon Mar 31 2025 11:07:23 GMT-0400 (Eastern Daylight Time),148253.2000002861,A,ratl,I,l,589,1,5866.5,142386.7000002861,9013,WL,A,5.0
1,25.567000150680542,learn,34432.99984931946,Mon Mar 31 2025 11:07:23 GMT-0400 (Eastern Daylight Time),148753.40000009537,A,rat,I,backspace,486,1,6366.699999809265,142386.7000002861,9013,WL,A,5.0
1,26.267000198364258,learn,33732.99980163574,Mon Mar 31 2025 11:07:23 GMT-0400 (Eastern Daylight Time),149453.30000019073,A,ratt,I,t,672,1,7066.599999904633,142386.7000002861,9013,WL,A,5.0
1,26.48300004005432,learn,33516.99995994568,Mon Mar 31 2025 11:07:23 GMT-0400 (Eastern Daylight Time),149670.0,A,rattl,I,l,196,1,7283.299999713898,142386.7000002861,9013,WL,A,5.0
1,26.65000009536743,learn,33349.99990463257,Mon Mar 31 2025 11:07:23 GMT-0400 (Eastern Daylight Time),149836.7000002861,A,rattle,I,e,141,1,7450.0,142386.7000002861,9013,WL,A,5.0
1,26.849000215530396,learn,33150.999784469604,Mon Mar 31 2025 11:07:23 GMT-0400 (Eastern Daylight Time),150036.2000002861,A,rattleenter,I,enter,182,1,7649.5,142386.7000002861,9013,WL,A,5.0
1,29.683000087738037,learn,30316.999912261963,Mon Mar 31 2025 11:07:23 GMT-0400 (Eastern Daylight Time),152870.0,A,b,I,b,2817,1,2833.199999809265,150036.80000019073,9013,WL,A,6.0
1,29.98300004005432,learn,30016.99995994568,Mon Mar 31 2025 11:07:23 GMT-0400 (Eastern Daylight Time),153170.0,A,bo,I,o,284,1,3133.199999809265,150036.80000019073,9013,WL,A,6.0
1,30.133000135421753,learn,29866.999864578247,Mon Mar 31 2025 11:07:23 GMT-0400 (Eastern Daylight Time),153319.5,A,boo,I,o,130,1,3282.699999809265,150036.80000019073,9013,WL,A,6.0
1,30.199000120162964,learn,29800.999879837036,Mon Mar 31 2025 11:07:23 GMT-0400 (Eastern Daylight Time),153386.2000002861,A,book,I,k,46,1,3349.4000000953674,150036.80000019073,9013,WL,A,6.0
1,30.516000032424927,learn,29483.999967575073,Mon Mar 31 2025 11:07:23 GMT-0400 (Eastern Daylight Time),153702.80000019073,A,bookenter,I,enter,298,1,3666.0,150036.80000019073,9013,WL,A,6.0
1,33.116000175476074,learn,26883.999824523926,Mon Mar 31 2025 11:07:23 GMT-0400 (Eastern Daylight Time),156303.2000002861,A,r,I,r,2592,1,2600.0,153703.2000002861,9013,WL,A,7.0
1,33.26600003242493,learn,26733.999967575073,Mon Mar 31 2025 11:07:23 GMT-0400 (Eastern Daylight Time),156453.2000002861,A,ru,I,u,129,1,2750.0,153703.2000002861,9013,WL,A,7.0
1,33.367000102996826,learn,26632.999897003174,Mon Mar 31 2025 11:07:23 GMT-0400 (Eastern Daylight Time),156553.40000009537,A,rug,I,g,71,1,2850.199999809265,153703.2000002861,9013,WL,A,7.0
1,34.28400015830994,learn,25715.999841690063,Mon Mar 31 2025 11:07:23 GMT-0400 (Eastern Daylight Time),157470.5,A,rugenter,I,enter,896,1,3767.2999997138977,153703.2000002861,9013,WL,A,7.0
1,36.65000009536743,learn,23349.99990463257,Mon Mar 31 2025 11:07:23 GMT-0400 (Eastern Daylight Time),159836.59999990463,A,f,I,f,2342,1,2365.5999999046326,157471.0,9013,WL,A,8.0
1,36.699000120162964,learn,23300.999879837036,Mon Mar 31 2025 11:07:23 GMT-0400 (Eastern Daylight Time),159886.0,A,fl,I,l,37,1,2415.0,157471.0,9013,WL,A,8.0
1,36.85000014305115,learn,23149.999856948853,Mon Mar 31 2025 11:07:23 GMT-0400 (Eastern Daylight Time),160036.59999990463,A,flo,I,o,135,1,2565.5999999046326,157471.0,9013,WL,A,8.0
1,37.01600003242493,learn,22983.999967575073,Mon Mar 31 2025 11:07:23 GMT-0400 (Eastern Daylight Time),160203.30000019073,A,flow,I,w,134,1,2732.300000190735,157471.0,9013,WL,A,8.0
1,37.05000019073486,learn,22949.999809265137,Mon Mar 31 2025 11:07:23 GMT-0400 (Eastern Daylight Time),160236.40000009537,A,flowe,I,e,7,1,2765.4000000953674,157471.0,9013,WL,A,8.0
1,37.282999992370605,learn,22717.000007629395,Mon Mar 31 2025 11:07:23 GMT-0400 (Eastern Daylight Time),160470.0,A,flower,I,r,207,1,2999.0,157471.0,9013,WL,A,8.0
1,37.41600012779236,learn,22583.99987220764,Mon Mar 31 2025 11:07:23 GMT-0400 (Eastern Daylight Time),160602.80000019073,A,flowerenter,I,enter,102,1,3131.800000190735,157471.0,9013,WL,A,8.0
1,37.65000009536743,learn,22349.99990463257,Mon Mar 31 2025 11:07:23 GMT-0400 (Eastern Daylight Time),160836.59999990463,A,t,I,t,219,1,233.39999961853027,160603.2000002861,9013,WL,A,9.0
1,37.866000175476074,learn,22133.999824523926,Mon Mar 31 2025 11:07:23 GMT-0400 (Eastern Daylight Time),161053.09999990463,A,tr,I,r,191,1,449.8999996185303,160603.2000002861,9013,WL,A,9.0
1,38.18300008773804,learn,21816.999912261963,Mon Mar 31 2025 11:07:23 GMT-0400 (Eastern Daylight Time),161370.0,A,tra,I,a,287,1,766.7999997138977,160603.2000002861,9013,WL,A,9.0
1,38.26700019836426,learn,21732.999801635742,Mon Mar 31 2025 11:07:23 GMT-0400 (Eastern Daylight Time),161453.7000002861,A,trai,I,i,73,1,850.5,160603.2000002861,9013,WL,A,9.0
1,38.41700005531311,learn,21582.99994468689,Mon Mar 31 2025 11:07:23 GMT-0400 (Eastern Daylight Time),161603.2000002861,A,train,I,n,134,1,1000.0,160603.2000002861,9013,WL,A,9.0
1,38.73300004005432,learn,21266.99995994568,Mon Mar 31 2025 11:07:23 GMT-0400 (Eastern Daylight Time),161919.5,A,trainenter,I,enter,296,1,1316.2999997138977,160603.2000002861,9013,WL,A,9.0
1,48.90000009536743,learn,11099.999904632568,Mon Mar 31 2025 11:07:23 GMT-0400 (Eastern Daylight Time),172086.7000002861,A,a,I,a,10152,1,10166.800000190735,161919.90000009537,9013,WL,A,10.0
1,49.01600003242493,learn,10983.999967575073,Mon Mar 31 2025 11:07:23 GMT-0400 (Eastern Daylight Time),172203.09999990463,A,ap,I,p,93,1,10283.199999809265,161919.90000009537,9013,WL,A,10.0
1,49.13300013542175,learn,10866.999864578247,Mon Mar 31 2025 11:07:23 GMT-0400 (Eastern Daylight Time),172319.7000002861,A,app,I,p,96,1,10399.800000190735,161919.90000009537,9013,WL,A,10.0
1,49.26700019836426,learn,10732.999801635742,Mon Mar 31 2025 11:07:23 GMT-0400 (Eastern Daylight Time),172453.30000019073,A,appl,I,l,110,1,10533.400000095367,161919.90000009537,9013,WL,A,10.0
1,49.48300004005432,learn,10516.999959945679,Mon Mar 31 2025 11:07:23 GMT-0400 (Eastern Daylight Time),172669.90000009537,A,apple,I,e,191,1,10750.0,161919.90000009537,9013,WL,A,10.0
1,49.56599998474121,learn,10434.000015258789,Mon Mar 31 2025 11:07:23 GMT-0400 (Eastern Daylight Time),172752.80000019073,A,appleenter,I,enter,70,1,10832.900000095367,161919.90000009537,9013,WL,A,10.0
1,58.217000007629395,learn,1782.9999923706055,Mon Mar 31 2025 11:07:23 GMT-0400 (Eastern Daylight Time),181403.5,A,m,I,m,8629,1,8650.199999809265,172753.30000019073,9013,WL,A,11.0
1,58.467000007629395,learn,1532.9999923706055,Mon Mar 31 2025 11:07:23 GMT-0400 (Eastern Daylight Time),181653.30000019073,A,me,I,e,231,1,8900.0,172753.30000019073,9013,WL,A,11.0
1,58.60000014305115,learn,1399.9998569488525,Mon Mar 31 2025 11:07:23 GMT-0400 (Eastern Daylight Time),181786.59999990463,A,mea,I,a,112,1,9033.299999713898,172753.30000019073,9013,WL,A,11.0
1,58.83300018310547,learn,1166.9998168945312,Mon Mar 31 2025 11:07:23 GMT-0400 (Eastern Daylight Time),182020.09999990463,A,mead,I,d,210,1,9266.799999713898,172753.30000019073,9013,WL,A,11.0
1,59.01700019836426,learn,982.9998016357422,Mon Mar 31 2025 11:07:23 GMT-0400 (Eastern Daylight Time),182203.30000019073,A,meado,I,o,158,1,9450.0,172753.30000019073,9013,WL,A,11.0
1,59.15000009536743,learn,849.9999046325684,Mon Mar 31 2025 11:07:23 GMT-0400 (Eastern Daylight Time),182336.40000009537,A,meadow,I,w,117,1,9583.099999904633,172753.30000019073,9013,WL,A,11.0
1,59.41600012779236,learn,583.9998722076416,Mon Mar 31 2025 11:07:23 GMT-0400 (Eastern Daylight Time),182602.7000002861,A,meadowenter,I,enter,242,1,9849.400000095367,172753.30000019073,9013,WL,A,11.0
1,60.01700019836426,learn,-17.000198364257812,Mon Mar 31 2025 11:07:23 GMT-0400 (Eastern Daylight Time),183203.5,A,None,I,None,593,1,600.4000000953674,182603.09999990463,9013,WL,A,12.0
2,1.815999984741211,learn,58184.00001525879,Mon Mar 31 2025 11:07:23 GMT-0400 (Eastern Daylight Time),258686.09999990463,A,f,I,f,1806,1,1815.7999997138977,256870.30000019073,9013,WL,A,1.0
2,1.8829998970031738,learn,58117.000102996826,Mon Mar 31 2025 11:07:23 GMT-0400 (Eastern Daylight Time),258752.80000019073,A,fl,I,l,53,1,1882.5,256870.30000019073,9013,WL,A,1.0
2,2.0840001106262207,learn,57915.99988937378,Mon Mar 31 2025 11:07:23 GMT-0400 (Eastern Daylight Time),258953.30000019073,A,flo,I,o,178,1,2083.0,256870.30000019073,9013,WL,A,1.0
2,2.299999952316284,learn,57700.000047683716,Mon Mar 31 2025 11:07:23 GMT-0400 (Eastern Daylight Time),259169.80000019073,A,flow,I,w,202,1,2299.5,256870.30000019073,9013,WL,A,1.0
2,2.3499999046325684,learn,57650.00009536743,Mon Mar 31 2025 11:07:23 GMT-0400 (Eastern Daylight Time),259219.30000019073,A,flowe,I,e,24,1,2349.0,256870.30000019073,9013,WL,A,1.0
2,2.5999999046325684,learn,57400.00009536743,Mon Mar 31 2025 11:07:23 GMT-0400 (Eastern Daylight Time),259470.2000002861,A,flower,I,r,243,1,2599.9000000953674,256870.30000019073,9013,WL,A,1.0
2,2.9000000953674316,learn,57099.99990463257,Mon Mar 31 2025 11:07:23 GMT-0400 (Eastern Daylight Time),259769.40000009537,A,flowerenter,I,enter,277,1,2899.0999999046326,256870.30000019073,9013,WL,A,1.0
2,3.9670000076293945,learn,56032.999992370605,Mon Mar 31 2025 11:07:23 GMT-0400 (Eastern Daylight Time),260836.59999990463,A,b,I,b,1053,1,1066.6999998092651,259769.90000009537,9013,WL,A,2.0
2,4.08299994468689,learn,55917.00005531311,Mon Mar 31 2025 11:07:23 GMT-0400 (Eastern Daylight Time),260952.90000009537,A,bo,I,o,92,1,1183.0,259769.90000009537,9013,WL,A,2.0
2,4.233000040054321,learn,55766.99995994568,Mon Mar 31 2025 11:07:23 GMT-0400 (Eastern Daylight Time),261103.09999990463,A,boo,I,o,131,1,1333.1999998092651,259769.90000009537,9013,WL,A,2.0
2,4.299999952316284,learn,55700.000047683716,Mon Mar 31 2025 11:07:23 GMT-0400 (Eastern Daylight Time),261169.80000019073,A,book,I,k,44,1,1399.9000000953674,259769.90000009537,9013,WL,A,2.0
2,4.632999897003174,learn,55367.000102996826,Mon Mar 31 2025 11:07:23 GMT-0400 (Eastern Daylight Time),261502.7000002861,A,bookenter,I,enter,315,1,1732.8000001907349,259769.90000009537,9013,WL,A,2.0
2,5.650000095367432,learn,54349.99990463257,Mon Mar 31 2025 11:07:23 GMT-0400 (Eastern Daylight Time),262519.90000009537,A,t,I,t,999,1,1016.9000000953674,261503.0,9013,WL,A,3.0
2,5.83299994468689,learn,54167.00005531311,Mon Mar 31 2025 11:07:23 GMT-0400 (Eastern Daylight Time),262702.90000009537,A,tr,I,r,171,1,1199.9000000953674,261503.0,9013,WL,A,3.0
2,6.299999952316284,learn,53700.000047683716,Mon Mar 31 2025 11:07:23 GMT-0400 (Eastern Daylight Time),263169.7000002861,A,tra,I,a,453,1,1666.7000002861023,261503.0,9013,WL,A,3.0
2,6.41700005531311,learn,53582.99994468689,Mon Mar 31 2025 11:07:23 GMT-0400 (Eastern Daylight Time),263286.59999990463,A,trai,I,i,97,1,1783.5999999046326,261503.0,9013,WL,A,3.0
2,6.599999904632568,learn,53400.00009536743,Mon Mar 31 2025 11:07:23 GMT-0400 (Eastern Daylight Time),263469.80000019073,A,train,I,n,156,1,1966.8000001907349,261503.0,9013,WL,A,3.0
2,7.0,learn,53000.0,Mon Mar 31 2025 11:07:23 GMT-0400 (Eastern Daylight Time),263869.30000019073,A,trainenter,I,enter,372,1,2366.300000190735,261503.0,9013,WL,A,3.0
2,7.849999904632568,learn,52150.00009536743,Mon Mar 31 2025 11:07:23 GMT-0400 (Eastern Daylight Time),264719.80000019073,A,f,I,f,841,1,850.0999999046326,263869.7000002861,9013,WL,A,4.0
2,7.91700005531311,learn,52082.99994468689,Mon Mar 31 2025 11:07:23 GMT-0400 (Eastern Daylight Time),264786.5,A,fi,I,i,51,1,916.7999997138977,263869.7000002861,9013,WL,A,4.0
2,8.08299994468689,learn,51917.00005531311,Mon Mar 31 2025 11:07:23 GMT-0400 (Eastern Daylight Time),264953.09999990463,A,fin,I,n,138,1,1083.3999996185303,263869.7000002861,9013,WL,A,4.0
2,8.183000087738037,learn,51816.99991226196,Mon Mar 31 2025 11:07:23 GMT-0400 (Eastern Daylight Time),265052.80000019073,A,fing,I,g,65,1,1183.0999999046326,263869.7000002861,9013,WL,A,4.0
2,8.450000047683716,learn,51549.999952316284,Mon Mar 31 2025 11:07:23 GMT-0400 (Eastern Daylight Time),265319.7000002861,A,finge,I,e,241,1,1450.0,263869.7000002861,9013,WL,A,4.0
2,8.5,learn,51500.0,Mon Mar 31 2025 11:07:23 GMT-0400 (Eastern Daylight Time),265369.40000009537,A,finger,I,r,27,1,1499.6999998092651,263869.7000002861,9013,WL,A,4.0
2,9.433000087738037,learn,50566.99991226196,Mon Mar 31 2025 11:07:23 GMT-0400 (Eastern Daylight Time),266303.09999990463,A,fingers,I,s,925,1,2433.3999996185303,263869.7000002861,9013,WL,A,4.0
2,9.58299994468689,learn,50417.00005531311,Mon Mar 31 2025 11:07:23 GMT-0400 (Eastern Daylight Time),266453.09999990463,A,fingersa,I,a,132,1,2583.3999996185303,263869.7000002861,9013,WL,A,4.0
2,9.700000047683716,learn,50299.999952316284,Mon Mar 31 2025 11:07:23 GMT-0400 (Eastern Daylight Time),266569.80000019073,A,fingersal,I,l,94,1,2700.0999999046326,263869.7000002861,9013,WL,A,4.0
2,9.83299994468689,learn,50167.00005531311,Mon Mar 31 2025 11:07:23 GMT-0400 (Eastern Daylight Time),266703.2000002861,A,fingersalt,I,t,112,1,2833.5,263869.7000002861,9013,WL,A,4.0
2,10.599999904632568,learn,49400.00009536743,Mon Mar 31 2025 11:07:23 GMT-0400 (Eastern Daylight Time),267469.7000002861,A,fingersal,I,backspace,731,1,3600.0,263869.7000002861,9013,WL,A,4.0
2,10.766999959945679,learn,49233.00004005432,Mon Mar 31 2025 11:07:23 GMT-0400 (Eastern Daylight Time),267636.5,A,fingersa,I,backspace,149,1,3766.7999997138977,263869.7000002861,9013,WL,A,4.0
2,10.91700005531311,learn,49082.99994468689,Mon Mar 31 2025 11:07:23 GMT-0400 (Eastern Daylight Time),267786.40000009537,A,fingers,I,backspace,119,1,3916.699999809265,263869.7000002861,9013,WL,A,4.0
2,11.049999952316284,learn,48950.000047683716,Mon Mar 31 2025 11:07:23 GMT-0400 (Eastern Daylight Time),267919.80000019073,A,finger,I,backspace,113,1,4050.0999999046326,263869.7000002861,9013,WL,A,4.0
2,11.183000087738037,learn,48816.99991226196,Mon Mar 31 2025 11:07:23 GMT-0400 (Eastern Daylight Time),268053.0,A,finge,I,backspace,116,1,4183.299999713898,263869.7000002861,9013,WL,A,4.0
2,12.200000047683716,learn,47799.999952316284,Mon Mar 31 2025 11:07:23 GMT-0400 (Eastern Daylight Time),269069.80000019073,A,finger,I,r,1006,1,5200.099999904633,263869.7000002861,9013,WL,A,4.0
2,13.115999937057495,learn,46884.000062942505,Mon Mar 31 2025 11:07:23 GMT-0400 (Eastern Daylight Time),269986.0,A,fingerenter,I,enter,900,1,6116.299999713898,263869.7000002861,9013,WL,A,4.0
2,14.233000040054321,learn,45766.99995994568,Mon Mar 31 2025 11:07:23 GMT-0400 (Eastern Daylight Time),271103.09999990463,A,s,I,s,1108,1,1116.6999998092651,269986.40000009537,9013,WL,A,5.0
2,14.301000118255615,learn,45698.999881744385,Mon Mar 31 2025 11:07:23 GMT-0400 (Eastern Daylight Time),271171.2000002861,A,sa,I,a,51,1,1184.8000001907349,269986.40000009537,9013,WL,A,5.0
2,14.58299994468689,learn,45417.00005531311,Mon Mar 31 2025 11:07:23 GMT-0400 (Eastern Daylight Time),271453.2000002861,A,sal,I,l,252,1,1466.8000001907349,269986.40000009537,9013,WL,A,5.0
2,14.75,learn,45250.0,Mon Mar 31 2025 11:07:23 GMT-0400 (Eastern Daylight Time),271619.80000019073,A,salt,I,t,142,1,1633.4000000953674,269986.40000009537,9013,WL,A,5.0
2,15.216000080108643,learn,44783.99991989136,Mon Mar 31 2025 11:07:23 GMT-0400 (Eastern Daylight Time),272086.09999990463,A,saltenter,I,enter,439,1,2099.699999809265,269986.40000009537,9013,WL,A,5.0
2,16.58299994468689,learn,43417.00005531311,Mon Mar 31 2025 11:07:23 GMT-0400 (Eastern Daylight Time),273453.0,A,g,I,g,1344,1,1366.5,272086.5,9013,WL,A,6.0
2,16.683000087738037,learn,43316.99991226196,Mon Mar 31 2025 11:07:23 GMT-0400 (Eastern Daylight Time),273553.09999990463,A,go,I,o,86,1,1466.5999999046326,272086.5,9013,WL,A,6.0
2,16.882999897003174,learn,43117.000102996826,Mon Mar 31 2025 11:07:23 GMT-0400 (Eastern Daylight Time),273753.0,A,gol,I,l,179,1,1666.5,272086.5,9013,WL,A,6.0
2,17.117000102996826,learn,42882.999897003174,Mon Mar 31 2025 11:07:23 GMT-0400 (Eastern Daylight Time),273986.5,A,gold,I,d,216,1,1900.0,272086.5,9013,WL,A,6.0
2,17.98300004005432,learn,42016.99995994568,Mon Mar 31 2025 11:07:23 GMT-0400 (Eastern Daylight Time),274852.7000002861,A,goldenter,I,enter,849,1,2766.2000002861023,272086.5,9013,WL,A,6.0
2,20.382999897003174,learn,39617.000102996826,Mon Mar 31 2025 11:07:23 GMT-0400 (Eastern Daylight Time),277253.09999990463,A,m,I,m,2386,1,2400.0999999046326,274853.0,9013,WL,A,7.0
2,20.59999990463257,learn,39400.00009536743,Mon Mar 31 2025 11:07:23 GMT-0400 (Eastern Daylight Time),277469.90000009537,A,me,I,e,190,1,2616.9000000953674,274853.0,9013,WL,A,7.0
2,20.717000007629395,learn,39282.999992370605,Mon Mar 31 2025 11:07:23 GMT-0400 (Eastern Daylight Time),277586.40000009537,A,mea,I,a,101,1,2733.4000000953674,274853.0,9013,WL,A,7.0
2,20.950000047683716,learn,39049.999952316284,Mon Mar 31 2025 11:07:23 GMT-0400 (Eastern Daylight Time),277819.80000019073,A,mead,I,d,210,1,2966.800000190735,274853.0,9013,WL,A,7.0
2,21.09999990463257,learn,38900.00009536743,Mon Mar 31 2025 11:07:23 GMT-0400 (Eastern Daylight Time),277969.90000009537,A,meado,I,o,136,1,3116.9000000953674,274853.0,9013,WL,A,7.0
2,21.26699995994568,learn,38733.00004005432,Mon Mar 31 2025 11:07:23 GMT-0400 (Eastern Daylight Time),278136.5,A,meadow,I,w,136,1,3283.5,274853.0,9013,WL,A,7.0
2,22.48300004005432,learn,37516.99995994568,Mon Mar 31 2025 11:07:23 GMT-0400 (Eastern Daylight Time),279352.5,A,meadowenter,I,enter,1187,1,4499.5,274853.0,9013,WL,A,7.0
2,23.217000007629395,learn,36782.999992370605,Mon Mar 31 2025 11:07:23 GMT-0400 (Eastern Daylight Time),280086.59999990463,A,f,I,f,717,1,733.5999999046326,279353.0,9013,WL,A,8.0
2,23.367000102996826,learn,36632.999897003174,Mon Mar 31 2025 11:07:23 GMT-0400 (Eastern Daylight Time),280236.5,A,fl,I,l,124,1,883.5,279353.0,9013,WL,A,8.0
2,23.59999990463257,learn,36400.00009536743,Mon Mar 31 2025 11:07:23 GMT-0400 (Eastern Daylight Time),280469.80000019073,A,flo,I,o,215,1,1116.8000001907349,279353.0,9013,WL,A,8.0
2,23.83299994468689,learn,36167.00005531311,Mon Mar 31 2025 11:07:23 GMT-0400 (Eastern Daylight Time),280703.0,A,flow,I,w,222,1,1350.0,279353.0,9013,WL,A,8.0
2,23.98300004005432,learn,36016.99995994568,Mon Mar 31 2025 11:07:23 GMT-0400 (Eastern Daylight Time),280853.09999990463,A,flowe,I,e,124,1,1500.0999999046326,279353.0,9013,WL,A,8.0
2,24.23300004005432,learn,35766.99995994568,Mon Mar 31 2025 11:07:23 GMT-0400 (Eastern Daylight Time),281103.09999990463,A,flower,I,r,232,1,1750.0999999046326,279353.0,9013,WL,A,8.0
2,24.966000080108643,learn,35033.99991989136,Mon Mar 31 2025 11:07:23 GMT-0400 (Eastern Daylight Time),281836.0,A,flowerenter,I,enter,708,1,2483.0,279353.0,9013,WL,A,8.0
2,25.700000047683716,learn,34299.999952316284,Mon Mar 31 2025 11:07:23 GMT-0400 (Eastern Daylight Time),282569.80000019073,A,s,I,s,714,1,733.4000000953674,281836.40000009537,9013,WL,A,9.0
2,25.882999897003174,learn,34117.000102996826,Mon Mar 31 2025 11:07:23 GMT-0400 (Eastern Daylight Time),282753.2000002861,A,sa,I,a,170,1,916.8000001907349,281836.40000009537,9013,WL,A,9.0
2,25.966000080108643,learn,34033.99991989136,Mon Mar 31 2025 11:07:23 GMT-0400 (Eastern Daylight Time),282836.0,A,sal,I,l,59,1,999.5999999046326,281836.40000009537,9013,WL,A,9.0
2,26.16700005531311,learn,33832.99994468689,Mon Mar 31 2025 11:07:23 GMT-0400 (Eastern Daylight Time),283036.40000009537,A,salt,I,t,177,1,1200.0,281836.40000009537,9013,WL,A,9.0
2,26.41600012779236,learn,33583.99987220764,Mon Mar 31 2025 11:07:23 GMT-0400 (Eastern Daylight Time),283286.0,A,saltenter,I,enter,222,1,1449.5999999046326,281836.40000009537,9013,WL,A,9.0
2,27.117000102996826,learn,32882.999897003174,Mon Mar 31 2025 11:07:23 GMT-0400 (Eastern Daylight Time),283986.40000009537,A,f,I,f,686,1,699.8000001907349,283286.59999990463,9013,WL,A,10.0
2,27.299999952316284,learn,32700.000047683716,Mon Mar 31 2025 11:07:23 GMT-0400 (Eastern Daylight Time),284169.90000009537,A,fi,I,i,160,1,883.3000001907349,283286.59999990463,9013,WL,A,10.0
2,27.467000007629395,learn,32532.999992370605,Mon Mar 31 2025 11:07:23 GMT-0400 (Eastern Daylight Time),284336.5,A,fin,I,n,146,1,1049.9000000953674,283286.59999990463,9013,WL,A,10.0
2,27.58299994468689,learn,32417.00005531311,Mon Mar 31 2025 11:07:23 GMT-0400 (Eastern Daylight Time),284453.09999990463,A,fing,I,g,95,1,1166.5,283286.59999990463,9013,WL,A,10.0
2,27.799999952316284,learn,32200.000047683716,Mon Mar 31 2025 11:07:23 GMT-0400 (Eastern Daylight Time),284669.80000019073,A,finge,I,e,206,1,1383.2000002861023,283286.59999990463,9013,WL,A,10.0
2,27.848999977111816,learn,32151.000022888184,Mon Mar 31 2025 11:07:23 GMT-0400 (Eastern Daylight Time),284719.2000002861,A,finger,I,r,36,1,1432.6000003814697,283286.59999990463,9013,WL,A,10.0
2,28.016000032424927,learn,31983.999967575073,Mon Mar 31 2025 11:07:23 GMT-0400 (Eastern Daylight Time),284886.0,A,fingerenter,I,enter,149,1,1599.4000000953674,283286.59999990463,9013,WL,A,10.0
2,32.132999897003174,learn,27867.000102996826,Mon Mar 31 2025 11:07:23 GMT-0400 (Eastern Daylight Time),289003.2000002861,A,r,I,r,4096,1,4116.900000095367,284886.30000019073,9013,WL,A,11.0
2,32.31699991226196,learn,27683.000087738037,Mon Mar 31 2025 11:07:23 GMT-0400 (Eastern Daylight Time),289186.40000009537,A,ru,I,u,167,1,4300.099999904633,284886.30000019073,9013,WL,A,11.0
2,32.51699995994568,learn,27483.00004005432,Mon Mar 31 2025 11:07:23 GMT-0400 (Eastern Daylight Time),289386.40000009537,A,rug,I,g,177,1,4500.099999904633,284886.30000019073,9013,WL,A,11.0
2,32.799999952316284,learn,27200.000047683716,Mon Mar 31 2025 11:07:23 GMT-0400 (Eastern Daylight Time),289669.30000019073,A,rugenter,I,enter,265,1,4783.0,284886.30000019073,9013,WL,A,11.0
2,34.632999897003174,learn,25367.000102996826,Mon Mar 31 2025 11:07:23 GMT-0400 (Eastern Daylight Time),291503.0,A,r,I,r,1825,1,1833.2999997138977,289669.7000002861,9013,WL,A,12.0
2,34.98300004005432,learn,25016.99995994568,Mon Mar 31 2025 11:07:23 GMT-0400 (Eastern Daylight Time),291853.09999990463,A,ra,I,a,323,1,2183.3999996185303,289669.7000002861,9013,WL,A,12.0
2,35.200000047683716,learn,24799.999952316284,Mon Mar 31 2025 11:07:23 GMT-0400 (Eastern Daylight Time),292069.80000019073,A,rat,I,t,199,1,2400.0999999046326,289669.7000002861,9013,WL,A,12.0
2,35.31699991226196,learn,24683.000087738037,Mon Mar 31 2025 11:07:23 GMT-0400 (Eastern Daylight Time),292186.40000009537,A,ratt,I,t,92,1,2516.699999809265,289669.7000002861,9013,WL,A,12.0
2,35.782999992370605,learn,24217.000007629395,Mon Mar 31 2025 11:07:23 GMT-0400 (Eastern Daylight Time),292653.2000002861,A,rattl,I,l,441,1,2983.5,289669.7000002861,9013,WL,A,12.0
2,35.91700005531311,learn,24082.99994468689,Mon Mar 31 2025 11:07:23 GMT-0400 (Eastern Daylight Time),292786.40000009537,A,rattle,I,e,117,1,3116.699999809265,289669.7000002861,9013,WL,A,12.0
2,36.23300004005432,learn,23766.99995994568,Mon Mar 31 2025 11:07:23 GMT-0400 (Eastern Daylight Time),293102.59999990463,A,rattleenter,I,enter,305,1,3432.8999996185303,289669.7000002861,9013,WL,A,12.0
2,36.717000007629395,learn,23282.999992370605,Mon Mar 31 2025 11:07:23 GMT-0400 (Eastern Daylight Time),293586.40000009537,A,l,I,l,471,1,483.40000009536743,293103.0,9013,WL,A,13.0
2,36.93300008773804,learn,23066.999912261963,Mon Mar 31 2025 11:07:23 GMT-0400 (Eastern Daylight Time),293803.0,A,lo,I,o,192,1,700.0,293103.0,9013,WL,A,13.0
2,37.01600003242493,learn,22983.999967575073,Mon Mar 31 2025 11:07:23 GMT-0400 (Eastern Daylight Time),293885.90000009537,A,log,I,g,73,1,782.9000000953674,293103.0,9013,WL,A,13.0
2,37.16600012779236,learn,22833.99987220764,Mon Mar 31 2025 11:07:23 GMT-0400 (Eastern Daylight Time),294036.0,A,logenter,I,enter,126,1,933.0,293103.0,9013,WL,A,13.0
2,38.799999952316284,learn,21200.000047683716,Mon Mar 31 2025 11:07:23 GMT-0400 (Eastern Daylight Time),295669.90000009537,A,t,I,t,1618,1,1633.4000000953674,294036.5,9013,WL,A,14.0
2,39.0,learn,21000.0,Mon Mar 31 2025 11:07:23 GMT-0400 (Eastern Daylight Time),295869.80000019073,A,tr,I,r,173,1,1833.3000001907349,294036.5,9013,WL,A,14.0
2,39.18300008773804,learn,20816.999912261963,Mon Mar 31 2025 11:07:23 GMT-0400 (Eastern Daylight Time),296053.09999990463,A,tra,I,a,164,1,2016.5999999046326,294036.5,9013,WL,A,14.0
2,39.282999992370605,learn,20717.000007629395,Mon Mar 31 2025 11:07:23 GMT-0400 (Eastern Daylight Time),296153.0,A,trai,I,i,76,1,2116.5,294036.5,9013,WL,A,14.0
2,39.40000009536743,learn,20599.99990463257,Mon Mar 31 2025 11:07:23 GMT-0400 (Eastern Daylight Time),296269.7000002861,A,train,I,n,82,1,2233.2000002861023,294036.5,9013,WL,A,14.0
2,39.66600012779236,learn,20333.99987220764,Mon Mar 31 2025 11:07:23 GMT-0400 (Eastern Daylight Time),296536.0,A,trainenter,I,enter,236,1,2499.5,294036.5,9013,WL,A,14.0
2,44.032999992370605,learn,15967.000007629395,Mon Mar 31 2025 11:07:23 GMT-0400 (Eastern Daylight Time),300903.30000019073,A,f,I,f,4349,1,4366.900000095367,296536.40000009537,9013,WL,A,15.0
2,44.132999897003174,learn,15867.000102996826,Mon Mar 31 2025 11:07:23 GMT-0400 (Eastern Daylight Time),301003.0,A,fi,I,i,73,1,4466.599999904633,296536.40000009537,9013,WL,A,15.0
2,44.26699995994568,learn,15733.000040054321,Mon Mar 31 2025 11:07:23 GMT-0400 (Eastern Daylight Time),301136.30000019073,A,fin,I,n,112,1,4599.900000095367,296536.40000009537,9013,WL,A,15.0
2,44.348999977111816,learn,15651.000022888184,Mon Mar 31 2025 11:07:23 GMT-0400 (Eastern Daylight Time),301219.2000002861,A,fing,I,g,58,1,4682.800000190735,296536.40000009537,9013,WL,A,15.0
2,44.59999990463257,learn,15400.000095367432,Mon Mar 31 2025 11:07:23 GMT-0400 (Eastern Daylight Time),301469.7000002861,A,fingr,I,r,242,1,4933.300000190735,296536.40000009537,9013,WL,A,15.0
2,44.75,learn,15250.0,Mon Mar 31 2025 11:07:23 GMT-0400 (Eastern Daylight Time),301619.30000019073,A,fingrenter,I,enter,132,1,5082.900000095367,296536.40000009537,9013,WL,A,15.0
3,1.0,learn,59000.0,Mon Mar 31 2025 11:07:23 GMT-0400 (Eastern Daylight Time),373303.0,A,h,I,h,981,1,999.6999998092651,372303.30000019073,9013,WL,A,1.0
3,1.1329998970031738,learn,58867.000102996826,Mon Mar 31 2025 11:07:23 GMT-0400 (Eastern Daylight Time),373435.90000009537,A,ha,I,a,107,1,1132.5999999046326,372303.30000019073,9013,WL,A,1.0
3,1.3999998569488525,learn,58600.00014305115,Mon Mar 31 2025 11:07:23 GMT-0400 (Eastern Daylight Time),373703.0,A,har,I,r,247,1,1399.6999998092651,372303.30000019073,9013,WL,A,1.0
3,2.0,learn,58000.0,Mon Mar 31 2025 11:07:23 GMT-0400 (Eastern Daylight Time),374302.90000009537,A,harp,I,p,587,1,1999.5999999046326,372303.30000019073,9013,WL,A,1.0
3,2.815999984741211,learn,57184.00001525879,Mon Mar 31 2025 11:07:23 GMT-0400 (Eastern Daylight Time),375119.2000002861,A,harpenter,I,enter,803,1,2815.9000000953674,372303.30000019073,9013,WL,A,1.0
3,3.2330000400543213,learn,56766.99995994568,Mon Mar 31 2025 11:07:23 GMT-0400 (Eastern Daylight Time),375536.2000002861,A,c,I,c,407,1,416.7000002861023,375119.5,9013,WL,A,2.0
3,3.432999849319458,learn,56567.00015068054,Mon Mar 31 2025 11:07:23 GMT-0400 (Eastern Daylight Time),375736.2000002861,A,ch,I,h,177,1,616.7000002861023,375119.5,9013,WL,A,2.0
3,3.566999912261963,learn,56433.00008773804,Mon Mar 31 2025 11:07:23 GMT-0400 (Eastern Daylight Time),375869.5,A,chi,I,i,123,1,750.0,375119.5,9013,WL,A,2.0
3,3.882999897003174,learn,56117.000102996826,Mon Mar 31 2025 11:07:23 GMT-0400 (Eastern Daylight Time),376186.2000002861,A,chim,I,m,285,1,1066.7000002861023,375119.5,9013,WL,A,2.0
3,4.382999897003174,learn,55617.000102996826,Mon Mar 31 2025 11:07:23 GMT-0400 (Eastern Daylight Time),376685.80000019073,A,chimn,I,n,487,1,1566.3000001907349,375119.5,9013,WL,A,2.0
3,4.533999919891357,learn,55466.00008010864,Mon Mar 31 2025 11:07:23 GMT-0400 (Eastern Daylight Time),376836.40000009537,A,chimne,I,e,133,1,1716.9000000953674,375119.5,9013,WL,A,2.0
3,4.632999897003174,learn,55367.000102996826,Mon Mar 31 2025 11:07:23 GMT-0400 (Eastern Daylight Time),376935.90000009537,A,chimney,I,y,70,1,1816.4000000953674,375119.5,9013,WL,A,2.0
3,5.2159998416900635,learn,54784.00015830994,Mon Mar 31 2025 11:07:23 GMT-0400 (Eastern Daylight Time),377519.2000002861,A,chimneyenter,I,enter,568,1,2399.7000002861023,375119.5,9013,WL,A,2.0
3,5.849999904632568,learn,54150.00009536743,Mon Mar 31 2025 11:07:23 GMT-0400 (Eastern Daylight Time),378153.0,A,r,I,r,615,1,633.4000000953674,377519.59999990463,9013,WL,A,3.0
3,6.049999952316284,learn,53950.000047683716,Mon Mar 31 2025 11:07:23 GMT-0400 (Eastern Daylight Time),378353.0,A,ra,I,a,186,1,833.4000000953674,377519.59999990463,9013,WL,A,3.0
3,6.283999919891357,learn,53716.00008010864,Mon Mar 31 2025 11:07:23 GMT-0400 (Eastern Daylight Time),378586.30000019073,A,rat,I,t,210,1,1066.7000002861023,377519.59999990463,9013,WL,A,3.0
3,6.3999998569488525,learn,53600.00014305115,Mon Mar 31 2025 11:07:23 GMT-0400 (Eastern Daylight Time),378702.59999990463,A,ratt,I,t,103,1,1183.0,377519.59999990463,9013,WL,A,3.0
3,6.849999904632568,learn,53150.00009536743,Mon Mar 31 2025 11:07:23 GMT-0400 (Eastern Daylight Time),379152.90000009537,A,rattl,I,l,435,1,1633.3000001907349,377519.59999990463,9013,WL,A,3.0
3,6.949999809265137,learn,53050.00019073486,Mon Mar 31 2025 11:07:23 GMT-0400 (Eastern Daylight Time),379252.80000019073,A,rattle,I,e,81,1,1733.2000002861023,377519.59999990463,9013,WL,A,3.0
3,7.182999849319458,learn,52817.00015068054,Mon Mar 31 2025 11:07:23 GMT-0400 (Eastern Daylight Time),379485.80000019073,A,rattleenter,I,enter,213,1,1966.2000002861023,377519.59999990463,9013,WL,A,3.0
3,7.516999959945679,learn,52483.00004005432,Mon Mar 31 2025 11:07:23 GMT-0400 (Eastern Daylight Time),379819.7000002861,A,g,I,g,313,1,333.5,379486.2000002861,9013,WL,A,4.0
3,7.58299994468689,learn,52417.00005531311,Mon Mar 31 2025 11:07:23 GMT-0400 (Eastern Daylight Time),379886.2000002861,A,go,I,o,56,1,400.0,379486.2000002861,9013,WL,A,4.0
3,7.7829999923706055,learn,52217.000007629395,Mon Mar 31 2025 11:07:23 GMT-0400 (Eastern Daylight Time),380085.90000009537,A,gol,I,l,179,1,599.6999998092651,379486.2000002861,9013,WL,A,4.0
3,8.066999912261963,learn,51933.00008773804,Mon Mar 31 2025 11:07:23 GMT-0400 (Eastern Daylight Time),380369.7000002861,A,gold,I,d,270,1,883.5,379486.2000002861,9013,WL,A,4.0
3,8.649999856948853,learn,51350.00014305115,Mon Mar 31 2025 11:07:23 GMT-0400 (Eastern Daylight Time),380952.5,A,goldenter,I,enter,561,1,1466.2999997138977,379486.2000002861,9013,WL,A,4.0
3,9.699999809265137,learn,50300.00019073486,Mon Mar 31 2025 11:07:23 GMT-0400 (Eastern Daylight Time),382003.09999990463,A,b,I,b,1038,1,1050.2999997138977,380952.80000019073,9013,WL,A,5.0
3,9.783999919891357,learn,50216.00008010864,Mon Mar 31 2025 11:07:23 GMT-0400 (Eastern Daylight Time),382086.30000019073,A,bo,I,o,63,1,1133.5,380952.80000019073,9013,WL,A,5.0
3,9.949999809265137,learn,50050.00019073486,Mon Mar 31 2025 11:07:23 GMT-0400 (Eastern Daylight Time),382253.09999990463,A,boo,I,o,141,1,1300.2999997138977,380952.80000019073,9013,WL,A,5.0
3,10.0,learn,50000.0,Mon Mar 31 2025 11:07:23 GMT-0400 (Eastern Daylight Time),382302.30000019073,A,book,I,k,29,1,1349.5,380952.80000019073,9013,WL,A,5.0
3,11.315999984741211,learn,48684.00001525879,Mon Mar 31 2025 11:07:23 GMT-0400 (Eastern Daylight Time),383619.09999990463,A,bookenter,I,enter,1303,1,2666.2999997138977,380952.80000019073,9013,WL,A,5.0
3,11.682999849319458,learn,48317.00015068054,Mon Mar 31 2025 11:07:23 GMT-0400 (Eastern Daylight Time),383986.2000002861,A,f,I,f,355,1,366.7000002861023,383619.5,9013,WL,A,6.0
3,11.75,learn,48250.0,Mon Mar 31 2025 11:07:23 GMT-0400 (Eastern Daylight Time),384053.0,A,fl,I,l,49,1,433.5,383619.5,9013,WL,A,6.0
3,11.949999809265137,learn,48050.00019073486,Mon Mar 31 2025 11:07:23 GMT-0400 (Eastern Daylight Time),384252.80000019073,A,flo,I,o,167,1,633.3000001907349,383619.5,9013,WL,A,6.0
3,12.08299994468689,learn,47917.00005531311,Mon Mar 31 2025 11:07:23 GMT-0400 (Eastern Daylight Time),384386.2000002861,A,flow,I,w,117,1,766.7000002861023,383619.5,9013,WL,A,6.0
3,12.149999856948853,learn,47850.00014305115,Mon Mar 31 2025 11:07:23 GMT-0400 (Eastern Daylight Time),384452.7000002861,A,flowe,I,e,48,1,833.2000002861023,383619.5,9013,WL,A,6.0
3,12.366999864578247,learn,47633.00013542175,Mon Mar 31 2025 11:07:23 GMT-0400 (Eastern Daylight Time),384669.80000019073,A,flower,I,r,188,1,1050.3000001907349,383619.5,9013,WL,A,6.0
3,12.75,learn,47250.0,Mon Mar 31 2025 11:07:23 GMT-0400 (Eastern Daylight Time),385052.30000019073,A,flowerenter,I,enter,357,1,1432.8000001907349,383619.5,9013,WL,A,6.0
3,13.366999864578247,learn,46633.00013542175,Mon Mar 31 2025 11:07:23 GMT-0400 (Eastern Daylight Time),385669.7000002861,A,t,I,t,601,1,617.0,385052.7000002861,9013,WL,A,7.0
3,13.699999809265137,learn,46300.00019073486,Mon Mar 31 2025 11:07:23 GMT-0400 (Eastern Daylight Time),386003.0,A,tr,I,r,318,1,950.2999997138977,385052.7000002861,9013,WL,A,7.0
3,13.916999816894531,learn,46083.00018310547,Mon Mar 31 2025 11:07:23 GMT-0400 (Eastern Daylight Time),386219.59999990463,A,tra,I,a,192,1,1166.8999996185303,385052.7000002861,9013,WL,A,7.0
3,14.016000032424927,learn,45983.99996757507,Mon Mar 31 2025 11:07:23 GMT-0400 (Eastern Daylight Time),386319.2000002861,A,trai,I,i,86,1,1266.5,385052.7000002861,9013,WL,A,7.0
3,14.199999809265137,learn,45800.00019073486,Mon Mar 31 2025 11:07:23 GMT-0400 (Eastern Daylight Time),386503.0,A,train,I,n,163,1,1450.2999997138977,385052.7000002861,9013,WL,A,7.0
3,14.882999897003174,learn,45117.000102996826,Mon Mar 31 2025 11:07:23 GMT-0400 (Eastern Daylight Time),387185.80000019073,A,trainenter,I,enter,666,1,2133.0999999046326,385052.7000002861,9013,WL,A,7.0
3,16.116999864578247,learn,43883.00013542175,Mon Mar 31 2025 11:07:23 GMT-0400 (Eastern Daylight Time),388419.7000002861,A,r,I,r,1221,1,1233.5,387186.2000002861,9013,WL,A,8.0
3,16.23300004005432,learn,43766.99995994568,Mon Mar 31 2025 11:07:23 GMT-0400 (Eastern Daylight Time),388536.2000002861,A,ru,I,u,93,1,1350.0,387186.2000002861,9013,WL,A,8.0
3,16.43400001525879,learn,43565.99998474121,Mon Mar 31 2025 11:07:23 GMT-0400 (Eastern Daylight Time),388736.30000019073,A,rug,I,g,187,1,1550.0999999046326,387186.2000002861,9013,WL,A,8.0
3,16.91599988937378,learn,43084.00011062622,Mon Mar 31 2025 11:07:23 GMT-0400 (Eastern Daylight Time),389219.2000002861,A,rugenter,I,enter,466,1,2033.0,387186.2000002861,9013,WL,A,8.0
3,17.68400001525879,learn,42315.99998474121,Mon Mar 31 2025 11:07:23 GMT-0400 (Eastern Daylight Time),389986.30000019073,A,m,I,m,755,1,766.7000002861023,389219.59999990463,9013,WL,A,9.0
3,17.76699995994568,learn,42233.00004005432,Mon Mar 31 2025 11:07:23 GMT-0400 (Eastern Daylight Time),390069.7000002861,A,me,I,e,64,1,850.1000003814697,389219.59999990463,9013,WL,A,9.0
3,17.84999990463257,learn,42150.00009536743,Mon Mar 31 2025 11:07:23 GMT-0400 (Eastern Daylight Time),390152.7000002861,A,mea,I,a,57,1,933.1000003814697,389219.59999990463,9013,WL,A,9.0
3,18.0,learn,42000.0,Mon Mar 31 2025 11:07:23 GMT-0400 (Eastern Daylight Time),390303.0,A,mead,I,d,138,1,1083.4000000953674,389219.59999990463,9013,WL,A,9.0
3,18.149999856948853,learn,41850.00014305115,Mon Mar 31 2025 11:07:23 GMT-0400 (Eastern Daylight Time),390453.0,A,meado,I,o,125,1,1233.4000000953674,389219.59999990463,9013,WL,A,9.0
3,18.366999864578247,learn,41633.00013542175,Mon Mar 31 2025 11:07:23 GMT-0400 (Eastern Daylight Time),390669.80000019073,A,meadow,I,w,199,1,1450.2000002861023,389219.59999990463,9013,WL,A,9.0
3,19.115999937057495,learn,40884.000062942505,Mon Mar 31 2025 11:07:23 GMT-0400 (Eastern Daylight Time),391419.2000002861,A,meadowenter,I,enter,724,1,2199.6000003814697,389219.59999990463,9013,WL,A,9.0
3,24.049999952316284,learn,35950.000047683716,Mon Mar 31 2025 11:07:23 GMT-0400 (Eastern Daylight Time),396353.0,A,f,I,f,4923,1,4933.5,391419.5,9013,WL,A,10.0
3,24.16699981689453,learn,35833.00018310547,Mon Mar 31 2025 11:07:23 GMT-0400 (Eastern Daylight Time),396469.59999990463,A,fi,I,i,97,1,5050.099999904633,391419.5,9013,WL,A,10.0
3,24.34999990463257,learn,35650.00009536743,Mon Mar 31 2025 11:07:23 GMT-0400 (Eastern Daylight Time),396652.90000009537,A,fin,I,n,158,1,5233.400000095367,391419.5,9013,WL,A,10.0
3,24.467000007629395,learn,35532.999992370605,Mon Mar 31 2025 11:07:23 GMT-0400 (Eastern Daylight Time),396769.59999990463,A,fing,I,g,103,1,5350.099999904633,391419.5,9013,WL,A,10.0
3,24.699999809265137,learn,35300.00019073486,Mon Mar 31 2025 11:07:23 GMT-0400 (Eastern Daylight Time),397003.0,A,finge,I,e,202,1,5583.5,391419.5,9013,WL,A,10.0
3,24.75,learn,35250.0,Mon Mar 31 2025 11:07:23 GMT-0400 (Eastern Daylight Time),397052.40000009537,A,finger,I,r,22,1,5632.900000095367,391419.5,9013,WL,A,10.0
3,25.0,learn,35000.0,Mon Mar 31 2025 11:07:23 GMT-0400 (Eastern Daylight Time),397302.5,A,fingerenter,I,enter,232,1,5883.0,391419.5,9013,WL,A,10.0
3,25.366999864578247,learn,34633.00013542175,Mon Mar 31 2025 11:07:23 GMT-0400 (Eastern Daylight Time),397669.80000019073,A,s,I,s,351,1,366.80000019073486,397303.0,9013,WL,A,11.0
3,25.532999992370605,learn,34467.000007629395,Mon Mar 31 2025 11:07:23 GMT-0400 (Eastern Daylight Time),397836.0,A,sa,I,a,142,1,533.0,397303.0,9013,WL,A,11.0
3,25.632999897003174,learn,34367.000102996826,Mon Mar 31 2025 11:07:23 GMT-0400 (Eastern Daylight Time),397936.09999990463,A,sal,I,l,89,1,633.0999999046326,397303.0,9013,WL,A,11.0
3,25.83399987220764,learn,34166.00012779236,Mon Mar 31 2025 11:07:23 GMT-0400 (Eastern Daylight Time),398136.30000019073,A,salt,I,t,180,1,833.3000001907349,397303.0,9013,WL,A,11.0
3,26.09999990463257,learn,33900.00009536743,Mon Mar 31 2025 11:07:23 GMT-0400 (Eastern Daylight Time),398402.5,A,saltenter,I,enter,243,1,1099.5,397303.0,9013,WL,A,11.0
3,26.532999992370605,learn,33467.000007629395,Mon Mar 31 2025 11:07:23 GMT-0400 (Eastern Daylight Time),398836.2000002861,A,a,I,a,420,1,433.40000009536743,398402.80000019073,9013,WL,A,12.0
3,26.649999856948853,learn,33350.00014305115,Mon Mar 31 2025 11:07:23 GMT-0400 (Eastern Daylight Time),398953.0,A,ap,I,p,95,1,550.1999998092651,398402.80000019073,9013,WL,A,12.0
3,26.799999952316284,learn,33200.000047683716,Mon Mar 31 2025 11:07:23 GMT-0400 (Eastern Daylight Time),399102.80000019073,A,app,I,p,131,1,700.0,398402.80000019073,9013,WL,A,12.0
3,26.91699981689453,learn,33083.00018310547,Mon Mar 31 2025 11:07:23 GMT-0400 (Eastern Daylight Time),399219.59999990463,A,appl,I,l,99,1,816.7999997138977,398402.80000019073,9013,WL,A,12.0
3,27.182999849319458,learn,32817.00015068054,Mon Mar 31 2025 11:07:23 GMT-0400 (Eastern Daylight Time),399485.80000019073,A,apple,I,e,255,1,1083.0,398402.80000019073,9013,WL,A,12.0
3,27.699999809265137,learn,32300.000190734863,Mon Mar 31 2025 11:07:23 GMT-0400 (Eastern Daylight Time),400002.5,A,appleenter,I,enter,496,1,1599.6999998092651,398402.80000019073,9013,WL,A,12.0
3,35.31699991226196,learn,24683.000087738037,Mon Mar 31 2025 11:07:23 GMT-0400 (Eastern Daylight Time),407619.80000019073,A,m,I,m,7604,1,7617.0,400002.80000019073,9013,WL,A,13.0
3,35.48300004005432,learn,24516.99995994568,Mon Mar 31 2025 11:07:23 GMT-0400 (Eastern Daylight Time),407786.2000002861,A,me,I,e,137,1,7783.400000095367,400002.80000019073,9013,WL,A,13.0
3,35.549999952316284,learn,24450.000047683716,Mon Mar 31 2025 11:07:23 GMT-0400 (Eastern Daylight Time),407852.59999990463,A,mea,I,a,57,1,7849.799999713898,400002.80000019073,9013,WL,A,13.0
3,35.76699995994568,learn,24233.00004005432,Mon Mar 31 2025 11:07:23 GMT-0400 (Eastern Daylight Time),408069.7000002861,A,mead,I,d,200,1,8066.900000095367,400002.80000019073,9013,WL,A,13.0
3,35.93400001525879,learn,24065.99998474121,Mon Mar 31 2025 11:07:23 GMT-0400 (Eastern Daylight Time),408236.30000019073,A,meado,I,o,142,1,8233.5,400002.80000019073,9013,WL,A,13.0
3,36.23399996757507,learn,23766.000032424927,Mon Mar 31 2025 11:07:23 GMT-0400 (Eastern Daylight Time),408536.30000019073,A,meadow,I,w,272,1,8533.5,400002.80000019073,9013,WL,A,13.0
3,36.46599984169006,learn,23534.000158309937,Mon Mar 31 2025 11:07:23 GMT-0400 (Eastern Daylight Time),408769.2000002861,A,meadowenter,I,enter,217,1,8766.400000095367,400002.80000019073,9013,WL,A,13.0
3,36.76699995994568,learn,23233.00004005432,Mon Mar 31 2025 11:07:23 GMT-0400 (Eastern Daylight Time),409069.59999990463,A,l,I,l,293,1,300.0,408769.59999990463,9013,WL,A,14.0
3,36.94999980926514,learn,23050.000190734863,Mon Mar 31 2025 11:07:23 GMT-0400 (Eastern Daylight Time),409252.90000009537,A,lo,I,o,167,1,483.30000019073486,408769.59999990463,9013,WL,A,14.0
3,37.09999990463257,learn,22900.00009536743,Mon Mar 31 2025 11:07:23 GMT-0400 (Eastern Daylight Time),409402.80000019073,A,log,I,g,126,1,633.2000002861023,408769.59999990463,9013,WL,A,14.0
3,37.25,learn,22750.0,Mon Mar 31 2025 11:07:23 GMT-0400 (Eastern Daylight Time),409552.5,A,logenter,I,enter,127,1,782.9000000953674,408769.59999990463,9013,WL,A,14.0
3,39.967000007629395,learn,20032.999992370605,Mon Mar 31 2025 11:07:23 GMT-0400 (Eastern Daylight Time),412269.59999990463,A,t,I,t,2710,1,2716.7999997138977,409552.80000019073,9013,WL,A,15.0
3,40.18400001525879,learn,19815.99998474121,Mon Mar 31 2025 11:07:23 GMT-0400 (Eastern Daylight Time),412486.30000019073,A,tr,I,r,199,1,2933.5,409552.80000019073,9013,WL,A,15.0
3,40.36699986457825,learn,19633.000135421753,Mon Mar 31 2025 11:07:23 GMT-0400 (Eastern Daylight Time),412669.80000019073,A,tra,I,a,173,1,3117.0,409552.80000019073,9013,WL,A,15.0
3,40.41699981689453,learn,19583.00018310547,Mon Mar 31 2025 11:07:23 GMT-0400 (Eastern Daylight Time),412719.59999990463,A,trai,I,i,39,1,3166.7999997138977,409552.80000019073,9013,WL,A,15.0
3,40.549999952316284,learn,19450.000047683716,Mon Mar 31 2025 11:07:23 GMT-0400 (Eastern Daylight Time),412852.80000019073,A,train,I,n,109,1,3300.0,409552.80000019073,9013,WL,A,15.0
3,40.84999990463257,learn,19150.00009536743,Mon Mar 31 2025 11:07:23 GMT-0400 (Eastern Daylight Time),413152.40000009537,A,trainenter,I,enter,285,1,3599.5999999046326,409552.80000019073,9013,WL,A,15.0
4,1.3499999046325684,learn,58650.00009536743,Mon Mar 31 2025 11:07:23 GMT-0400 (Eastern Daylight Time),481636.09999990463,A,b,I,b,1335,1,1349.6999998092651,480286.40000009537,9013,WL,A,1.0
4,1.5499999523162842,learn,58450.000047683716,Mon Mar 31 2025 11:07:23 GMT-0400 (Eastern Daylight Time),481835.59999990463,A,bu,I,u,172,1,1549.1999998092651,480286.40000009537,9013,WL,A,1.0
4,1.8499999046325684,learn,58150.00009536743,Mon Mar 31 2025 11:07:23 GMT-0400 (Eastern Daylight Time),482136.30000019073,A,but,I,t,282,1,1849.9000000953674,480286.40000009537,9013,WL,A,1.0
4,2.0169999599456787,learn,57983.00004005432,Mon Mar 31 2025 11:07:23 GMT-0400 (Eastern Daylight Time),482302.7000002861,A,butt,I,t,153,1,2016.3000001907349,480286.40000009537,9013,WL,A,1.0
4,2.0829999446868896,learn,57917.00005531311,Mon Mar 31 2025 11:07:23 GMT-0400 (Eastern Daylight Time),482369.0,A,butto,I,o,52,1,2082.5999999046326,480286.40000009537,9013,WL,A,1.0
4,2.316999912261963,learn,57683.00008773804,Mon Mar 31 2025 11:07:23 GMT-0400 (Eastern Daylight Time),482602.90000009537,A,button,I,n,212,1,2316.5,480286.40000009537,9013,WL,A,1.0
4,2.8499999046325684,learn,57150.00009536743,Mon Mar 31 2025 11:07:23 GMT-0400 (Eastern Daylight Time),483135.7000002861,A,buttonenter,I,enter,519,1,2849.300000190735,480286.40000009537,9013,WL,A,1.0
4,3.5839998722076416,learn,56416.00012779236,Mon Mar 31 2025 11:07:23 GMT-0400 (Eastern Daylight Time),483869.5,A,l,I,l,711,1,733.4000000953674,483136.09999990463,9013,WL,A,2.0
4,3.75,learn,56250.0,Mon Mar 31 2025 11:07:23 GMT-0400 (Eastern Daylight Time),484036.2000002861,A,lo,I,o,150,1,900.1000003814697,483136.09999990463,9013,WL,A,2.0
4,4.033999919891357,learn,55966.00008010864,Mon Mar 31 2025 11:07:23 GMT-0400 (Eastern Daylight Time),484319.5,A,log,I,g,271,1,1183.4000000953674,483136.09999990463,9013,WL,A,2.0
4,4.366999864578247,learn,55633.00013542175,Mon Mar 31 2025 11:07:23 GMT-0400 (Eastern Daylight Time),484653.2000002861,A,logenter,I,enter,307,1,1517.1000003814697,483136.09999990463,9013,WL,A,2.0
4,4.699999809265137,learn,55300.00019073486,Mon Mar 31 2025 11:07:23 GMT-0400 (Eastern Daylight Time),484986.09999990463,A,r,I,r,314,1,332.59999990463257,484653.5,9013,WL,A,3.0
4,5.016999959945679,learn,54983.00004005432,Mon Mar 31 2025 11:07:23 GMT-0400 (Eastern Daylight Time),485302.80000019073,A,ra,I,a,297,1,649.3000001907349,484653.5,9013,WL,A,3.0
4,5.449999809265137,learn,54550.00019073486,Mon Mar 31 2025 11:07:23 GMT-0400 (Eastern Daylight Time),485735.90000009537,A,rat,I,t,411,1,1082.4000000953674,484653.5,9013,WL,A,3.0
4,5.633999824523926,learn,54366.000175476074,Mon Mar 31 2025 11:07:23 GMT-0400 (Eastern Daylight Time),485919.40000009537,A,ratt,I,t,172,1,1265.9000000953674,484653.5,9013,WL,A,3.0
4,5.75,learn,54250.0,Mon Mar 31 2025 11:07:23 GMT-0400 (Eastern Daylight Time),486036.09999990463,A,rattl,I,l,100,1,1382.5999999046326,484653.5,9013,WL,A,3.0
4,5.950999975204468,learn,54049.00002479553,Mon Mar 31 2025 11:07:23 GMT-0400 (Eastern Daylight Time),486236.30000019073,A,rattle,I,e,174,1,1582.8000001907349,484653.5,9013,WL,A,3.0
4,6.1499998569488525,learn,53850.00014305115,Mon Mar 31 2025 11:07:23 GMT-0400 (Eastern Daylight Time),486435.7000002861,A,rattleenter,I,enter,181,1,1782.2000002861023,484653.5,9013,WL,A,3.0
4,6.583999872207642,learn,53416.00012779236,Mon Mar 31 2025 11:07:23 GMT-0400 (Eastern Daylight Time),486869.5,A,k,I,k,418,1,433.40000009536743,486436.09999990463,9013,WL,A,4.0
4,6.68399977684021,learn,53316.00022315979,Mon Mar 31 2025 11:07:23 GMT-0400 (Eastern Daylight Time),486969.40000009537,A,ke,I,e,78,1,533.3000001907349,486436.09999990463,9013,WL,A,4.0
4,6.983999967575073,learn,53016.00003242493,Mon Mar 31 2025 11:07:23 GMT-0400 (Eastern Daylight Time),487269.59999990463,A,key,I,y,274,1,833.5,486436.09999990463,9013,WL,A,4.0
4,7.449999809265137,learn,52550.00019073486,Mon Mar 31 2025 11:07:23 GMT-0400 (Eastern Daylight Time),487735.59999990463,A,keyenter,I,enter,445,1,1299.5,486436.09999990463,9013,WL,A,4.0
4,7.949999809265137,learn,52050.00019073486,Mon Mar 31 2025 11:07:23 GMT-0400 (Eastern Daylight Time),488236.09999990463,A,g,I,g,479,1,500.09999990463257,487736.0,9013,WL,A,5.0
4,8.032999992370605,learn,51967.000007629395,Mon Mar 31 2025 11:07:23 GMT-0400 (Eastern Daylight Time),488319.09999990463,A,go,I,o,70,1,583.0999999046326,487736.0,9013,WL,A,5.0
4,8.199999809265137,learn,51800.00019073486,Mon Mar 31 2025 11:07:23 GMT-0400 (Eastern Daylight Time),488486.09999990463,A,gol,I,l,148,1,750.0999999046326,487736.0,9013,WL,A,5.0
4,8.466999769210815,learn,51533.000230789185,Mon Mar 31 2025 11:07:23 GMT-0400 (Eastern Daylight Time),488752.90000009537,A,gold,I,d,253,1,1016.9000000953674,487736.0,9013,WL,A,5.0
4,8.916999816894531,learn,51083.00018310547,Mon Mar 31 2025 11:07:23 GMT-0400 (Eastern Daylight Time),489202.30000019073,A,goldenter,I,enter,433,1,1466.3000001907349,487736.0,9013,WL,A,5.0
4,9.733999967575073,learn,50266.00003242493,Mon Mar 31 2025 11:07:23 GMT-0400 (Eastern Daylight Time),490019.5,A,m,I,m,804,1,816.7999997138977,489202.7000002861,9013,WL,A,6.0
4,9.833999872207642,learn,50166.00012779236,Mon Mar 31 2025 11:07:23 GMT-0400 (Eastern Daylight Time),490119.30000019073,A,me,I,e,80,1,916.5999999046326,489202.7000002861,9013,WL,A,6.0
4,9.916999816894531,learn,50083.00018310547,Mon Mar 31 2025 11:07:23 GMT-0400 (Eastern Daylight Time),490202.7000002861,A,mea,I,a,60,1,1000.0,489202.7000002861,9013,WL,A,6.0
4,10.066999912261963,learn,49933.00008773804,Mon Mar 31 2025 11:07:23 GMT-0400 (Eastern Daylight Time),490352.7000002861,A,mead,I,d,129,1,1150.0,489202.7000002861,9013,WL,A,6.0
4,10.233999967575073,learn,49766.00003242493,Mon Mar 31 2025 11:07:23 GMT-0400 (Eastern Daylight Time),490519.30000019073,A,meado,I,o,147,1,1316.5999999046326,489202.7000002861,9013,WL,A,6.0
4,10.466999769210815,learn,49533.000230789185,Mon Mar 31 2025 11:07:23 GMT-0400 (Eastern Daylight Time),490752.80000019073,A,meadow,I,w,220,1,1550.0999999046326,489202.7000002861,9013,WL,A,6.0
4,10.982999801635742,learn,49017.00019836426,Mon Mar 31 2025 11:07:23 GMT-0400 (Eastern Daylight Time),491269.09999990463,A,meadowenter,I,enter,498,1,2066.3999996185303,489202.7000002861,9013,WL,A,6.0
4,11.516999959945679,learn,48483.00004005432,Mon Mar 31 2025 11:07:23 GMT-0400 (Eastern Daylight Time),491802.80000019073,A,t,I,t,512,1,533.4000000953674,491269.40000009537,9013,WL,A,7.0
4,11.983999967575073,learn,48016.00003242493,Mon Mar 31 2025 11:07:23 GMT-0400 (Eastern Daylight Time),492269.59999990463,A,tr,I,r,440,1,1000.1999998092651,491269.40000009537,9013,WL,A,7.0
4,12.166999816894531,learn,47833.00018310547,Mon Mar 31 2025 11:07:23 GMT-0400 (Eastern Daylight Time),492452.80000019073,A,tra,I,a,165,1,1183.4000000953674,491269.40000009537,9013,WL,A,7.0
4,12.232999801635742,learn,47767.00019836426,Mon Mar 31 2025 11:07:23 GMT-0400 (Eastern Daylight Time),492519.2000002861,A,trai,I,i,46,1,1249.8000001907349,491269.40000009537,9013,WL,A,7.0
4,12.383999824523926,learn,47616.000175476074,Mon Mar 31 2025 11:07:23 GMT-0400 (Eastern Daylight Time),492669.5,A,train,I,n,141,1,1400.0999999046326,491269.40000009537,9013,WL,A,7.0
4,13.049999952316284,learn,46950.000047683716,Mon Mar 31 2025 11:07:23 GMT-0400 (Eastern Daylight Time),493335.7000002861,A,trainenter,I,enter,643,1,2066.300000190735,491269.40000009537,9013,WL,A,7.0
4,13.75,learn,46250.0,Mon Mar 31 2025 11:07:23 GMT-0400 (Eastern Daylight Time),494036.09999990463,A,b,I,b,687,1,700.0,493336.09999990463,9013,WL,A,8.0
4,13.883999824523926,learn,46116.000175476074,Mon Mar 31 2025 11:07:23 GMT-0400 (Eastern Daylight Time),494169.5,A,bo,I,o,112,1,833.4000000953674,493336.09999990463,9013,WL,A,8.0
4,14.049999952316284,learn,45950.000047683716,Mon Mar 31 2025 11:07:23 GMT-0400 (Eastern Daylight Time),494336.09999990463,A,boo,I,o,154,1,1000.0,493336.09999990463,9013,WL,A,8.0
4,14.099999904632568,learn,45900.00009536743,Mon Mar 31 2025 11:07:23 GMT-0400 (Eastern Daylight Time),494385.7000002861,A,book,I,k,27,1,1049.6000003814697,493336.09999990463,9013,WL,A,8.0
4,14.649999856948853,learn,45350.00014305115,Mon Mar 31 2025 11:07:23 GMT-0400 (Eastern Daylight Time),494935.5,A,bookenter,I,enter,531,1,1599.4000000953674,493336.09999990463,9013,WL,A,8.0
4,15.233999967575073,learn,44766.00003242493,Mon Mar 31 2025 11:07:23 GMT-0400 (Eastern Daylight Time),495519.40000009537,A,f,I,f,575,1,583.5,494935.90000009537,9013,WL,A,9.0
4,15.316999912261963,learn,44683.00008773804,Mon Mar 31 2025 11:07:23 GMT-0400 (Eastern Daylight Time),495602.59999990463,A,fl,I,l,67,1,666.6999998092651,494935.90000009537,9013,WL,A,9.0
4,15.483999967575073,learn,44516.00003242493,Mon Mar 31 2025 11:07:23 GMT-0400 (Eastern Daylight Time),495769.40000009537,A,flo,I,o,142,1,833.5,494935.90000009537,9013,WL,A,9.0
4,15.599999904632568,learn,44400.00009536743,Mon Mar 31 2025 11:07:23 GMT-0400 (Eastern Daylight Time),495885.7000002861,A,flow,I,w,104,1,949.8000001907349,494935.90000009537,9013,WL,A,9.0
4,15.649999856948853,learn,44350.00014305115,Mon Mar 31 2025 11:07:23 GMT-0400 (Eastern Daylight Time),495936.0,A,flowe,I,e,30,1,1000.0999999046326,494935.90000009537,9013,WL,A,9.0
4,15.883999824523926,learn,44116.000175476074,Mon Mar 31 2025 11:07:23 GMT-0400 (Eastern Daylight Time),496169.5,A,flower,I,r,206,1,1233.5999999046326,494935.90000009537,9013,WL,A,9.0
4,16.882999897003174,learn,43117.000102996826,Mon Mar 31 2025 11:07:23 GMT-0400 (Eastern Daylight Time),497169.09999990463,A,flowerenter,I,enter,985,1,2233.199999809265,494935.90000009537,9013,WL,A,9.0
4,17.649999856948853,learn,42350.00014305115,Mon Mar 31 2025 11:07:23 GMT-0400 (Eastern Daylight Time),497936.2000002861,A,r,I,r,758,1,766.8000001907349,497169.40000009537,9013,WL,A,10.0
4,17.799999952316284,learn,42200.000047683716,Mon Mar 31 2025 11:07:23 GMT-0400 (Eastern Daylight Time),498086.0,A,ru,I,u,130,1,916.5999999046326,497169.40000009537,9013,WL,A,10.0
4,17.966999769210815,learn,42033.000230789185,Mon Mar 31 2025 11:07:23 GMT-0400 (Eastern Daylight Time),498252.7000002861,A,rug,I,g,133,1,1083.3000001907349,497169.40000009537,9013,WL,A,10.0
4,18.26799988746643,learn,41732.00011253357,Mon Mar 31 2025 11:07:23 GMT-0400 (Eastern Daylight Time),498553.40000009537,A,rugenter,I,enter,278,1,1384.0,497169.40000009537,9013,WL,A,10.0
4,20.033999919891357,learn,39966.00008010864,Mon Mar 31 2025 11:07:23 GMT-0400 (Eastern Daylight Time),500319.40000009537,A,f,I,f,1757,1,1765.6999998092651,498553.7000002861,9013,WL,A,11.0
4,20.133999824523926,learn,39866.000175476074,Mon Mar 31 2025 11:07:23 GMT-0400 (Eastern Daylight Time),500419.59999990463,A,fi,I,i,83,1,1865.8999996185303,498553.7000002861,9013,WL,A,11.0
4,20.316999912261963,learn,39683.00008773804,Mon Mar 31 2025 11:07:23 GMT-0400 (Eastern Daylight Time),500602.80000019073,A,fin,I,n,152,1,2049.0999999046326,498553.7000002861,9013,WL,A,11.0
4,20.399999856948853,learn,39600.00014305115,Mon Mar 31 2025 11:07:23 GMT-0400 (Eastern Daylight Time),500685.40000009537,A,fing,I,g,73,1,2131.699999809265,498553.7000002861,9013,WL,A,11.0
4,20.616999864578247,learn,39383.00013542175,Mon Mar 31 2025 11:07:23 GMT-0400 (Eastern Daylight Time),500902.80000019073,A,finge,I,e,198,1,2349.0999999046326,498553.7000002861,9013,WL,A,11.0
4,20.682999849319458,learn,39317.00015068054,Mon Mar 31 2025 11:07:23 GMT-0400 (Eastern Daylight Time),500969.0,A,finger,I,r,35,1,2415.2999997138977,498553.7000002861,9013,WL,A,11.0
4,20.899999856948853,learn,39100.00014305115,Mon Mar 31 2025 11:07:23 GMT-0400 (Eastern Daylight Time),501185.7000002861,A,fingerenter,I,enter,204,1,2632.0,498553.7000002861,9013,WL,A,11.0
4,21.199999809265137,learn,38800.00019073486,Mon Mar 31 2025 11:07:23 GMT-0400 (Eastern Daylight Time),501485.7000002861,A,s,I,s,292,1,299.5,501186.2000002861,9013,WL,A,12.0
4,21.366999864578247,learn,38633.00013542175,Mon Mar 31 2025 11:07:23 GMT-0400 (Eastern Daylight Time),501652.80000019073,A,sa,I,a,149,1,466.59999990463257,501186.2000002861,9013,WL,A,12.0
4,21.450999975204468,learn,38549.00002479553,Mon Mar 31 2025 11:07:23 GMT-0400 (Eastern Daylight Time),501736.30000019073,A,sal,I,l,62,1,550.0999999046326,501186.2000002861,9013,WL,A,12.0
4,21.649999856948853,learn,38350.00014305115,Mon Mar 31 2025 11:07:23 GMT-0400 (Eastern Daylight Time),501935.90000009537,A,salt,I,t,186,1,749.6999998092651,501186.2000002861,9013,WL,A,12.0
4,21.75,learn,38250.0,Mon Mar 31 2025 11:07:23 GMT-0400 (Eastern Daylight Time),502035.59999990463,A,saltenter,I,enter,75,1,849.3999996185303,501186.2000002861,9013,WL,A,12.0
4,22.233999967575073,learn,37766.00003242493,Mon Mar 31 2025 11:07:23 GMT-0400 (Eastern Daylight Time),502519.5,A,a,I,a,466,1,483.40000009536743,502036.09999990463,9013,WL,A,13.0
4,22.299999952316284,learn,37700.000047683716,Mon Mar 31 2025 11:07:23 GMT-0400 (Eastern Daylight Time),502585.7000002861,A,ap,I,p,43,1,549.6000003814697,502036.09999990463,9013,WL,A,13.0
4,22.51699995994568,learn,37483.00004005432,Mon Mar 31 2025 11:07:23 GMT-0400 (Eastern Daylight Time),502802.7000002861,A,app,I,p,201,1,766.6000003814697,502036.09999990463,9013,WL,A,13.0
4,22.75,learn,37250.0,Mon Mar 31 2025 11:07:23 GMT-0400 (Eastern Daylight Time),503036.0,A,appl,I,l,207,1,999.9000000953674,502036.09999990463,9013,WL,A,13.0
4,22.883999824523926,learn,37116.000175476074,Mon Mar 31 2025 11:07:23 GMT-0400 (Eastern Daylight Time),503169.40000009537,A,apple,I,e,120,1,1133.3000001907349,502036.09999990463,9013,WL,A,13.0
4,23.032999992370605,learn,36967.000007629395,Mon Mar 31 2025 11:07:23 GMT-0400 (Eastern Daylight Time),503319.0,A,appleenter,I,enter,128,1,1282.9000000953674,502036.09999990463,9013,WL,A,13.0
4,27.316999912261963,learn,32683.000087738037,Mon Mar 31 2025 11:07:23 GMT-0400 (Eastern Daylight Time),507602.80000019073,A,c,I,c,4271,1,4283.400000095367,503319.40000009537,9013,WL,A,14.0
4,27.483999967575073,learn,32516.000032424927,Mon Mar 31 2025 11:07:23 GMT-0400 (Eastern Daylight Time),507769.5,A,ch,I,h,145,1,4450.099999904633,503319.40000009537,9013,WL,A,14.0
4,27.68399977684021,learn,32316.00022315979,Mon Mar 31 2025 11:07:23 GMT-0400 (Eastern Daylight Time),507969.5,A,chi,I,i,184,1,4650.099999904633,503319.40000009537,9013,WL,A,14.0
4,27.966999769210815,learn,32033.000230789185,Mon Mar 31 2025 11:07:23 GMT-0400 (Eastern Daylight Time),508252.90000009537,A,chim,I,m,257,1,4933.5,503319.40000009537,9013,WL,A,14.0
4,28.383999824523926,learn,31616.000175476074,Mon Mar 31 2025 11:07:23 GMT-0400 (Eastern Daylight Time),508669.40000009537,A,chimn,I,n,390,1,5350.0,503319.40000009537,9013,WL,A,14.0
4,28.51699995994568,learn,31483.00004005432,Mon Mar 31 2025 11:07:23 GMT-0400 (Eastern Daylight Time),508802.90000009537,A,chimne,I,e,116,1,5483.5,503319.40000009537,9013,WL,A,14.0
4,28.66699981689453,learn,31333.00018310547,Mon Mar 31 2025 11:07:23 GMT-0400 (Eastern Daylight Time),508952.80000019073,A,chimney,I,y,127,1,5633.400000095367,503319.40000009537,9013,WL,A,14.0
4,29.41599988937378,learn,30584.00011062622,Mon Mar 31 2025 11:07:23 GMT-0400 (Eastern Daylight Time),509702.2000002861,A,chimneyenter,I,enter,722,1,6382.800000190735,503319.40000009537,9013,WL,A,14.0
4,33.44999980926514,learn,26550.000190734863,Mon Mar 31 2025 11:07:23 GMT-0400 (Eastern Daylight Time),513736.2000002861,A,f,I,f,4016,1,4033.7000002861023,509702.5,9013,WL,A,15.0
4,33.51699995994568,learn,26483.00004005432,Mon Mar 31 2025 11:07:23 GMT-0400 (Eastern Daylight Time),513802.40000009537,A,fl,I,l,41,1,4099.900000095367,509702.5,9013,WL,A,15.0
4,33.68399977684021,learn,26316.00022315979,Mon Mar 31 2025 11:07:23 GMT-0400 (Eastern Daylight Time),513969.5,A,flo,I,o,155,1,4267.0,509702.5,9013,WL,A,15.0
4,33.799999952316284,learn,26200.000047683716,Mon Mar 31 2025 11:07:23 GMT-0400 (Eastern Daylight Time),514085.7000002861,A,flow,I,w,90,1,4383.200000286102,509702.5,9013,WL,A,15.0
4,33.83299994468689,learn,26167.00005531311,Mon Mar 31 2025 11:07:23 GMT-0400 (Eastern Daylight Time),514119.2000002861,A,flowe,I,e,14,1,4416.700000286102,509702.5,9013,WL,A,15.0
4,34.03399991989136,learn,25966.000080108643,Mon Mar 31 2025 11:07:23 GMT-0400 (Eastern Daylight Time),514319.40000009537,A,flower,I,r,181,1,4616.900000095367,509702.5,9013,WL,A,15.0
4,34.19999980926514,learn,25800.000190734863,Mon Mar 31 2025 11:07:23 GMT-0400 (Eastern Daylight Time),514485.7000002861,A,flowerenter,I,enter,139,1,4783.200000286102,509702.5,9013,WL,A,15.0
5,0.9000000953674316,learn,60000.0,Mon Mar 31 2025 11:07:23 GMT-0400 (Eastern Daylight Time),583286.0,A,b,I,b,882,1,899.7999997138977,582386.2000002861,9013,WL,A,1.0
5,0.9830000400543213,learn,60000.0,Mon Mar 31 2025 11:07:23 GMT-0400 (Eastern Daylight Time),583368.7000002861,A,bo,I,o,61,1,982.5,582386.2000002861,9013,WL,A,1.0
5,1.1500000953674316,learn,60000.0,Mon Mar 31 2025 11:07:23 GMT-0400 (Eastern Daylight Time),583535.3000001907,A,boo,I,o,157,1,1149.0999999046326,582386.2000002861,9013,WL,A,1.0
5,1.25,learn,60000.0,Mon Mar 31 2025 11:07:23 GMT-0400 (Eastern Daylight Time),583636.0999999046,A,book,I,k,88,1,1249.8999996185303,582386.2000002861,9013,WL,A,1.0
5,1.9159998893737793,learn,60000.0,Mon Mar 31 2025 11:07:23 GMT-0400 (Eastern Daylight Time),584302.0999999046,A,bookenter,I,enter,647,1,1915.8999996185303,582386.2000002861,9013,WL,A,1.0
5,2.366999864578247,learn,60000.0,Mon Mar 31 2025 11:07:23 GMT-0400 (Eastern Daylight Time),584752.8000001907,A,f,I,f,439,1,450.40000009536743,584302.4000000954,9013,WL,A,2.0
5,2.4670000076293945,learn,60000.0,Mon Mar 31 2025 11:07:23 GMT-0400 (Eastern Daylight Time),584853.0,A,fl,I,l,82,1,550.5999999046326,584302.4000000954,9013,WL,A,2.0
5,2.6500000953674316,learn,60000.0,Mon Mar 31 2025 11:07:23 GMT-0400 (Eastern Daylight Time),585036.0,A,flo,I,o,157,1,733.5999999046326,584302.4000000954,9013,WL,A,2.0
5,2.9000000953674316,learn,60000.0,Mon Mar 31 2025 11:07:23 GMT-0400 (Eastern Daylight Time),585286.0,A,floe,I,e,232,1,983.5999999046326,584302.4000000954,9013,WL,A,2.0
5,3.8339998722076416,learn,60000.0,Mon Mar 31 2025 11:07:23 GMT-0400 (Eastern Daylight Time),586219.5,A,flo,I,backspace,910,1,1917.0999999046326,584302.4000000954,9013,WL,A,2.0
5,3.9670000076293945,learn,60000.0,Mon Mar 31 2025 11:07:23 GMT-0400 (Eastern Daylight Time),586352.7000002861,A,flow,I,w,120,1,2050.300000190735,584302.4000000954,9013,WL,A,2.0
5,4.016000032424927,learn,60000.0,Mon Mar 31 2025 11:07:23 GMT-0400 (Eastern Daylight Time),586402.0,A,flowe,I,e,33,1,2099.5999999046326,584302.4000000954,9013,WL,A,2.0
5,4.25,learn,60000.0,Mon Mar 31 2025 11:07:23 GMT-0400 (Eastern Daylight Time),586636.0999999046,A,flower,I,r,212,1,2333.699999809265,584302.4000000954,9013,WL,A,2.0
5,5.2170000076293945,learn,60000.0,Mon Mar 31 2025 11:07:23 GMT-0400 (Eastern Daylight Time),587602.2000002861,A,flowerenter,I,enter,950,1,3299.800000190735,584302.4000000954,9013,WL,A,2.0
5,5.799999952316284,learn,60000.0,Mon Mar 31 2025 11:07:23 GMT-0400 (Eastern Daylight Time),588186.2000002861,A,t,I,t,564,1,583.6000003814697,587602.5999999046,9013,WL,A,3.0
5,6.0,learn,60000.0,Mon Mar 31 2025 11:07:23 GMT-0400 (Eastern Daylight Time),588385.9000000954,A,tr,I,r,185,1,783.3000001907349,587602.5999999046,9013,WL,A,3.0
5,6.200000047683716,learn,60000.0,Mon Mar 31 2025 11:07:23 GMT-0400 (Eastern Daylight Time),588586.0,A,tra,I,a,170,1,983.4000000953674,587602.5999999046,9013,WL,A,3.0
5,6.299999952316284,learn,60000.0,Mon Mar 31 2025 11:07:23 GMT-0400 (Eastern Daylight Time),588685.5999999046,A,trai,I,i,82,1,1083.0,587602.5999999046,9013,WL,A,3.0
5,6.483999967575073,learn,60000.0,Mon Mar 31 2025 11:07:23 GMT-0400 (Eastern Daylight Time),588869.3000001907,A,train,I,n,166,1,1266.7000002861023,587602.5999999046,9013,WL,A,3.0
5,7.016000032424927,learn,60000.0,Mon Mar 31 2025 11:07:23 GMT-0400 (Eastern Daylight Time),589402.0999999046,A,trainenter,I,enter,508,1,1799.5,587602.5999999046,9013,WL,A,3.0
5,7.400000095367432,learn,60000.0,Mon Mar 31 2025 11:07:23 GMT-0400 (Eastern Daylight Time),589786.0,A,r,I,r,363,1,383.5,589402.5,9013,WL,A,4.0
5,7.4670000076293945,learn,60000.0,Mon Mar 31 2025 11:07:23 GMT-0400 (Eastern Daylight Time),589852.4000000954,A,ru,I,u,56,1,449.90000009536743,589402.5,9013,WL,A,4.0
5,7.700000047683716,learn,60000.0,Mon Mar 31 2025 11:07:23 GMT-0400 (Eastern Daylight Time),590086.2000002861,A,rug,I,g,217,1,683.7000002861023,589402.5,9013,WL,A,4.0
5,8.16599988937378,learn,60000.0,Mon Mar 31 2025 11:07:23 GMT-0400 (Eastern Daylight Time),590552.2000002861,A,rugenter,I,enter,444,1,1149.7000002861023,589402.5,9013,WL,A,4.0
5,9.116999864578247,learn,60000.0,Mon Mar 31 2025 11:07:23 GMT-0400 (Eastern Daylight Time),591502.5999999046,A,m,I,m,942,1,950.0999999046326,590552.5,9013,WL,A,5.0
5,9.217000007629395,learn,60000.0,Mon Mar 31 2025 11:07:23 GMT-0400 (Eastern Daylight Time),591602.7000002861,A,me,I,e,85,1,1050.2000002861023,590552.5,9013,WL,A,5.0
5,9.299999952316284,learn,60000.0,Mon Mar 31 2025 11:07:23 GMT-0400 (Eastern Daylight Time),591685.4000000954,A,mea,I,a,55,1,1132.9000000953674,590552.5,9013,WL,A,5.0
5,9.467000007629395,learn,60000.0,Mon Mar 31 2025 11:07:23 GMT-0400 (Eastern Daylight Time),591852.8000001907,A,mead,I,d,144,1,1300.3000001907349,590552.5,9013,WL,A,5.0
5,9.58299994468689,learn,60000.0,Mon Mar 31 2025 11:07:23 GMT-0400 (Eastern Daylight Time),591969.0999999046,A,meado,I,o,93,1,1416.5999999046326,590552.5,9013,WL,A,5.0
5,9.783999919891357,learn,60000.0,Mon Mar 31 2025 11:07:23 GMT-0400 (Eastern Daylight Time),592169.7000002861,A,meadow,I,w,173,1,1617.2000002861023,590552.5,9013,WL,A,5.0
5,10.16599988937378,learn,60000.0,Mon Mar 31 2025 11:07:23 GMT-0400 (Eastern Daylight Time),592552.0999999046,A,meadowenter,I,enter,361,1,1999.5999999046326,590552.5,9013,WL,A,5.0
5,11.533999919891357,learn,60000.0,Mon Mar 31 2025 11:07:23 GMT-0400 (Eastern Daylight Time),593919.3000001907,A,f,I,f,1358,1,1366.9000000953674,592552.4000000954,9013,WL,A,6.0
5,11.616999864578247,learn,60000.0,Mon Mar 31 2025 11:07:23 GMT-0400 (Eastern Daylight Time),594002.3000001907,A,fi,I,i,64,1,1449.9000000953674,592552.4000000954,9013,WL,A,6.0
5,11.816999912261963,learn,60000.0,Mon Mar 31 2025 11:07:23 GMT-0400 (Eastern Daylight Time),594202.5999999046,A,fin,I,n,179,1,1650.1999998092651,592552.4000000954,9013,WL,A,6.0
5,11.950000047683716,learn,60000.0,Mon Mar 31 2025 11:07:23 GMT-0400 (Eastern Daylight Time),594335.8000001907,A,fing,I,g,121,1,1783.4000000953674,592552.4000000954,9013,WL,A,6.0
5,12.16700005531311,learn,60000.0,Mon Mar 31 2025 11:07:23 GMT-0400 (Eastern Daylight Time),594552.5999999046,A,finge,I,e,196,1,2000.1999998092651,592552.4000000954,9013,WL,A,6.0
5,12.188999891281128,learn,60000.0,Mon Mar 31 2025 11:07:23 GMT-0400 (Eastern Daylight Time),594574.9000000954,A,finger,I,r,1,1,2022.5,592552.4000000954,9013,WL,A,6.0
5,12.450000047683716,learn,60000.0,Mon Mar 31 2025 11:07:23 GMT-0400 (Eastern Daylight Time),594835.5999999046,A,fingerenter,I,enter,240,1,2283.199999809265,592552.4000000954,9013,WL,A,6.0
5,12.849999904632568,learn,60000.0,Mon Mar 31 2025 11:07:23 GMT-0400 (Eastern Daylight Time),595236.0999999046,A,a,I,a,387,1,400.19999980926514,594835.9000000954,9013,WL,A,7.0
5,12.950000047683716,learn,60000.0,Mon Mar 31 2025 11:07:23 GMT-0400 (Eastern Daylight Time),595335.9000000954,A,ap,I,p,79,1,500.0,594835.9000000954,9013,WL,A,7.0
5,13.134000062942505,learn,60000.0,Mon Mar 31 2025 11:07:23 GMT-0400 (Eastern Daylight Time),595519.3000001907,A,app,I,p,165,1,683.4000000953674,594835.9000000954,9013,WL,A,7.0
5,13.266999959945679,learn,60000.0,Mon Mar 31 2025 11:07:23 GMT-0400 (Eastern Daylight Time),595652.7000002861,A,appl,I,l,115,1,816.8000001907349,594835.9000000954,9013,WL,A,7.0
5,13.400000095367432,learn,60000.0,Mon Mar 31 2025 11:07:23 GMT-0400 (Eastern Daylight Time),595785.9000000954,A,apple,I,e,111,1,950.0,594835.9000000954,9013,WL,A,7.0
5,13.565999984741211,learn,60000.0,Mon Mar 31 2025 11:07:23 GMT-0400 (Eastern Daylight Time),595952.2000002861,A,appleenter,I,enter,152,1,1116.3000001907349,594835.9000000954,9013,WL,A,7.0
5,13.849999904632568,learn,60000.0,Mon Mar 31 2025 11:07:23 GMT-0400 (Eastern Daylight Time),596236.0,A,s,I,s,261,1,283.40000009536743,595952.5999999046,9013,WL,A,8.0
5,13.983999967575073,learn,60000.0,Mon Mar 31 2025 11:07:23 GMT-0400 (Eastern Daylight Time),596369.4000000954,A,sa,I,a,119,1,416.80000019073486,595952.5999999046,9013,WL,A,8.0
5,14.16700005531311,learn,60000.0,Mon Mar 31 2025 11:07:23 GMT-0400 (Eastern Daylight Time),596552.5999999046,A,sal,I,l,154,1,600.0,595952.5999999046,9013,WL,A,8.0
5,14.316999912261963,learn,60000.0,Mon Mar 31 2025 11:07:23 GMT-0400 (Eastern Daylight Time),596702.5,A,salt,I,t,138,1,749.9000000953674,595952.5999999046,9013,WL,A,8.0
5,14.549999952316284,learn,60000.0,Mon Mar 31 2025 11:07:23 GMT-0400 (Eastern Daylight Time),596935.5,A,saltenter,I,enter,213,1,982.9000000953674,595952.5999999046,9013,WL,A,8.0
5,15.766999959945679,learn,60000.0,Mon Mar 31 2025 11:07:23 GMT-0400 (Eastern Daylight Time),598152.3000001907,A,l,I,l,1198,1,1216.5,596935.8000001907,9013,WL,A,9.0
5,15.967000007629395,learn,60000.0,Mon Mar 31 2025 11:07:23 GMT-0400 (Eastern Daylight Time),598352.5999999046,A,lo,I,o,190,1,1416.7999997138977,596935.8000001907,9013,WL,A,9.0
5,16.43400001525879,learn,60000.0,Mon Mar 31 2025 11:07:23 GMT-0400 (Eastern Daylight Time),598819.4000000954,A,log,I,g,443,1,1883.5999999046326,596935.8000001907,9013,WL,A,9.0
5,16.865999937057495,learn,60000.0,Mon Mar 31 2025 11:07:23 GMT-0400 (Eastern Daylight Time),599252.0999999046,A,logenter,I,enter,415,1,2316.2999997138977,596935.8000001907,9013,WL,A,9.0
5,17.366999864578247,learn,60000.0,Mon Mar 31 2025 11:07:23 GMT-0400 (Eastern Daylight Time),599752.9000000954,A,c,I,c,482,1,500.30000019073486,599252.5999999046,9013,WL,A,10.0
5,17.483999967575073,learn,60000.0,Mon Mar 31 2025 11:07:23 GMT-0400 (Eastern Daylight Time),599869.3000001907,A,ch,I,h,106,1,616.7000002861023,599252.5999999046,9013,WL,A,10.0
5,17.566999912261963,learn,60000.0,Mon Mar 31 2025 11:07:23 GMT-0400 (Eastern Daylight Time),599952.8000001907,A,chi,I,i,63,1,700.2000002861023,599252.5999999046,9013,WL,A,10.0
5,17.83399987220764,learn,60000.0,Mon Mar 31 2025 11:07:23 GMT-0400 (Eastern Daylight Time),600219.4000000954,A,chim,I,m,235,1,966.8000001907349,599252.5999999046,9013,WL,A,10.0
5,18.0,learn,60000.0,Mon Mar 31 2025 11:07:23 GMT-0400 (Eastern Daylight Time),600385.8000001907,A,chimn,I,n,152,1,1133.2000002861023,599252.5999999046,9013,WL,A,10.0
5,18.134000062942505,learn,60000.0,Mon Mar 31 2025 11:07:23 GMT-0400 (Eastern Daylight Time),600519.4000000954,A,chimne,I,e,114,1,1266.8000001907349,599252.5999999046,9013,WL,A,10.0
5,18.25,learn,60000.0,Mon Mar 31 2025 11:07:23 GMT-0400 (Eastern Daylight Time),600636.0999999046,A,chimney,I,y,91,1,1383.5,599252.5999999046,9013,WL,A,10.0
5,18.632999897003174,learn,60000.0,Mon Mar 31 2025 11:07:23 GMT-0400 (Eastern Daylight Time),601018.8000001907,A,chimneyenter,I,enter,350,1,1766.2000002861023,599252.5999999046,9013,WL,A,10.0
5,19.08399987220764,learn,60000.0,Mon Mar 31 2025 11:07:23 GMT-0400 (Eastern Daylight Time),601469.4000000954,A,b,I,b,428,1,450.09999990463257,601019.3000001907,9013,WL,A,11.0
5,19.15000009536743,learn,60000.0,Mon Mar 31 2025 11:07:23 GMT-0400 (Eastern Daylight Time),601535.5999999046,A,bu,I,u,53,1,516.2999997138977,601019.3000001907,9013,WL,A,11.0
5,19.34999990463257,learn,60000.0,Mon Mar 31 2025 11:07:23 GMT-0400 (Eastern Daylight Time),601735.9000000954,A,but,I,t,181,1,716.5999999046326,601019.3000001907,9013,WL,A,11.0
5,19.483999967575073,learn,60000.0,Mon Mar 31 2025 11:07:23 GMT-0400 (Eastern Daylight Time),601869.4000000954,A,butt,I,t,124,1,850.0999999046326,601019.3000001907,9013,WL,A,11.0
5,19.58299994468689,learn,60000.0,Mon Mar 31 2025 11:07:23 GMT-0400 (Eastern Daylight Time),601968.9000000954,A,butto,I,o,78,1,949.5999999046326,601019.3000001907,9013,WL,A,11.0
5,19.73300004005432,learn,60000.0,Mon Mar 31 2025 11:07:23 GMT-0400 (Eastern Daylight Time),602118.9000000954,A,button,I,n,130,1,1099.5999999046326,601019.3000001907,9013,WL,A,11.0
5,20.115999937057495,learn,60000.0,Mon Mar 31 2025 11:07:23 GMT-0400 (Eastern Daylight Time),602502.2000002861,A,buttonenter,I,enter,366,1,1482.9000000953674,601019.3000001907,9013,WL,A,11.0
5,20.532999992370605,learn,60000.0,Mon Mar 31 2025 11:07:23 GMT-0400 (Eastern Daylight Time),602919.2000002861,A,g,I,g,400,1,416.7000002861023,602502.5,9013,WL,A,12.0
5,20.615999937057495,learn,60000.0,Mon Mar 31 2025 11:07:23 GMT-0400 (Eastern Daylight Time),603002.2000002861,A,go,I,o,58,1,499.7000002861023,602502.5,9013,WL,A,12.0
5,20.799999952316284,learn,60000.0,Mon Mar 31 2025 11:07:23 GMT-0400 (Eastern Daylight Time),603186.0,A,gol,I,l,172,1,683.5,602502.5,9013,WL,A,12.0
5,20.93400001525879,learn,60000.0,Mon Mar 31 2025 11:07:23 GMT-0400 (Eastern Daylight Time),603319.4000000954,A,gold,I,d,106,1,816.9000000953674,602502.5,9013,WL,A,12.0
5,21.09999990463257,learn,60000.0,Mon Mar 31 2025 11:07:23 GMT-0400 (Eastern Daylight Time),603485.5,A,goldenter,I,enter,154,1,983.0,602502.5,9013,WL,A,12.0
5,21.316999912261963,learn,60000.0,Mon Mar 31 2025 11:07:23 GMT-0400 (Eastern Daylight Time),603702.5,A,r,I,r,201,1,216.59999990463257,603485.9000000954,9013,WL,A,13.0
5,21.5,learn,60000.0,Mon Mar 31 2025 11:07:23 GMT-0400 (Eastern Daylight Time),603885.5,A,ra,I,a,172,1,399.59999990463257,603485.9000000954,9013,WL,A,13.0
5,21.73300004005432,learn,60000.0,Mon Mar 31 2025 11:07:23 GMT-0400 (Eastern Daylight Time),604119.2000002861,A,rat,I,t,210,1,633.3000001907349,603485.9000000954,9013,WL,A,13.0
5,21.884000062942505,learn,60000.0,Mon Mar 31 2025 11:07:23 GMT-0400 (Eastern Daylight Time),604269.3000001907,A,ratt,I,t,140,1,783.4000000953674,603485.9000000954,9013,WL,A,13.0
5,21.983999967575073,learn,60000.0,Mon Mar 31 2025 11:07:23 GMT-0400 (Eastern Daylight Time),604369.3000001907,A,rattl,I,l,87,1,883.4000000953674,603485.9000000954,9013,WL,A,13.0
5,22.18400001525879,learn,60000.0,Mon Mar 31 2025 11:07:23 GMT-0400 (Eastern Daylight Time),604569.4000000954,A,rattle,I,e,178,1,1083.5,603485.9000000954,9013,WL,A,13.0
5,22.5,learn,60000.0,Mon Mar 31 2025 11:07:23 GMT-0400 (Eastern Daylight Time),604885.5,A,rattleenter,I,enter,289,1,1399.5999999046326,603485.9000000954,9013,WL,A,13.0
5,25.382999897003174,learn,60000.0,Mon Mar 31 2025 11:07:23 GMT-0400 (Eastern Daylight Time),607769.2000002861,A,h,I,h,2865,1,2883.4000000953674,604885.8000001907,9013,WL,A,14.0
5,25.483999967575073,learn,60000.0,Mon Mar 31 2025 11:07:23 GMT-0400 (Eastern Daylight Time),607869.4000000954,A,ha,I,a,75,1,2983.5999999046326,604885.8000001907,9013,WL,A,14.0
5,25.68400001525879,learn,60000.0,Mon Mar 31 2025 11:07:23 GMT-0400 (Eastern Daylight Time),608069.4000000954,A,har,I,r,182,1,3183.5999999046326,604885.8000001907,9013,WL,A,14.0
5,25.84999990463257,learn,60000.0,Mon Mar 31 2025 11:07:23 GMT-0400 (Eastern Daylight Time),608236.0999999046,A,harp,I,p,141,1,3350.2999997138977,604885.8000001907,9013,WL,A,14.0
5,26.266000032424927,learn,60000.0,Mon Mar 31 2025 11:07:23 GMT-0400 (Eastern Daylight Time),608652.2000002861,A,harpenter,I,enter,390,1,3766.4000000953674,604885.8000001907,9013,WL,A,14.0
5,37.31699991226196,learn,60000.0,Mon Mar 31 2025 11:07:23 GMT-0400 (Eastern Daylight Time),619702.7000002861,A,f,I,f,11034,1,11050.200000286102,608652.5,9013,WL,A,15.0
5,37.40000009536743,learn,60000.0,Mon Mar 31 2025 11:07:23 GMT-0400 (Eastern Daylight Time),619785.5999999046,A,fi,I,i,59,1,11133.099999904633,608652.5,9013,WL,A,15.0
5,37.549999952316284,learn,60000.0,Mon Mar 31 2025 11:07:23 GMT-0400 (Eastern Daylight Time),619936.0,A,fin,I,n,139,1,11283.5,608652.5,9013,WL,A,15.0
5,37.65000009536743,learn,60000.0,Mon Mar 31 2025 11:07:23 GMT-0400 (Eastern Daylight Time),620035.8000001907,A,fing,I,g,75,1,11383.300000190735,608652.5,9013,WL,A,15.0
5,37.84999990463257,learn,60000.0,Mon Mar 31 2025 11:07:23 GMT-0400 (Eastern Daylight Time),620235.8000001907,A,finge,I,e,176,1,11583.300000190735,608652.5,9013,WL,A,15.0
5,37.86899995803833,learn,60000.0,Mon Mar 31 2025 11:07:23 GMT-0400 (Eastern Daylight Time),620254.8000001907,A,finger,I,r,2,1,11602.300000190735,608652.5,9013,WL,A,15.0
5,38.08299994468689,learn,60000.0,Mon Mar 31 2025 11:07:23 GMT-0400 (Eastern Daylight Time),620468.8000001907,A,fingerenter,I,enter,193,1,11816.300000190735,608652.5,9013,WL,A,15.0
6,1.065999984741211,distr,58934.00001525879,Mon Mar 31 2025 11:07:23 GMT-0400 (Eastern Daylight Time),692402.0999999046,B,b,I,b,1051,1,1066.0,691336.0999999046,9013,WL,A,1.0
6,1.1499998569488525,distr,58850.00014305115,Mon Mar 31 2025 11:07:23 GMT-0400 (Eastern Daylight Time),692485.5999999046,B,bo,I,o,58,1,1149.5,691336.0999999046,9013,WL,A,1.0
6,2.0,distr,58000.0,Mon Mar 31 2025 11:07:23 GMT-0400 (Eastern Daylight Time),693335.7000002861,B,bow,I,w,822,1,1999.6000003814697,691336.0999999046,9013,WL,A,1.0
6,2.116999864578247,distr,57883.00013542175,Mon Mar 31 2025 11:07:23 GMT-0400 (Eastern Daylight Time),693452.5999999046,B,bowl,I,l,83,1,2116.5,691336.0999999046,9013,WL,A,1.0
6,2.3999998569488525,distr,57600.00014305115,Mon Mar 31 2025 11:07:23 GMT-0400 (Eastern Daylight Time),693735.2000002861,B,bowlenter,I,enter,262,1,2399.1000003814697,691336.0999999046,9013,WL,A,1.0
6,3.25,distr,56750.0,Mon Mar 31 2025 11:07:23 GMT-0400 (Eastern Daylight Time),694585.8000001907,B,d,I,d,831,1,850.2000002861023,693735.5999999046,9013,WL,A,2.0
6,3.5329999923706055,distr,56467.000007629395,Mon Mar 31 2025 11:07:23 GMT-0400 (Eastern Daylight Time),694869.2000002861,B,da,I,a,264,1,1133.6000003814697,693735.5999999046,9013,WL,A,2.0
6,3.7170000076293945,distr,56282.999992370605,Mon Mar 31 2025 11:07:23 GMT-0400 (Eastern Daylight Time),695052.4000000954,B,daw,I,w,157,1,1316.8000001907349,693735.5999999046,9013,WL,A,2.0
6,3.8499999046325684,distr,56150.00009536743,Mon Mar 31 2025 11:07:23 GMT-0400 (Eastern Daylight Time),695185.7000002861,B,dawn,I,n,119,1,1450.1000003814697,693735.5999999046,9013,WL,A,2.0
6,4.115999937057495,distr,55884.000062942505,Mon Mar 31 2025 11:07:23 GMT-0400 (Eastern Daylight Time),695451.9000000954,B,dawnenter,I,enter,241,1,1716.3000001907349,693735.5999999046,9013,WL,A,2.0
6,4.366999864578247,distr,55633.00013542175,Mon Mar 31 2025 11:07:23 GMT-0400 (Eastern Daylight Time),695702.5999999046,B,j,I,j,234,1,250.19999980926514,695452.4000000954,9013,WL,A,3.0
6,4.533999919891357,distr,55466.00008010864,Mon Mar 31 2025 11:07:23 GMT-0400 (Eastern Daylight Time),695869.4000000954,B,ju,I,u,156,1,417.0,695452.4000000954,9013,WL,A,3.0
6,4.733000040054321,distr,55266.99995994568,Mon Mar 31 2025 11:07:23 GMT-0400 (Eastern Daylight Time),696069.2000002861,B,jud,I,d,175,1,616.8000001907349,695452.4000000954,9013,WL,A,3.0
6,4.799999952316284,distr,55200.000047683716,Mon Mar 31 2025 11:07:23 GMT-0400 (Eastern Daylight Time),696135.9000000954,B,judg,I,g,46,1,683.5,695452.4000000954,9013,WL,A,3.0
6,4.950000047683716,distr,55049.999952316284,Mon Mar 31 2025 11:07:23 GMT-0400 (Eastern Daylight Time),696285.5,B,judge,I,e,133,1,833.0999999046326,695452.4000000954,9013,WL,A,3.0
6,5.4659998416900635,distr,54534.00015830994,Mon Mar 31 2025 11:07:23 GMT-0400 (Eastern Daylight Time),696802.0,B,judgeenter,I,enter,493,1,1349.5999999046326,695452.4000000954,9013,WL,A,3.0
6,6.9670000076293945,distr,53032.999992370605,Mon Mar 31 2025 11:07:23 GMT-0400 (Eastern Daylight Time),698302.5999999046,B,i,I,i,1492,1,1500.1999998092651,696802.4000000954,9013,WL,A,4.0
6,7.182999849319458,distr,52817.00015068054,Mon Mar 31 2025 11:07:23 GMT-0400 (Eastern Daylight Time),698519.2000002861,B,in,I,n,196,1,1716.8000001907349,696802.4000000954,9013,WL,A,4.0
6,7.483999967575073,distr,52516.00003242493,Mon Mar 31 2025 11:07:23 GMT-0400 (Eastern Daylight Time),698819.3000001907,B,ins,I,s,284,1,2016.9000000953674,696802.4000000954,9013,WL,A,4.0
6,7.632999897003174,distr,52367.000102996826,Mon Mar 31 2025 11:07:23 GMT-0400 (Eastern Daylight Time),698969.2000002861,B,inse,I,e,122,1,2166.800000190735,696802.4000000954,9013,WL,A,4.0
6,7.799999952316284,distr,52200.000047683716,Mon Mar 31 2025 11:07:23 GMT-0400 (Eastern Daylight Time),699135.7000002861,B,insec,I,c,146,1,2333.300000190735,696802.4000000954,9013,WL,A,4.0
6,7.983000040054321,distr,52016.99995994568,Mon Mar 31 2025 11:07:23 GMT-0400 (Eastern Daylight Time),699319.0999999046,B,insect,I,t,162,1,2516.699999809265,696802.4000000954,9013,WL,A,4.0
6,8.549999952316284,distr,51450.000047683716,Mon Mar 31 2025 11:07:23 GMT-0400 (Eastern Daylight Time),699885.3000001907,B,insectenter,I,enter,548,1,3082.9000000953674,696802.4000000954,9013,WL,A,4.0
6,9.066999912261963,distr,50933.00008773804,Mon Mar 31 2025 11:07:23 GMT-0400 (Eastern Daylight Time),700402.5999999046,B,p,I,p,505,1,517.0,699885.5999999046,9013,WL,A,5.0
6,9.182999849319458,distr,50817.00015068054,Mon Mar 31 2025 11:07:23 GMT-0400 (Eastern Daylight Time),700519.3000001907,B,pl,I,l,98,1,633.7000002861023,699885.5999999046,9013,WL,A,5.0
6,9.33299994468689,distr,50667.00005531311,Mon Mar 31 2025 11:07:23 GMT-0400 (Eastern Daylight Time),700668.9000000954,B,pla,I,a,132,1,783.3000001907349,699885.5999999046,9013,WL,A,5.0
6,9.467000007629395,distr,50532.999992370605,Mon Mar 31 2025 11:07:23 GMT-0400 (Eastern Daylight Time),700802.5,B,plan,I,n,111,1,916.9000000953674,699885.5999999046,9013,WL,A,5.0
6,9.632999897003174,distr,50367.000102996826,Mon Mar 31 2025 11:07:23 GMT-0400 (Eastern Daylight Time),700969.2000002861,B,plane,I,e,145,1,1083.6000003814697,699885.5999999046,9013,WL,A,5.0
6,10.08299994468689,distr,49917.00005531311,Mon Mar 31 2025 11:07:23 GMT-0400 (Eastern Daylight Time),701418.7000002861,B,planeenter,I,enter,424,1,1533.1000003814697,699885.5999999046,9013,WL,A,5.0
6,10.782999992370605,distr,49217.000007629395,Mon Mar 31 2025 11:07:23 GMT-0400 (Eastern Daylight Time),702119.3000001907,B,c,I,c,683,1,700.3000001907349,701419.0,9013,WL,A,6.0
6,10.916999816894531,distr,49083.00018310547,Mon Mar 31 2025 11:07:23 GMT-0400 (Eastern Daylight Time),702252.3000001907,B,co,I,o,106,1,833.3000001907349,701419.0,9013,WL,A,6.0
6,10.950000047683716,distr,49049.999952316284,Mon Mar 31 2025 11:07:23 GMT-0400 (Eastern Daylight Time),702285.5,B,cou,I,u,24,1,866.5,701419.0,9013,WL,A,6.0
6,11.166999816894531,distr,48833.00018310547,Mon Mar 31 2025 11:07:23 GMT-0400 (Eastern Daylight Time),702502.5999999046,B,coun,I,n,199,1,1083.5999999046326,701419.0,9013,WL,A,6.0
6,11.266999959945679,distr,48733.00004005432,Mon Mar 31 2025 11:07:23 GMT-0400 (Eastern Daylight Time),702602.5,B,count,I,t,69,1,1183.5,701419.0,9013,WL,A,6.0
6,11.434000015258789,distr,48565.99998474121,Mon Mar 31 2025 11:07:23 GMT-0400 (Eastern Daylight Time),702769.3000001907,B,county,I,y,146,1,1350.3000001907349,701419.0,9013,WL,A,6.0
6,11.700000047683716,distr,48299.999952316284,Mon Mar 31 2025 11:07:23 GMT-0400 (Eastern Daylight Time),703035.3000001907,B,countyenter,I,enter,241,1,1616.3000001907349,701419.0,9013,WL,A,6.0
6,12.5,distr,47500.0,Mon Mar 31 2025 11:07:23 GMT-0400 (Eastern Daylight Time),703835.8000001907,B,c,I,c,778,1,800.0999999046326,703035.7000002861,9013,WL,A,7.0
6,12.549999952316284,distr,47450.000047683716,Mon Mar 31 2025 11:07:23 GMT-0400 (Eastern Daylight Time),703885.3000001907,B,ch,I,h,38,1,849.5999999046326,703035.7000002861,9013,WL,A,7.0
6,12.682999849319458,distr,47317.00015068054,Mon Mar 31 2025 11:07:23 GMT-0400 (Eastern Daylight Time),704019.0999999046,B,cha,I,a,122,1,983.3999996185303,703035.7000002861,9013,WL,A,7.0
6,12.782999992370605,distr,47217.000007629395,Mon Mar 31 2025 11:07:23 GMT-0400 (Eastern Daylight Time),704118.9000000954,B,chai,I,i,73,1,1083.1999998092651,703035.7000002861,9013,WL,A,7.0
6,12.899999856948853,distr,47100.00014305115,Mon Mar 31 2025 11:07:23 GMT-0400 (Eastern Daylight Time),704235.8000001907,B,chair,I,r,84,1,1200.0999999046326,703035.7000002861,9013,WL,A,7.0
6,13.766000032424927,distr,46233.99996757507,Mon Mar 31 2025 11:07:23 GMT-0400 (Eastern Daylight Time),705102.0,B,chairenter,I,enter,847,1,2066.2999997138977,703035.7000002861,9013,WL,A,7.0
6,18.01699995994568,distr,41983.00004005432,Mon Mar 31 2025 11:07:23 GMT-0400 (Eastern Daylight Time),709352.5999999046,B,p,I,p,4232,1,4250.299999713898,705102.3000001907,9013,WL,A,8.0
6,18.217000007629395,distr,41782.999992370605,Mon Mar 31 2025 11:07:23 GMT-0400 (Eastern Daylight Time),709552.5999999046,B,po,I,o,187,1,4450.299999713898,705102.3000001907,9013,WL,A,8.0
6,18.34999990463257,distr,41650.00009536743,Mon Mar 31 2025 11:07:23 GMT-0400 (Eastern Daylight Time),709685.5999999046,B,poo,I,o,115,1,4583.299999713898,705102.3000001907,9013,WL,A,8.0
6,18.51699995994568,distr,41483.00004005432,Mon Mar 31 2025 11:07:23 GMT-0400 (Eastern Daylight Time),709852.5,B,pool,I,l,137,1,4750.199999809265,705102.3000001907,9013,WL,A,8.0
6,19.016000032424927,distr,40983.99996757507,Mon Mar 31 2025 11:07:23 GMT-0400 (Eastern Daylight Time),710352.0999999046,B,poolenter,I,enter,486,1,5249.799999713898,705102.3000001907,9013,WL,A,8.0
6,39.532999992370605,distr,20467.000007629395,Mon Mar 31 2025 11:07:23 GMT-0400 (Eastern Daylight Time),730869.2000002861,B,m,I,m,20502,1,20516.700000286102,710352.5,9013,WL,A,9.0
6,39.632999897003174,distr,20367.000102996826,Mon Mar 31 2025 11:07:23 GMT-0400 (Eastern Daylight Time),730969.0999999046,B,me,I,e,77,1,20616.599999904633,710352.5,9013,WL,A,9.0
6,39.73300004005432,distr,20266.99995994568,Mon Mar 31 2025 11:07:23 GMT-0400 (Eastern Daylight Time),731068.5999999046,B,mea,I,a,90,1,20716.099999904633,710352.5,9013,WL,A,9.0
6,39.89999985694885,distr,20100.000143051147,Mon Mar 31 2025 11:07:23 GMT-0400 (Eastern Daylight Time),731235.7000002861,B,meal,I,l,148,1,20883.200000286102,710352.5,9013,WL,A,9.0
6,40.115999937057495,distr,19884.000062942505,Mon Mar 31 2025 11:07:23 GMT-0400 (Eastern Daylight Time),731452.2000002861,B,mealenter,I,enter,199,1,21099.700000286102,710352.5,9013,WL,A,9.0
6,60.01699995994568,distr,-16.99995994567871,Mon Mar 31 2025 11:07:23 GMT-0400 (Eastern Daylight Time),751352.8000001907,B,None,I,None,19892,1,19900.300000190735,731452.5,9013,WL,A,10.0
7,1.9160001277923584,immed,58083.99987220764,Mon Mar 31 2025 11:07:23 GMT-0400 (Eastern Daylight Time),760869.0999999046,A,b,I,b,1900,1,1916.2999997138977,758952.8000001907,9013,WL,A,1.0
7,2.116000175476074,immed,57883.999824523926,Mon Mar 31 2025 11:07:23 GMT-0400 (Eastern Daylight Time),761069.0,A,bo,I,o,173,1,2116.199999809265,758952.8000001907,9013,WL,A,1.0
7,2.315999984741211,immed,57684.00001525879,Mon Mar 31 2025 11:07:23 GMT-0400 (Eastern Daylight Time),761269.2000002861,A,boo,I,o,182,1,2316.4000000953674,758952.8000001907,9013,WL,A,1.0
7,2.4160001277923584,immed,57583.99987220764,Mon Mar 31 2025 11:07:23 GMT-0400 (Eastern Daylight Time),761369.2000002861,A,book,I,k,78,1,2416.4000000953674,758952.8000001907,9013,WL,A,1.0
7,3.0830001831054688,immed,56916.99981689453,Mon Mar 31 2025 11:07:23 GMT-0400 (Eastern Daylight Time),762035.3000001907,A,bookenter,I,enter,649,1,3082.5,758952.8000001907,9013,WL,A,1.0
7,3.7660000324249268,immed,56233.99996757507,Mon Mar 31 2025 11:07:23 GMT-0400 (Eastern Daylight Time),762719.0999999046,A,f,I,f,675,1,683.5,762035.5999999046,9013,WL,A,2.0
7,3.883000135421753,immed,56116.99986457825,Mon Mar 31 2025 11:07:23 GMT-0400 (Eastern Daylight Time),762835.5999999046,A,fl,I,l,101,1,800.0,762035.5999999046,9013,WL,A,2.0
7,4.065999984741211,immed,55934.00001525879,Mon Mar 31 2025 11:07:23 GMT-0400 (Eastern Daylight Time),763019.0,A,flo,I,o,159,1,983.4000000953674,762035.5999999046,9013,WL,A,2.0
7,4.25,immed,55750.0,Mon Mar 31 2025 11:07:23 GMT-0400 (Eastern Daylight Time),763202.5,A,flow,I,w,161,1,1166.9000000953674,762035.5999999046,9013,WL,A,2.0
7,4.348999977111816,immed,55651.00002288818,Mon Mar 31 2025 11:07:23 GMT-0400 (Eastern Daylight Time),763302.0999999046,A,flowe,I,e,80,1,1266.5,762035.5999999046,9013,WL,A,2.0
7,4.565999984741211,immed,55434.00001525879,Mon Mar 31 2025 11:07:23 GMT-0400 (Eastern Daylight Time),763518.5999999046,A,flower,I,r,203,1,1483.0,762035.5999999046,9013,WL,A,2.0
7,4.833000183105469,immed,55166.99981689453,Mon Mar 31 2025 11:07:23 GMT-0400 (Eastern Daylight Time),763785.3000001907,A,flowerenter,I,enter,246,1,1749.7000002861023,762035.5999999046,9013,WL,A,2.0
7,6.016000032424927,immed,53983.99996757507,Mon Mar 31 2025 11:07:23 GMT-0400 (Eastern Daylight Time),764969.2000002861,A,t,I,t,1165,1,1183.6000003814697,763785.5999999046,9013,WL,A,3.0
7,6.315999984741211,immed,53684.00001525879,Mon Mar 31 2025 11:07:23 GMT-0400 (Eastern Daylight Time),765269.0999999046,A,tr,I,r,282,1,1483.5,763785.5999999046,9013,WL,A,3.0
7,6.516000032424927,immed,53483.99996757507,Mon Mar 31 2025 11:07:23 GMT-0400 (Eastern Daylight Time),765469.2000002861,A,tra,I,a,173,1,1683.6000003814697,763785.5999999046,9013,WL,A,3.0
7,6.650000095367432,immed,53349.99990463257,Mon Mar 31 2025 11:07:23 GMT-0400 (Eastern Daylight Time),765602.4000000954,A,trai,I,i,109,1,1816.8000001907349,763785.5999999046,9013,WL,A,3.0
7,6.833000183105469,immed,53166.99981689453,Mon Mar 31 2025 11:07:23 GMT-0400 (Eastern Daylight Time),765785.7000002861,A,train,I,n,156,1,2000.1000003814697,763785.5999999046,9013,WL,A,3.0
7,7.333000183105469,immed,52666.99981689453,Mon Mar 31 2025 11:07:23 GMT-0400 (Eastern Daylight Time),766285.2000002861,A,trainenter,I,enter,489,1,2499.6000003814697,763785.5999999046,9013,WL,A,3.0
7,8.565999984741211,immed,51434.00001525879,Mon Mar 31 2025 11:07:23 GMT-0400 (Eastern Daylight Time),767519.0999999046,A,m,I,m,1224,1,1233.5999999046326,766285.5,9013,WL,A,4.0
7,8.799999952316284,immed,51200.000047683716,Mon Mar 31 2025 11:07:23 GMT-0400 (Eastern Daylight Time),767752.5,A,me,I,e,212,1,1467.0,766285.5,9013,WL,A,4.0
7,8.866000175476074,immed,51133.999824523926,Mon Mar 31 2025 11:07:23 GMT-0400 (Eastern Daylight Time),767818.7000002861,A,mea,I,a,43,1,1533.2000002861023,766285.5,9013,WL,A,4.0
7,9.032999992370605,immed,50967.000007629395,Mon Mar 31 2025 11:07:23 GMT-0400 (Eastern Daylight Time),767985.8000001907,A,mead,I,d,154,1,1700.3000001907349,766285.5,9013,WL,A,4.0
7,9.166000127792358,immed,50833.99987220764,Mon Mar 31 2025 11:07:23 GMT-0400 (Eastern Daylight Time),768118.7000002861,A,meado,I,o,105,1,1833.2000002861023,766285.5,9013,WL,A,4.0
7,9.383000135421753,immed,50616.99986457825,Mon Mar 31 2025 11:07:23 GMT-0400 (Eastern Daylight Time),768335.8000001907,A,meadow,I,w,198,1,2050.300000190735,766285.5,9013,WL,A,4.0
7,9.799000024795532,immed,50200.99997520447,Mon Mar 31 2025 11:07:23 GMT-0400 (Eastern Daylight Time),768751.9000000954,A,meadowenter,I,enter,402,1,2466.4000000953674,766285.5,9013,WL,A,4.0
7,10.833000183105469,immed,49166.99981689453,Mon Mar 31 2025 11:07:23 GMT-0400 (Eastern Daylight Time),769785.7000002861,A,s,I,s,1014,1,1033.4000000953674,768752.3000001907,9013,WL,A,5.0
7,10.983000040054321,immed,49016.99995994568,Mon Mar 31 2025 11:07:23 GMT-0400 (Eastern Daylight Time),769935.7000002861,A,sa,I,a,137,1,1183.4000000953674,768752.3000001907,9013,WL,A,5.0
7,11.100000143051147,immed,48899.99985694885,Mon Mar 31 2025 11:07:23 GMT-0400 (Eastern Daylight Time),770052.4000000954,A,sal,I,l,92,1,1300.0999999046326,768752.3000001907,9013,WL,A,5.0
7,11.315999984741211,immed,48684.00001525879,Mon Mar 31 2025 11:07:23 GMT-0400 (Eastern Daylight Time),770269.2000002861,A,salt,I,t,205,1,1516.9000000953674,768752.3000001907,9013,WL,A,5.0
7,11.683000087738037,immed,48316.99991226196,Mon Mar 31 2025 11:07:23 GMT-0400 (Eastern Daylight Time),770635.3000001907,A,saltenter,I,enter,342,1,1883.0,768752.3000001907,9013,WL,A,5.0
7,12.666000127792358,immed,47333.99987220764,Mon Mar 31 2025 11:07:23 GMT-0400 (Eastern Daylight Time),771619.0999999046,A,h,I,h,970,1,983.3999996185303,770635.7000002861,9013,WL,A,6.0
7,12.815999984741211,immed,47184.00001525879,Mon Mar 31 2025 11:07:23 GMT-0400 (Eastern Daylight Time),771769.0,A,ha,I,a,127,1,1133.2999997138977,770635.7000002861,9013,WL,A,6.0
7,13.016000032424927,immed,46983.99996757507,Mon Mar 31 2025 11:07:23 GMT-0400 (Eastern Daylight Time),771969.0999999046,A,har,I,r,186,1,1333.3999996185303,770635.7000002861,9013,WL,A,6.0
7,13.200000047683716,immed,46799.999952316284,Mon Mar 31 2025 11:07:23 GMT-0400 (Eastern Daylight Time),772152.4000000954,A,harp,I,p,155,1,1516.6999998092651,770635.7000002861,9013,WL,A,6.0
7,13.616000175476074,immed,46383.999824523926,Mon Mar 31 2025 11:07:23 GMT-0400 (Eastern Daylight Time),772568.7000002861,A,harpenter,I,enter,394,1,1933.0,770635.7000002861,9013,WL,A,6.0
7,14.25,immed,45750.0,Mon Mar 31 2025 11:07:23 GMT-0400 (Eastern Daylight Time),773202.4000000954,A,f,I,f,621,1,633.4000000953674,772569.0,9013,WL,A,7.0
7,14.315999984741211,immed,45684.00001525879,Mon Mar 31 2025 11:07:23 GMT-0400 (Eastern Daylight Time),773268.8000001907,A,fi,I,i,48,1,699.8000001907349,772569.0,9013,WL,A,7.0
7,14.516000032424927,immed,45483.99996757507,Mon Mar 31 2025 11:07:23 GMT-0400 (Eastern Daylight Time),773469.2000002861,A,fin,I,n,186,1,900.2000002861023,772569.0,9013,WL,A,7.0
7,14.683000087738037,immed,45316.99991226196,Mon Mar 31 2025 11:07:23 GMT-0400 (Eastern Daylight Time),773635.7000002861,A,fing,I,g,142,1,1066.7000002861023,772569.0,9013,WL,A,7.0
7,14.966000080108643,immed,45033.99991989136,Mon Mar 31 2025 11:07:23 GMT-0400 (Eastern Daylight Time),773919.0,A,finge,I,e,264,1,1350.0,772569.0,9013,WL,A,7.0
7,15.032999992370605,immed,44967.000007629395,Mon Mar 31 2025 11:07:23 GMT-0400 (Eastern Daylight Time),773985.7000002861,A,finger,I,r,51,1,1416.7000002861023,772569.0,9013,WL,A,7.0
7,15.766000032424927,immed,44233.99996757507,Mon Mar 31 2025 11:07:23 GMT-0400 (Eastern Daylight Time),774718.5999999046,A,fingerenter,I,enter,714,1,2149.5999999046326,772569.0,9013,WL,A,7.0
7,16.48300004005432,immed,43516.99995994568,Mon Mar 31 2025 11:07:23 GMT-0400 (Eastern Daylight Time),775435.3000001907,A,a,I,a,695,1,716.4000000953674,774718.9000000954,9013,WL,A,8.0
7,16.56599998474121,immed,43434.00001525879,Mon Mar 31 2025 11:07:23 GMT-0400 (Eastern Daylight Time),775518.8000001907,A,ap,I,p,72,1,799.9000000953674,774718.9000000954,9013,WL,A,8.0
7,16.716000080108643,immed,43283.99991989136,Mon Mar 31 2025 11:07:23 GMT-0400 (Eastern Daylight Time),775669.2000002861,A,app,I,p,131,1,950.3000001907349,774718.9000000954,9013,WL,A,8.0
7,16.866000175476074,immed,43133.999824523926,Mon Mar 31 2025 11:07:23 GMT-0400 (Eastern Daylight Time),775819.0999999046,A,appl,I,l,118,1,1100.1999998092651,774718.9000000954,9013,WL,A,8.0
7,17.299999952316284,immed,42700.000047683716,Mon Mar 31 2025 11:07:23 GMT-0400 (Eastern Daylight Time),776252.4000000954,A,apple,I,e,400,1,1533.5,774718.9000000954,9013,WL,A,8.0
7,17.91600012779236,immed,42083.99987220764,Mon Mar 31 2025 11:07:23 GMT-0400 (Eastern Daylight Time),776868.5999999046,A,appleenter,I,enter,598,1,2149.699999809265,774718.9000000954,9013,WL,A,8.0
7,18.466000080108643,immed,41533.99991989136,Mon Mar 31 2025 11:07:23 GMT-0400 (Eastern Daylight Time),777419.2000002861,A,l,I,l,529,1,550.3000001907349,776868.9000000954,9013,WL,A,9.0
7,18.66600012779236,immed,41333.99987220764,Mon Mar 31 2025 11:07:23 GMT-0400 (Eastern Daylight Time),777619.2000002861,A,lo,I,o,181,1,750.3000001907349,776868.9000000954,9013,WL,A,9.0
7,19.266000032424927,immed,40733.99996757507,Mon Mar 31 2025 11:07:23 GMT-0400 (Eastern Daylight Time),778219.0999999046,A,log,I,g,567,1,1350.1999998092651,776868.9000000954,9013,WL,A,9.0
7,19.631999969482422,immed,40368.00003051758,Mon Mar 31 2025 11:07:23 GMT-0400 (Eastern Daylight Time),778585.2000002861,A,logenter,I,enter,343,1,1716.3000001907349,776868.9000000954,9013,WL,A,9.0
7,20.40000009536743,immed,39599.99990463257,Mon Mar 31 2025 11:07:23 GMT-0400 (Eastern Daylight Time),779352.4000000954,A,k,I,k,748,1,766.8000001907349,778585.5999999046,9013,WL,A,10.0
7,20.73300004005432,immed,39266.99995994568,Mon Mar 31 2025 11:07:23 GMT-0400 (Eastern Daylight Time),779685.9000000954,A,ke,I,e,314,1,1100.3000001907349,778585.5999999046,9013,WL,A,10.0
7,20.91600012779236,immed,39083.99987220764,Mon Mar 31 2025 11:07:23 GMT-0400 (Eastern Daylight Time),779869.3000001907,A,key,I,y,174,1,1283.7000002861023,778585.5999999046,9013,WL,A,10.0
7,21.89900016784668,immed,38100.99983215332,Mon Mar 31 2025 11:07:23 GMT-0400 (Eastern Daylight Time),780851.9000000954,A,keyenter,I,enter,963,1,2266.300000190735,778585.5999999046,9013,WL,A,10.0
7,22.633000135421753,immed,37366.99986457825,Mon Mar 31 2025 11:07:23 GMT-0400 (Eastern Daylight Time),781585.8000001907,A,r,I,r,723,1,733.5,780852.3000001907,9013,WL,A,11.0
7,22.81599998474121,immed,37184.00001525879,Mon Mar 31 2025 11:07:23 GMT-0400 (Eastern Daylight Time),781769.2000002861,A,ra,I,a,161,1,916.9000000953674,780852.3000001907,9013,WL,A,11.0
7,23.049999952316284,immed,36950.000047683716,Mon Mar 31 2025 11:07:23 GMT-0400 (Eastern Daylight Time),782002.4000000954,A,rat,I,t,209,1,1150.0999999046326,780852.3000001907,9013,WL,A,11.0
