acc_sum,block,block_c,condition,correct,correct_response,datetime,endtime,flanker,jitter,project,response,response_test_buffer_response,response_test_target_response,response_time,response_time_test_buffer_response,response_time_test_target_response,row_sel,session_number,start_end,starttime,subject_id,target,task,task_vers,time_test_buffer,time_test_buffer_response,time_test_constants,time_test_flanker,time_test_jitter,time_test_logger,time_test_target,time_test_target_response,time_test_variables,trial
0,prac,1,con,0,z,Wed Apr 09 2025 11:30:28 GMT-0500 (Central Daylight Time),178606.79999995232,kiwi,1000,I,None,,,1814,,,7,1,5075.5,173531.29999995232,7125,kiwi,NF,C,,,,,,,,,,1
0,prac,1,inc,0,z,Wed Apr 09 2025 11:30:28 GMT-0500 (Central Daylight Time),183770.5,cobalt,1100,I,None,,,1799,,,4,1,5157.700000047684,178612.79999995232,7125,raisin,NF,C,,,,,,,,,,2
0,prac,1,inc,0,z,Wed Apr 09 2025 11:30:28 GMT-0500 (Central Daylight Time),188969.0,lead,1100,I,None,,,1814,,,8,1,5191.800000011921,183777.19999998808,7125,plum,NF,C,,,,,,,,,,3
0,prac,1,con,0,m,Wed Apr 09 2025 11:30:28 GMT-0500 (Central Daylight Time),193835.29999995232,bronze,800,I,None,,,1800,,,9,1,4860.899999976158,188974.39999997616,7125,bronze,NF,C,,,,,,,,,,4
1,prac,1,con,1,z,Wed Apr 09 2025 11:30:28 GMT-0500 (Central Daylight Time),196617.89999997616,orange,1000,I,z,,,472,,,3,1,2776.300000011921,193841.59999996424,7125,orange,NF,C,,,,,,,,,,5
2,prac,1,inc,1,m,Wed Apr 09 2025 11:30:28 GMT-0500 (Central Daylight Time),199865.5,cherry,900,I,m,,,1047,,,10,1,3241.400000035763,196624.09999996424,7125,copper,NF,C,,,,,,,,,,6
3,prac,1,con,1,m,Wed Apr 09 2025 11:30:28 GMT-0500 (Central Daylight Time),202997.69999998808,zinc,1000,I,m,,,824,,,15,1,3126.0,199871.69999998808,7125,zinc,NF,C,,,,,,,,,,7
4,prac,1,con,1,z,Wed Apr 09 2025 11:30:28 GMT-0500 (Central Daylight Time),205532.39999997616,banana,800,I,z,,,422,,,1,1,2528.199999988079,203004.19999998808,7125,banana,NF,C,,,,,,,,,,8
5,prac,1,inc,1,m,Wed Apr 09 2025 11:30:28 GMT-0500 (Central Daylight Time),208629.79999995232,plum,1100,I,m,,,684,,,16,1,3091.7999999523163,205538.0,7125,lead,NF,C,,,,,,,,,,9
6,prac,1,inc,1,m,Wed Apr 09 2025 11:30:28 GMT-0500 (Central Daylight Time),211863.19999998808,raisin,1100,I,m,,,816,,,12,1,3227.900000035763,208635.29999995232,7125,cobalt,NF,C,,,,,,,,,,10
7,prac,1,con,1,z,Wed Apr 09 2025 11:30:28 GMT-0500 (Central Daylight Time),214677.19999998808,lime,800,I,z,,,699,,,5,1,2809.0,211868.19999998808,7125,lime,NF,C,,,,,,,,,,11
8,prac,1,inc,1,z,Wed Apr 09 2025 11:30:28 GMT-0500 (Central Daylight Time),217561.19999998808,iron,900,I,z,,,675,,,6,1,2877.300000011921,214683.89999997616,7125,pear,NF,C,,,,,,,,,,12
9,prac,1,inc,1,m,Wed Apr 09 2025 11:30:28 GMT-0500 (Central Daylight Time),220193.0,pear,900,I,m,,,421,,,14,1,2626.2000000476837,217566.79999995232,7125,iron,NF,C,,,,,,,,,,13
9,prac,1,con,0,m,Wed Apr 09 2025 11:30:28 GMT-0500 (Central Daylight Time),222891.0,silver,1000,I,z,,,387,,,11,1,2693.0,220198.0,7125,silver,NF,C,,,,,,,,,,14
10,prac,1,con,1,m,Wed Apr 09 2025 11:30:28 GMT-0500 (Central Daylight Time),225841.79999995232,gold,800,I,m,,,833,,,13,1,2944.5,222897.29999995232,7125,gold,NF,C,,,,,,,,,,15
11,prac,1,inc,1,z,Wed Apr 09 2025 11:30:28 GMT-0500 (Central Daylight Time),228840.29999995232,copper,900,I,z,,,806,,,2,1,2992.5,225847.79999995232,7125,cherry,NF,C,,,,,,,,,,16
1,prac,2,inc,1,m,Wed Apr 09 2025 11:30:28 GMT-0500 (Central Daylight Time),239086.29999995232,plum,1100,I,m,,,1074,,,16,1,3476.399999976158,235609.89999997616,7125,lead,NF,C,,,,,,,,,,1
2,prac,2,inc,1,m,Wed Apr 09 2025 11:30:28 GMT-0500 (Central Daylight Time),241919.19999998808,cherry,900,I,m,,,619,,,10,1,2827.100000023842,239092.09999996424,7125,copper,NF,C,,,,,,,,,,2
3,prac,2,inc,1,m,Wed Apr 09 2025 11:30:28 GMT-0500 (Central Daylight Time),244734.09999996424,pear,900,I,m,,,601,,,14,1,2809.399999976158,241924.69999998808,7125,iron,NF,C,,,,,,,,,,3
3,prac,2,inc,0,z,Wed Apr 09 2025 11:30:28 GMT-0500 (Central Daylight Time),247683.5,cobalt,1100,I,m,,,534,,,4,1,2941.100000023842,244742.39999997616,7125,raisin,NF,C,,,,,,,,,,4
4,prac,2,con,1,z,Wed Apr 09 2025 11:30:28 GMT-0500 (Central Daylight Time),250885.0,orange,1000,I,z,,,886,,,3,1,3193.800000011921,247691.19999998808,7125,orange,NF,C,,,,,,,,,,5
5,prac,2,inc,1,z,Wed Apr 09 2025 11:30:28 GMT-0500 (Central Daylight Time),254232.59999996424,lead,1100,I,z,,,933,,,8,1,3340.399999976158,250892.19999998808,7125,plum,NF,C,,,,,,,,,,6
6,prac,2,con,1,m,Wed Apr 09 2025 11:30:28 GMT-0500 (Central Daylight Time),257232.59999996424,gold,800,I,m,,,899,,,13,1,2992.0,254240.59999996424,7125,gold,NF,C,,,,,,,,,,7
7,prac,2,con,1,m,Wed Apr 09 2025 11:30:28 GMT-0500 (Central Daylight Time),260396.09999996424,silver,1000,I,m,,,876,,,11,1,3159.699999988079,257236.39999997616,7125,silver,NF,C,,,,,,,,,,8
8,prac,2,con,1,z,Wed Apr 09 2025 11:30:28 GMT-0500 (Central Daylight Time),262897.1999999881,banana,800,I,z,,,406,,,1,1,2493.699999988079,260403.5,7125,banana,NF,C,,,,,,,,,,9
9,prac,2,con,1,m,Wed Apr 09 2025 11:30:28 GMT-0500 (Central Daylight Time),265661.7999999523,bronze,800,I,m,,,651,,,9,1,2757.099999964237,262904.6999999881,7125,bronze,NF,C,,,,,,,,,,10
10,prac,2,con,1,z,Wed Apr 09 2025 11:30:28 GMT-0500 (Central Daylight Time),268710.59999996424,kiwi,1000,I,z,,,759,,,7,1,3041.699999988079,265668.89999997616,7125,kiwi,NF,C,,,,,,,,,,11
11,prac,2,inc,1,m,Wed Apr 09 2025 11:30:28 GMT-0500 (Central Daylight Time),271909.5,raisin,1100,I,m,,,792,,,12,1,3192.400000035763,268717.09999996424,7125,cobalt,NF,C,,,,,,,,,,12
12,prac,2,inc,1,z,Wed Apr 09 2025 11:30:28 GMT-0500 (Central Daylight Time),274959.0,iron,900,I,z,,,842,,,6,1,3040.7000000476837,271918.2999999523,7125,pear,NF,C,,,,,,,,,,13
13,prac,2,con,1,z,Wed Apr 09 2025 11:30:28 GMT-0500 (Central Daylight Time),277990.59999996424,lime,800,I,z,,,917,,,5,1,3026.899999976158,274963.6999999881,7125,lime,NF,C,,,,,,,,,,14
14,prac,2,inc,1,z,Wed Apr 09 2025 11:30:28 GMT-0500 (Central Daylight Time),281023.0,copper,900,I,z,,,834,,,2,1,3026.300000011921,277996.6999999881,7125,cherry,NF,C,,,,,,,,,,15
15,prac,2,con,1,m,Wed Apr 09 2025 11:30:28 GMT-0500 (Central Daylight Time),284007.09999996424,zinc,1000,I,m,,,668,,,15,1,2977.699999988079,281029.39999997616,7125,zinc,NF,C,,,,,,,,,,16
1,test,1,inc,1,m,Wed Apr 09 2025 11:30:28 GMT-0500 (Central Daylight Time),330392.09999996424,lime,800,I,m,m,None,652,452.0,200.0,109,1,1978.5999999642372,328413.5,7125,iron,NF,C,319163,319163,317652,318462,317652,319630,318963,318963,319630,1
2,test,1,inc,1,m,Wed Apr 09 2025 11:30:28 GMT-0500 (Central Daylight Time),332690.89999997616,plum,1100,I,m,m,None,668,467.0,201.0,112,1,2294.199999988079,330396.6999999881,7125,iron,NF,C,321462,321462,319635,320746,319635,321929,321261,321261,321929,2
3,test,1,con,1,z,Wed Apr 09 2025 11:30:28 GMT-0500 (Central Daylight Time),334972.2999999523,raisin,1000,I,z,z,None,736,537.0,199.0,27,1,2276.199999988079,332696.09999996424,7125,raisin,NF,C,323662,323662,321934,322947,321935,324210,323462,323462,324210,3
4,test,1,con,1,m,Wed Apr 09 2025 11:30:28 GMT-0500 (Central Daylight Time),337238.5,cobalt,1100,I,m,m,None,627,427.0,200.0,92,1,2261.7000000476837,334976.7999999523,7125,cobalt,NF,C,326045,326045,324215,325328,324215,326477,325845,325845,326477,4
5,test,1,inc,1,z,Wed Apr 09 2025 11:30:28 GMT-0500 (Central Daylight Time),339471.09999996424,silver,1000,I,z,z,None,693,494.0,199.0,7,1,2227.800000011921,337243.2999999523,7125,banana,NF,C,328210,328210,326481,327493,326482,328709,328010,328010,328709,5
6,test,1,inc,1,m,Wed Apr 09 2025 11:30:28 GMT-0500 (Central Daylight Time),341437.39999997616,banana,800,I,m,m,None,620,405.0,215.0,77,1,1962.0,339475.39999997616,7125,copper,NF,C,330258,330259,328713,329526,328714,330675,330043,330043,330675,6
7,test,1,inc,1,z,Wed Apr 09 2025 11:30:28 GMT-0500 (Central Daylight Time),343718.89999997616,copper,900,I,z,z,None,840,641.0,199.0,30,1,2275.0,341443.89999997616,7125,raisin,NF,C,332310,332310,330682,331593,330683,332957,332110,332110,332957,7
8,test,1,inc,1,m,Wed Apr 09 2025 11:30:28 GMT-0500 (Central Daylight Time),345836.1999999881,cherry,900,I,m,m,None,673,473.0,200.0,70,1,2112.300000011921,343723.89999997616,7125,bronze,NF,C,334591,334591,332962,333873,332962,335074,334391,334391,335074,8
9,test,1,con,1,z,Wed Apr 09 2025 11:30:28 GMT-0500 (Central Daylight Time),348102.39999997616,cherry,1000,I,z,z,None,719,520.0,199.0,11,1,2261.0,345841.39999997616,7125,cherry,NF,C,336808,336808,335079,336091,335080,337340,336608,336608,337340,9
10,test,1,con,1,z,Wed Apr 09 2025 11:30:28 GMT-0500 (Central Daylight Time),350201.89999997616,plum,900,I,z,z,None,648,433.0,215.0,58,1,2094.199999988079,348107.6999999881,7125,plum,NF,C,338991,338991,337346,338257,337346,339440,338775,338775,339440,10
11,test,1,con,1,m,Wed Apr 09 2025 11:30:28 GMT-0500 (Central Daylight Time),352265.2999999523,cobalt,800,I,m,m,None,721,522.0,199.0,89,1,2058.5,350206.7999999523,7125,cobalt,NF,C,340973,340973,339445,340256,339445,341503,340773,340773,341503,11
12,test,1,con,1,m,Wed Apr 09 2025 11:30:28 GMT-0500 (Central Daylight Time),354465.7999999523,silver,1100,I,m,m,None,558,358.0,200.0,84,1,2194.899999976158,352270.89999997616,7125,silver,NF,C,343338,343338,341509,342622,341509,343704,343138,343138,343704,12
13,test,1,con,1,z,Wed Apr 09 2025 11:30:28 GMT-0500 (Central Daylight Time),356299.39999997616,lime,800,I,z,z,None,513,298.0,215.0,33,1,1828.8999999761581,354470.5,7125,lime,NF,C,345239,345239,343709,344522,343709,345537,345024,345024,345537,13
14,test,1,con,1,z,Wed Apr 09 2025 11:30:28 GMT-0500 (Central Daylight Time),358481.09999996424,kiwi,900,I,z,z,None,741,541.0,200.0,50,1,2176.800000011921,356304.2999999523,7125,kiwi,NF,C,347170,347171,345542,346455,345543,347719,346970,346970,347719,14
15,test,1,inc,1,z,Wed Apr 09 2025 11:30:28 GMT-0500 (Central Daylight Time),360881.09999996424,lead,1100,I,z,z,None,750,533.0,217.0,48,1,2394.899999976158,358486.1999999881,7125,pear,NF,C,349571,349571,347724,348838,347725,350119,349354,349354,350119,15
16,test,1,inc,1,z,Wed Apr 09 2025 11:30:28 GMT-0500 (Central Daylight Time),362980.59999996424,copper,900,I,z,z,None,656,456.0,200.0,6,1,2092.800000011921,360887.7999999523,7125,banana,NF,C,351752,351752,350126,351036,350126,352219,351551,351551,352219,16
17,test,1,con,1,z,Wed Apr 09 2025 11:30:28 GMT-0500 (Central Daylight Time),364981.2999999523,plum,1000,I,z,z,None,465,265.0,200.0,59,1,1995.5999999642372,362985.6999999881,7125,plum,NF,C,353954,353954,352224,353236,352224,354219,353753,353753,354219,17
18,test,1,inc,1,z,Wed Apr 09 2025 11:30:28 GMT-0500 (Central Daylight Time),367360.6999999881,lead,1100,I,z,z,None,738,539.0,199.0,40,1,2375.800000011921,364984.89999997616,7125,lime,NF,C,356051,356051,354223,355336,354223,356599,355852,355852,356599,18
19,test,1,inc,1,z,Wed Apr 09 2025 11:30:28 GMT-0500 (Central Daylight Time),369411.59999996424,gold,800,I,z,z,None,704,503.0,201.0,45,1,2047.5,367364.09999996424,7125,pear,NF,C,358136,358136,356602,357418,356602,358650,357934,357934,358650,19
20,test,1,con,1,z,Wed Apr 09 2025 11:30:28 GMT-0500 (Central Daylight Time),371393.6999999881,pear,1000,I,z,z,None,438,239.0,199.0,43,1,1975.5,369418.1999999881,7125,pear,NF,C,360384,360384,358656,359668,358657,360632,360184,360184,360632,20
21,test,1,inc,1,m,Wed Apr 09 2025 11:30:28 GMT-0500 (Central Daylight Time),373960.0,orange,1000,I,m,m,None,1025,826.0,199.0,71,1,2562.2000000476837,371397.7999999523,7125,bronze,NF,C,362366,362366,360636,361649,360636,363198,362167,362167,363198,21
22,test,1,con,1,z,Wed Apr 09 2025 11:30:28 GMT-0500 (Central Daylight Time),376091.89999997616,raisin,1100,I,z,z,None,494,278.0,216.0,28,1,2127.5,373964.39999997616,7125,raisin,NF,C,365049,365049,363202,364317,363203,365330,364833,364833,365330,22
23,test,1,con,1,z,Wed Apr 09 2025 11:30:28 GMT-0500 (Central Daylight Time),378376.5,kiwi,1100,I,z,z,None,633,434.0,199.0,52,1,2280.900000035763,376095.59999996424,7125,kiwi,NF,C,367165,367165,365334,366449,365334,367615,366966,366966,367615,23
24,test,1,con,1,z,Wed Apr 09 2025 11:30:28 GMT-0500 (Central Daylight Time),380408.0,orange,1000,I,z,z,None,485,284.0,201.0,19,1,2026.9000000357628,378381.09999996424,7125,orange,NF,C,369347,369347,367619,368631,367619,369646,369146,369146,369646,24
25,test,1,inc,1,m,Wed Apr 09 2025 11:30:28 GMT-0500 (Central Daylight Time),382691.5,kiwi,1000,I,m,m,None,734,535.0,199.0,127,1,2280.5,380411.0,7125,lead,NF,C,371379,371379,369649,370663,369649,371930,371180,371180,371930,25
26,test,1,inc,1,m,Wed Apr 09 2025 11:30:28 GMT-0500 (Central Daylight Time),385090.59999996424,raisin,1100,I,m,m,None,765,566.0,199.0,72,1,2394.599999964237,382696.0,7125,bronze,NF,C,373748,373748,371934,373045,371934,374329,373548,373548,374329,26
27,test,1,con,1,m,Wed Apr 09 2025 11:30:28 GMT-0500 (Central Daylight Time),387371.59999996424,copper,900,I,m,m,None,844,645.0,199.0,74,1,2275.899999976158,385095.6999999881,7125,copper,NF,C,375963,375963,374334,375245,374334,376610,375763,375763,376610,27
28,test,1,inc,1,z,Wed Apr 09 2025 11:30:28 GMT-0500 (Central Daylight Time),389721.09999996424,zinc,1000,I,z,z,None,806,606.0,200.0,63,1,2342.5,387378.59999996424,7125,plum,NF,C,378345,378345,376617,377628,376617,378959,378144,378144,378959,28
29,test,1,con,1,m,Wed Apr 09 2025 11:30:28 GMT-0500 (Central Daylight Time),392303.6999999881,silver,1000,I,m,m,None,1040,826.0,214.0,83,1,2576.600000023842,389727.09999996424,7125,silver,NF,C,380709,380709,378965,379977,378966,381542,380495,380495,381542,29
30,test,1,inc,1,z,Wed Apr 09 2025 11:30:28 GMT-0500 (Central Daylight Time),394405.89999997616,bronze,800,I,z,z,None,766,567.0,199.0,29,1,2095.800000011921,392310.09999996424,7125,raisin,NF,C,383077,383077,381548,382361,381549,383644,382876,382877,383644,30
31,test,1,inc,1,z,Wed Apr 09 2025 11:30:28 GMT-0500 (Central Daylight Time),396770.09999996424,copper,900,I,z,z,None,941,724.0,217.0,22,1,2359.599999964237,394410.5,7125,orange,NF,C,385276,385276,383649,384558,383649,386008,385059,385059,386008,31
32,test,1,inc,1,m,Wed Apr 09 2025 11:30:28 GMT-0500 (Central Daylight Time),398952.1999999881,lime,800,I,m,m,None,834,634.0,200.0,117,1,2177.5,396774.6999999881,7125,zinc,NF,C,387542,387542,386013,386826,386013,388190,387341,387341,388190,32
33,test,1,inc,1,m,Wed Apr 09 2025 11:30:28 GMT-0500 (Central Daylight Time),401352.1999999881,kiwi,1000,I,m,m,None,853,652.0,201.0,103,1,2394.199999988079,398958.0,7125,gold,NF,C,389924,389924,388196,389208,388197,390590,389723,389723,390590,33
34,test,1,con,1,m,Wed Apr 09 2025 11:30:28 GMT-0500 (Central Daylight Time),403335.7999999523,cobalt,900,I,m,m,None,544,328.0,216.0,90,1,1977.7999999523163,401358.0,7125,cobalt,NF,C,392240,392240,390596,391507,390596,392574,392024,392024,392574,34
35,test,1,inc,1,m,Wed Apr 09 2025 11:30:28 GMT-0500 (Central Daylight Time),405399.7999999523,cherry,900,I,m,m,None,640,425.0,215.0,78,1,2060.099999964237,403339.6999999881,7125,copper,NF,C,394207,394207,392578,393490,392578,394638,393991,393991,394638,35
36,test,1,inc,1,m,Wed Apr 09 2025 11:30:28 GMT-0500 (Central Daylight Time),407503.2999999523,lime,800,I,m,m,None,754,554.0,200.0,125,1,2098.5,405404.7999999523,7125,lead,NF,C,396172,396172,394643,395455,394643,396741,395972,395972,396741,36
37,test,1,con,1,m,Wed Apr 09 2025 11:30:28 GMT-0500 (Central Daylight Time),409585.59999996424,copper,1000,I,m,m,None,535,335.0,200.0,75,1,2078.800000011921,407506.7999999523,7125,copper,NF,C,398471,398472,396745,397755,396745,398824,398271,398271,398824,37
38,test,1,inc,1,z,Wed Apr 09 2025 11:30:28 GMT-0500 (Central Daylight Time),411483.0,gold,800,I,z,z,None,565,350.0,215.0,53,1,1893.0,409590.0,7125,kiwi,NF,C,400371,400371,398828,399638,398829,400721,400155,400155,400721,38
39,test,1,con,1,z,Wed Apr 09 2025 11:30:28 GMT-0500 (Central Daylight Time),413448.6999999881,raisin,800,I,z,z,None,635,435.0,200.0,25,1,1961.1000000238419,411487.59999996424,7125,raisin,NF,C,402237,402237,400726,401536,400726,402687,402037,402037,402687,39
40,test,1,con,1,z,Wed Apr 09 2025 11:30:28 GMT-0500 (Central Daylight Time),415397.1999999881,cherry,800,I,z,z,None,604,404.0,200.0,9,1,1943.300000011921,413453.89999997616,7125,cherry,NF,C,404220,404220,402692,403503,402692,404635,404020,404020,404635,40
41,test,1,inc,1,z,Wed Apr 09 2025 11:30:28 GMT-0500 (Central Daylight Time),417696.09999996424,cobalt,1100,I,z,z,None,651,450.0,201.0,16,1,2294.0,415402.09999996424,7125,cherry,NF,C,406469,406469,404640,405753,404641,406934,406268,406268,406934,41
42,test,1,con,1,m,Wed Apr 09 2025 11:30:28 GMT-0500 (Central Daylight Time),419978.89999997616,lead,900,I,m,m,None,839,639.0,200.0,122,1,2279.100000023842,417699.7999999523,7125,lead,NF,C,408569,408569,406938,407852,406938,409217,408368,408368,409217,42
43,test,1,inc,1,z,Wed Apr 09 2025 11:30:28 GMT-0500 (Central Daylight Time),422342.7999999523,cobalt,1100,I,z,z,None,725,525.0,200.0,24,1,2358.899999976158,419983.89999997616,7125,orange,NF,C,411049,411049,409222,410335,409222,411581,410849,410849,411581,43
44,test,1,con,1,z,Wed Apr 09 2025 11:30:28 GMT-0500 (Central Daylight Time),424625.7999999523,kiwi,1000,I,z,z,None,754,539.0,215.0,51,1,2280.0,422345.7999999523,7125,kiwi,NF,C,413316,413316,411584,412598,411584,413864,413101,413101,413864,44
45,test,1,inc,1,z,Wed Apr 09 2025 11:30:28 GMT-0500 (Central Daylight Time),426927.0,cobalt,1100,I,z,z,None,660,446.0,214.0,32,1,2298.0,424629.0,7125,raisin,NF,C,415714,415714,413867,414982,413867,416165,415500,415500,416165,45
46,test,1,con,1,z,Wed Apr 09 2025 11:30:28 GMT-0500 (Central Daylight Time),429324.6999999881,cherry,900,I,z,z,None,977,777.0,200.0,10,1,2393.600000023842,426931.09999996424,7125,cherry,NF,C,417783,417783,416169,417081,416169,418563,417583,417583,418563,46
47,test,1,inc,1,m,Wed Apr 09 2025 11:30:28 GMT-0500 (Central Daylight Time),431491.09999996424,kiwi,1000,I,m,m,None,623,418.0,205.0,119,1,2160.800000011921,429330.2999999523,7125,zinc,NF,C,420301,420301,418568,419581,418569,420729,420095,420095,420729,47
48,test,1,inc,1,z,Wed Apr 09 2025 11:30:28 GMT-0500 (Central Daylight Time),433990.39999997616,silver,1000,I,z,z,None,960,760.0,200.0,31,1,2494.0,431496.39999997616,7125,raisin,NF,C,422463,422463,420734,421748,420735,423228,422263,422263,423228,48
49,test,1,con,1,z,Wed Apr 09 2025 11:30:28 GMT-0500 (Central Daylight Time),435891.2999999523,banana,900,I,z,z,None,472,255.0,217.0,2,1,1896.0999999642372,433995.1999999881,7125,banana,NF,C,424863,424864,423233,424145,423234,425129,424646,424646,425129,49
50,test,1,inc,1,z,Wed Apr 09 2025 11:30:28 GMT-0500 (Central Daylight Time),438121.89999997616,iron,900,I,z,z,None,787,571.0,216.0,38,1,2226.100000023842,435895.7999999523,7125,lime,NF,C,426780,426780,425134,426045,425134,427360,426564,426564,427360,50
51,test,1,inc,1,m,Wed Apr 09 2025 11:30:28 GMT-0500 (Central Daylight Time),440639.2999999523,plum,1100,I,m,m,None,892,678.0,214.0,128,1,2514.099999964237,438125.1999999881,7125,lead,NF,C,429193,429193,427363,428476,427364,429877,428979,428979,429877,51
52,test,1,con,1,m,Wed Apr 09 2025 11:30:28 GMT-0500 (Central Daylight Time),443252.7999999523,lead,1100,I,m,m,None,979,778.0,201.0,124,1,2610.099999964237,440642.6999999881,7125,lead,NF,C,431709,431709,429881,430992,429881,432491,431508,431508,432491,52
53,test,1,con,1,z,Wed Apr 09 2025 11:30:28 GMT-0500 (Central Daylight Time),445169.59999996424,orange,800,I,z,z,None,565,366.0,199.0,17,1,1914.0,443255.59999996424,7125,orange,NF,C,434024,434024,432494,433308,432494,434408,433825,433825,434408,53
54,test,1,inc,1,z,Wed Apr 09 2025 11:30:28 GMT-0500 (Central Daylight Time),447468.59999996424,cobalt,1100,I,z,z,None,668,453.0,215.0,8,1,2296.099999964237,445172.5,7125,banana,NF,C,436242,436242,434410,435526,434411,436707,436027,436027,436707,54
55,test,1,inc,1,m,Wed Apr 09 2025 11:30:28 GMT-0500 (Central Daylight Time),449586.5,banana,800,I,m,m,None,774,573.0,201.0,85,1,2112.600000023842,447473.89999997616,7125,silver,NF,C,438243,438243,436712,437527,436712,438825,438041,438041,438824,55
56,test,1,inc,1,m,Wed Apr 09 2025 11:30:28 GMT-0500 (Central Daylight Time),451800.39999997616,pear,900,I,m,m,None,772,556.0,216.0,102,1,2209.399999976158,449591.0,7125,gold,NF,C,440475,440475,438829,439741,438829,441039,440259,440259,441038,56
57,test,1,con,1,m,Wed Apr 09 2025 11:30:28 GMT-0500 (Central Daylight Time),453833.2999999523,gold,800,I,m,m,None,683,482.0,201.0,97,1,2029.7999999523163,451803.5,7125,gold,NF,C,442573,442573,441042,441858,441042,443071,442371,442371,443071,57
58,test,1,inc,1,z,Wed Apr 09 2025 11:30:28 GMT-0500 (Central Daylight Time),456281.6999999881,silver,1000,I,z,z,None,914,715.0,199.0,23,1,2445.600000023842,453836.09999996424,7125,orange,NF,C,444804,444804,443074,444088,443074,445520,444604,444604,445520,58
59,test,1,con,1,z,Wed Apr 09 2025 11:30:28 GMT-0500 (Central Daylight Time),458697.59999996424,lime,1100,I,z,z,None,787,588.0,199.0,36,1,2412.899999976158,456284.6999999881,7125,lime,NF,C,447339,447339,445523,446636,445523,447936,447139,447139,447936,59
60,test,1,inc,1,z,Wed Apr 09 2025 11:30:28 GMT-0500 (Central Daylight Time),460897.0,zinc,1000,I,z,z,None,665,450.0,215.0,39,1,2196.300000011921,458700.6999999881,7125,lime,NF,C,449685,449685,447939,448952,447939,450135,449470,449470,450135,60
61,test,1,inc,1,m,Wed Apr 09 2025 11:30:28 GMT-0500 (Central Daylight Time),462913.1999999881,banana,800,I,m,m,None,672,473.0,199.0,93,1,2013.4000000357628,460899.7999999523,7125,cobalt,NF,C,451669,451669,450138,450953,450138,452151,451470,451470,452151,61
62,test,1,con,1,m,Wed Apr 09 2025 11:30:28 GMT-0500 (Central Daylight Time),464979.7999999523,zinc,900,I,m,m,None,629,430.0,199.0,114,1,2063.7999999523163,462916.0,7125,zinc,NF,C,453785,453785,452154,453068,452154,454218,453586,453586,454218,62
63,test,1,inc,1,z,Wed Apr 09 2025 11:30:28 GMT-0500 (Central Daylight Time),467295.1999999881,zinc,1000,I,z,z,None,768,569.0,199.0,47,1,2311.699999988079,464983.5,7125,pear,NF,C,455950,455950,454222,455234,454222,456533,455751,455751,456533,63
64,test,1,con,1,m,Wed Apr 09 2025 11:30:28 GMT-0500 (Central Daylight Time),469494.1999999881,cobalt,1000,I,m,m,None,660,459.0,201.0,91,1,2196.199999988079,467298.0,7125,cobalt,NF,C,458267,458268,456536,457551,456536,458732,458066,458066,458732,64
65,test,1,con,1,m,Wed Apr 09 2025 11:30:28 GMT-0500 (Central Daylight Time),471478.5,lead,800,I,m,m,None,644,444.0,200.0,121,1,1981.1000000238419,469497.39999997616,7125,lead,NF,C,460267,460267,458735,459549,458736,460717,460066,460066,460717,65
66,test,1,inc,1,z,Wed Apr 09 2025 11:30:28 GMT-0500 (Central Daylight Time),473826.6999999881,lead,1100,I,z,z,None,705,506.0,199.0,64,1,2344.900000035763,471481.7999999523,7125,plum,NF,C,462549,462549,460720,461833,460720,463065,462349,462349,463065,66
67,test,1,con,1,z,Wed Apr 09 2025 11:30:28 GMT-0500 (Central Daylight Time),476092.6999999881,cherry,1100,I,z,z,None,620,405.0,215.0,12,1,2261.199999988079,473831.5,7125,cherry,NF,C,464914,464914,463070,464182,463070,465331,464699,464699,465331,67
68,test,1,con,1,z,Wed Apr 09 2025 11:30:28 GMT-0500 (Central Daylight Time),478048.39999997616,banana,800,I,z,z,None,635,435.0,200.0,1,1,1950.0,476098.39999997616,7125,banana,NF,C,466848,466848,465336,466147,465337,467286,466648,466648,467286,68
69,test,1,inc,1,m,Wed Apr 09 2025 11:30:28 GMT-0500 (Central Daylight Time),480091.09999996424,orange,1000,I,m,m,None,506,306.0,200.0,95,1,2039.5999999642372,478051.5,7125,cobalt,NF,C,469013,469013,467290,468297,467290,469329,468813,468813,469329,69
70,test,1,con,1,z,Wed Apr 09 2025 11:30:28 GMT-0500 (Central Daylight Time),482257.39999997616,lime,900,I,z,z,None,724,524.0,200.0,34,1,2163.100000023842,480094.2999999523,7125,lime,NF,C,470963,470963,469332,470246,469333,471495,470762,470763,471495,70
71,test,1,con,1,m,Wed Apr 09 2025 11:30:28 GMT-0500 (Central Daylight Time),484478.1999999881,bronze,900,I,m,m,None,785,585.0,200.0,66,1,2217.800000011921,482260.39999997616,7125,bronze,NF,C,473131,473131,471498,472414,471499,473716,472930,472930,473716,71
71,test,1,con,0,m,Wed Apr 09 2025 11:30:28 GMT-0500 (Central Daylight Time),487206.39999997616,gold,1100,I,z,z,None,1084,884.0,200.0,100,1,2719.5,484486.89999997616,7125,gold,NF,C,475547,475547,473725,474831,473725,476445,475346,475346,476444,72
72,test,1,inc,1,m,Wed Apr 09 2025 11:30:28 GMT-0500 (Central Daylight Time),489973.0,pear,900,I,m,m,None,1328,1128.0,200.0,110,1,2760.5,487212.5,7125,iron,NF,C,478080,478080,476451,477364,476451,479211,477880,477880,479211,73
73,test,1,inc,1,m,Wed Apr 09 2025 11:30:28 GMT-0500 (Central Daylight Time),492124.09999996424,pear,900,I,m,m,None,717,518.0,199.0,118,1,2139.699999988079,489984.39999997616,7125,zinc,NF,C,480844,480844,479222,480129,479223,481362,480645,480645,481362,74
74,test,1,con,1,z,Wed Apr 09 2025 11:30:28 GMT-0500 (Central Daylight Time),494205.89999997616,pear,800,I,z,z,None,747,546.0,201.0,41,1,2074.0,492131.89999997616,7125,pear,NF,C,482895,482895,481370,482179,481370,483444,482694,482694,483444,75
75,test,1,con,1,m,Wed Apr 09 2025 11:30:28 GMT-0500 (Central Daylight Time),496488.2999999523,iron,1100,I,m,m,None,633,417.0,216.0,108,1,2271.899999976158,494216.39999997616,7125,iron,NF,C,485295,485295,483454,484560,483455,485726,485078,485078,485726,76
75,test,1,inc,0,m,Wed Apr 09 2025 11:30:28 GMT-0500 (Central Daylight Time),498887.6999999881,raisin,1100,I,z,z,None,765,552.0,213.0,88,1,2392.400000035763,496495.2999999523,7125,silver,NF,C,487559,487559,485733,486843,485734,488126,487345,487345,488126,77
76,test,1,inc,1,z,Wed Apr 09 2025 11:30:28 GMT-0500 (Central Daylight Time),501384.2999999523,silver,1000,I,z,z,None,946,731.0,215.0,15,1,2491.7999999523163,498892.5,7125,cherry,NF,C,489875,489876,488131,489143,488131,490622,489660,489660,490622,78
77,test,1,inc,1,m,Wed Apr 09 2025 11:30:28 GMT-0500 (Central Daylight Time),503536.09999996424,cherry,900,I,m,m,None,709,509.0,200.0,94,1,2146.0,501390.09999996424,7125,cobalt,NF,C,492258,492258,490628,491543,490629,492774,492058,492058,492774,79
78,test,1,con,1,m,Wed Apr 09 2025 11:30:28 GMT-0500 (Central Daylight Time),505717.39999997616,copper,800,I,m,m,None,843,644.0,199.0,73,1,2172.0,503545.39999997616,7125,copper,NF,C,494308,494308,492783,493592,492784,494955,494108,494108,494955,80
79,test,1,inc,1,m,Wed Apr 09 2025 11:30:28 GMT-0500 (Central Daylight Time),508083.59999996424,raisin,1100,I,m,m,None,730,531.0,199.0,80,1,2356.699999988079,505726.89999997616,7125,copper,NF,C,496789,496789,494965,496074,494965,497322,496590,496590,497322,81
80,test,1,con,1,m,Wed Apr 09 2025 11:30:28 GMT-0500 (Central Daylight Time),510250.6999999881,iron,900,I,m,m,None,731,532.0,199.0,106,1,2159.900000035763,508090.7999999523,7125,iron,NF,C,498956,498956,497329,498241,497329,499489,498757,498757,499489,82
81,test,1,con,1,m,Wed Apr 09 2025 11:30:28 GMT-0500 (Central Daylight Time),512565.6999999881,silver,900,I,m,m,None,878,676.0,202.0,82,1,2308.600000023842,510257.09999996424,7125,silver,NF,C,501124,501124,499495,500405,499496,501804,500922,500922,501804,83
82,test,1,con,1,m,Wed Apr 09 2025 11:30:28 GMT-0500 (Central Daylight Time),514998.09999996424,iron,1000,I,m,m,None,892,693.0,199.0,107,1,2428.5,512569.59999996424,7125,iron,NF,C,503538,503538,501808,502821,501808,504236,503338,503338,504236,84
83,test,1,con,1,m,Wed Apr 09 2025 11:30:28 GMT-0500 (Central Daylight Time),517230.89999997616,bronze,1100,I,m,m,None,582,369.0,213.0,68,1,2227.600000023842,515003.2999999523,7125,bronze,NF,C,506086,506086,504241,505354,504242,506469,505873,505873,506469,85
84,test,1,con,1,z,Wed Apr 09 2025 11:30:28 GMT-0500 (Central Daylight Time),519347.5,banana,1100,I,z,z,None,471,256.0,215.0,4,1,2111.900000035763,517235.59999996424,7125,banana,NF,C,508320,508320,506474,507586,506474,508586,508105,508105,508586,86
85,test,1,con,1,z,Wed Apr 09 2025 11:30:28 GMT-0500 (Central Daylight Time),521948.1999999881,pear,1100,I,z,z,None,967,767.0,200.0,44,1,2596.400000035763,519351.7999999523,7125,pear,NF,C,510419,510419,508590,509703,508590,511186,510219,510219,511186,87
86,test,1,inc,1,m,Wed Apr 09 2025 11:30:28 GMT-0500 (Central Daylight Time),524212.6999999881,orange,1000,I,m,m,None,722,521.0,201.0,79,1,2258.900000035763,521953.7999999523,7125,copper,NF,C,512919,512919,511192,512201,511192,513451,512717,512717,513451,88
87,test,1,inc,1,m,Wed Apr 09 2025 11:30:28 GMT-0500 (Central Daylight Time),526612.8999999762,pear,900,I,m,m,None,967,767.0,200.0,126,1,2395.100000023842,524217.7999999523,7125,lead,NF,C,515084,515084,513456,514368,513456,515851,514884,514884,515851,89
88,test,1,con,1,m,Wed Apr 09 2025 11:30:28 GMT-0500 (Central Daylight Time),528909.6999999881,copper,1100,I,m,m,None,661,461.0,200.0,76,1,2291.699999988079,526618.0,7125,copper,NF,C,517683,517683,515856,516967,515856,518148,517483,517483,518148,90
89,test,1,con,1,z,Wed Apr 09 2025 11:30:28 GMT-0500 (Central Daylight Time),531244.8999999762,orange,900,I,z,z,None,898,683.0,215.0,18,1,2329.5,528915.3999999762,7125,orange,NF,C,519800,519800,518153,519066,518154,520483,519584,519584,520483,91
90,test,1,inc,1,m,Wed Apr 09 2025 11:30:28 GMT-0500 (Central Daylight Time),533342.2999999523,lime,800,I,m,m,None,776,577.0,199.0,101,1,2091.7999999523163,531250.5,7125,gold,NF,C,521999,521999,520489,521298,520489,522580,521800,521800,522580,92
91,test,1,con,1,m,Wed Apr 09 2025 11:30:28 GMT-0500 (Central Daylight Time),535558.0999999642,bronze,1000,I,m,m,None,678,478.0,200.0,67,1,2211.199999988079,533346.8999999762,7125,bronze,NF,C,524314,524314,522585,523600,522585,524796,524114,524114,524796,93
92,test,1,inc,1,z,Wed Apr 09 2025 11:30:28 GMT-0500 (Central Daylight Time),537791.5999999642,zinc,1000,I,z,z,None,691,492.0,199.0,55,1,2229.399999976158,535562.1999999881,7125,kiwi,NF,C,526532,526532,524800,525813,524801,527030,526331,526331,527030,94
93,test,1,inc,1,m,Wed Apr 09 2025 11:30:28 GMT-0500 (Central Daylight Time),540324.0999999642,plum,1100,I,m,m,None,911,697.0,214.0,104,1,2528.099999964237,537796.0,7125,gold,NF,C,528863,528863,527034,528147,527034,529562,528648,528648,529562,95
94,test,1,con,1,z,Wed Apr 09 2025 11:30:28 GMT-0500 (Central Daylight Time),542491.0999999642,orange,1100,I,z,z,None,515,316.0,199.0,20,1,2158.5,540332.5999999642,7125,orange,NF,C,531396,531396,529571,530682,529571,531729,531196,531196,531729,96
95,test,1,con,1,m,Wed Apr 09 2025 11:30:28 GMT-0500 (Central Daylight Time),544605.0,silver,800,I,m,m,None,767,568.0,199.0,81,1,2109.300000011921,542495.6999999881,7125,silver,NF,C,533262,533263,531734,532546,531734,533843,533063,533063,533843,97
96,test,1,con,1,z,Wed Apr 09 2025 11:30:28 GMT-0500 (Central Daylight Time),547022.5,pear,900,I,z,z,None,978,779.0,199.0,42,1,2413.600000023842,544608.8999999762,7125,pear,NF,C,535477,535477,533847,534761,533847,536261,535278,535278,536261,98
97,test,1,inc,1,m,Wed Apr 09 2025 11:30:28 GMT-0500 (Central Daylight Time),549403.7999999523,cherry,900,I,m,m,None,940,737.0,203.0,86,1,2378.0,547025.7999999523,7125,silver,NF,C,537895,537895,536264,537178,536264,538642,537692,537692,538642,99
98,test,1,inc,1,z,Wed Apr 09 2025 11:30:28 GMT-0500 (Central Daylight Time),551836.0,iron,900,I,z,z,None,982,783.0,199.0,54,1,2426.100000023842,549409.8999999762,7125,kiwi,NF,C,540275,540275,538648,539559,538648,541074,540076,540076,541074,100
99,test,1,con,1,m,Wed Apr 09 2025 11:30:28 GMT-0500 (Central Daylight Time),553904.2999999523,bronze,800,I,m,m,None,718,519.0,199.0,65,1,2065.399999976158,551838.8999999762,7125,bronze,NF,C,542608,542608,541077,541893,541077,543142,542409,542409,543142,101
100,test,1,inc,1,z,Wed Apr 09 2025 11:30:28 GMT-0500 (Central Daylight Time),556220.6999999881,bronze,800,I,z,z,None,984,783.0,201.0,5,1,2312.0,553908.6999999881,7125,banana,NF,C,544675,544675,543147,543959,543147,545459,544474,544474,545459,102
101,test,1,con,1,m,Wed Apr 09 2025 11:30:28 GMT-0500 (Central Daylight Time),558585.1999999881,lead,1000,I,m,m,None,824,624.0,200.0,123,1,2360.400000035763,556224.7999999523,7125,lead,NF,C,547192,547192,545463,546474,545463,547823,546991,546991,547823,103
102,test,1,con,1,z,Wed Apr 09 2025 11:30:28 GMT-0500 (Central Daylight Time),560818.3999999762,raisin,900,I,z,z,None,798,584.0,214.0,26,1,2228.600000023842,558589.7999999523,7125,raisin,NF,C,549472,549472,547828,548740,547828,550056,549257,549257,550056,104
103,test,1,con,1,m,Wed Apr 09 2025 11:30:28 GMT-0500 (Central Daylight Time),562966.2999999523,zinc,800,I,m,m,None,825,611.0,214.0,113,1,2143.199999988079,560823.0999999642,7125,zinc,NF,C,551589,551589,550061,550872,550061,552204,551375,551375,552204,105
104,test,1,inc,1,z,Wed Apr 09 2025 11:30:28 GMT-0500 (Central Daylight Time),565183.0,copper,900,I,z,z,None,771,571.0,200.0,14,1,2212.400000035763,562970.5999999642,7125,cherry,NF,C,553836,553836,552209,553122,552209,554421,553636,553636,554421,106
105,test,1,con,1,z,Wed Apr 09 2025 11:30:28 GMT-0500 (Central Daylight Time),567399.0,plum,800,I,z,z,None,883,669.0,214.0,57,1,2211.300000011921,565187.6999999881,7125,plum,NF,C,555954,555954,554426,555237,554426,556637,555739,555739,556637,107
106,test,1,con,1,m,Wed Apr 09 2025 11:30:28 GMT-0500 (Central Daylight Time),569532.2999999523,gold,1000,I,m,m,None,617,418.0,199.0,99,1,2128.2999999523163,567404.0,7125,gold,NF,C,558352,558352,556642,557651,556642,558770,558153,558153,558770,108
107,test,1,con,1,z,Wed Apr 09 2025 11:30:28 GMT-0500 (Central Daylight Time),571680.1999999881,kiwi,800,I,z,z,None,807,592.0,215.0,49,1,2142.900000035763,569537.2999999523,7125,kiwi,NF,C,560320,560320,558775,559586,558776,560918,560104,560104,560918,109
108,test,1,inc,1,z,Wed Apr 09 2025 11:30:28 GMT-0500 (Central Daylight Time),573980.3999999762,iron,900,I,z,z,None,855,656.0,199.0,62,1,2297.399999976158,571683.0,7125,plum,NF,C,562552,562552,560921,561837,560921,563218,562353,562353,563218,110
109,test,1,con,1,z,Wed Apr 09 2025 11:30:28 GMT-0500 (Central Daylight Time),576346.0,banana,1000,I,z,z,None,825,624.0,201.0,3,1,2360.400000035763,573985.5999999642,7125,banana,NF,C,564952,564952,563224,564235,563224,565584,564751,564751,565584,111
110,test,1,con,1,m,Wed Apr 09 2025 11:30:28 GMT-0500 (Central Daylight Time),578829.5,gold,900,I,m,m,None,1048,848.0,200.0,98,1,2479.300000011921,576350.1999999881,7125,gold,NF,C,567219,567219,565588,566502,565589,568068,567019,567019,568068,112
111,test,1,inc,1,m,Wed Apr 09 2025 11:30:28 GMT-0500 (Central Daylight Time),581196.3999999762,raisin,1100,I,m,m,None,732,518.0,214.0,96,1,2361.5,578834.8999999762,7125,cobalt,NF,C,569915,569916,568073,569183,568073,570434,569701,569701,570434,113
112,test,1,inc,1,m,Wed Apr 09 2025 11:30:28 GMT-0500 (Central Daylight Time),583577.0999999642,plum,1100,I,m,m,None,733,533.0,200.0,120,1,2375.599999964237,581201.5,7125,zinc,NF,C,572266,572266,570440,571551,570440,572815,572066,572066,572815,114
113,test,1,inc,1,m,Wed Apr 09 2025 11:30:28 GMT-0500 (Central Daylight Time),585726.8999999762,banana,800,I,m,m,None,818,602.0,216.0,69,1,2145.100000023842,583581.7999999523,7125,bronze,NF,C,574350,574350,572820,573632,572820,574965,574133,574133,574965,115
114,test,1,inc,1,z,Wed Apr 09 2025 11:30:28 GMT-0500 (Central Daylight Time),587810.3999999762,gold,800,I,z,z,None,749,550.0,199.0,37,1,2078.300000011921,585732.0999999642,7125,lime,NF,C,576498,576498,574970,575780,574971,577049,576299,576299,577048,116
115,test,1,con,1,m,Wed Apr 09 2025 11:30:28 GMT-0500 (Central Daylight Time),590242.5999999642,zinc,1100,I,m,m,None,799,597.0,202.0,116,1,2428.300000011921,587814.2999999523,7125,zinc,NF,C,578867,578867,577052,578163,577053,579481,578665,578665,579481,117
116,test,1,inc,1,z,Wed Apr 09 2025 11:30:28 GMT-0500 (Central Daylight Time),592674.1999999881,lead,1100,I,z,z,None,789,590.0,199.0,56,1,2425.5,590248.6999999881,7125,kiwi,NF,C,581314,581314,579487,580597,579487,581912,581114,581114,581912,118
116,test,1,con,0,z,Wed Apr 09 2025 11:30:28 GMT-0500 (Central Daylight Time),594756.2999999523,plum,1100,I,m,m,None,446,246.0,200.0,60,1,2077.599999964237,592678.6999999881,7125,plum,NF,C,583746,583746,581917,583029,581917,583994,583545,583545,583994,119
116,test,1,inc,0,m,Wed Apr 09 2025 11:30:28 GMT-0500 (Central Daylight Time),598306.7999999523,orange,1000,I,None,None,None,1817,1817.0,200.0,87,1,3544.199999988079,594762.5999999642,7125,silver,NF,C,585728,585728,584001,585011,584001,587545,585528,585528,587545,120
117,test,1,con,1,m,Wed Apr 09 2025 11:30:28 GMT-0500 (Central Daylight Time),600105.5999999642,iron,800,I,m,m,None,451,252.0,199.0,105,1,1792.199999988079,598313.3999999762,7125,iron,NF,C,589076,589076,587551,588360,587552,589344,588877,588877,589344,121
118,test,1,inc,1,z,Wed Apr 09 2025 11:30:28 GMT-0500 (Central Daylight Time),602454.6999999881,iron,900,I,z,z,None,919,720.0,199.0,46,1,2343.300000011921,600111.3999999762,7125,pear,NF,C,590960,590960,589349,590260,589350,591693,590761,590761,591693,122
119,test,1,inc,1,m,Wed Apr 09 2025 11:30:28 GMT-0500 (Central Daylight Time),604686.5999999642,kiwi,1000,I,m,m,None,686,487.0,199.0,111,1,2227.199999988079,602459.3999999762,7125,iron,NF,C,593425,593425,591697,592710,591698,593925,593225,593226,593925,123
120,test,1,inc,1,z,Wed Apr 09 2025 11:30:28 GMT-0500 (Central Daylight Time),607035.5,bronze,800,I,z,z,None,1021,806.0,215.0,21,1,2345.300000011921,604690.1999999881,7125,orange,NF,C,595458,595458,593928,594741,593928,596274,595243,595243,596273,124
121,test,1,inc,1,z,Wed Apr 09 2025 11:30:28 GMT-0500 (Central Daylight Time),609300.5,gold,800,I,z,z,None,929,730.0,199.0,61,1,2259.300000011921,607041.1999999881,7125,plum,NF,C,597805,597805,596279,597091,596280,598539,597606,597606,598539,125
122,test,1,con,1,m,Wed Apr 09 2025 11:30:28 GMT-0500 (Central Daylight Time),611699.0999999642,zinc,1000,I,m,m,None,872,668.0,204.0,115,1,2395.5,609303.5999999642,7125,zinc,NF,C,600259,600259,598542,599543,598542,600937,600055,600055,600937,126
123,test,1,con,1,z,Wed Apr 09 2025 11:30:28 GMT-0500 (Central Daylight Time),614068.0,lime,1000,I,z,z,None,826,623.0,203.0,35,1,2365.2000000476837,611702.7999999523,7125,lime,NF,C,602673,602673,600941,601955,600941,603306,602470,602470,603306,127
124,test,1,inc,1,z,Wed Apr 09 2025 11:30:28 GMT-0500 (Central Daylight Time),616315.5999999642,bronze,800,I,z,z,None,907,706.0,201.0,13,1,2243.099999964237,614072.5,7125,cherry,NF,C,604837,604837,603311,604123,603311,605554,604636,604636,605554,128
