block_c,block_dur,condition,countdown,datetime,endtime,list,multichar_response,project,response,response_time,session_number,start_end,starttime,subject_id,task,task_vers,trial
,,,,Fri Mar 07 2025 16:36:32 GMT-0600 (Central Standard Time),,,,O,space,1005,1,,,7078,WL,C,
prac,,0,,Fri Mar 07 2025 16:36:32 GMT-0600 (Central Standard Time),,NA,b,O,b,3232,1,,,7078,WL,C,1.0
prac,,0,,Fri Mar 07 2025 16:36:32 GMT-0600 (Central Standard Time),,NA,bo,O,o,250,1,,,7078,WL,C,1.0
prac,,0,,Fri Mar 07 2025 16:36:32 GMT-0600 (Central Standard Time),,NA,boo,O,o,136,1,,,7078,WL,C,1.0
prac,,0,,Fri Mar 07 2025 16:36:32 GMT-0600 (Central Standard Time),,NA,boos,O,s,82,1,,,7078,WL,C,1.0
prac,,0,,Fri Mar 07 2025 16:36:32 GMT-0600 (Central Standard Time),,NA,boost,O,t,166,1,,,7078,WL,C,1.0
prac,,0,,Fri Mar 07 2025 16:36:32 GMT-0600 (Central Standard Time),,NA,boostenter,O,enter,1167,1,,,7078,WL,C,1.0
1,5.731000185012817,learn,54268.99981498718,Fri Mar 07 2025 16:36:32 GMT-0600 (Central Standard Time),180723.2000000002,A,w,O,w,5722,1,5731.299999999814,174991.90000000037,7078,WL,C,1.0
1,5.930999994277954,learn,54069.000005722046,Fri Mar 07 2025 16:36:32 GMT-0600 (Central Standard Time),180923.30000000075,A,wh,O,h,190,1,5931.4000000003725,174991.90000000037,7078,WL,C,1.0
1,6.248000144958496,learn,53751.999855041504,Fri Mar 07 2025 16:36:32 GMT-0600 (Central Standard Time),181239.5,A,whe,O,e,302,1,6247.5999999996275,174991.90000000037,7078,WL,C,1.0
1,6.38100004196167,learn,53618.99995803833,Fri Mar 07 2025 16:36:32 GMT-0600 (Central Standard Time),181373.0,A,whea,O,a,122,1,6381.0999999996275,174991.90000000037,7078,WL,C,1.0
1,6.531000137329102,learn,53468.9998626709,Fri Mar 07 2025 16:36:32 GMT-0600 (Central Standard Time),181522.90000000037,A,wheat,O,t,133,1,6531.0,174991.90000000037,7078,WL,C,1.0
1,6.831000089645386,learn,53168.999910354614,Fri Mar 07 2025 16:36:32 GMT-0600 (Central Standard Time),181822.60000000056,A,wheatenter,O,enter,279,1,6830.700000000186,174991.90000000037,7078,WL,C,1.0
1,7.514000177383423,learn,52485.99982261658,Fri Mar 07 2025 16:36:32 GMT-0600 (Central Standard Time),182505.90000000037,A,b,O,b,675,1,682.5999999996275,181823.30000000075,7078,WL,C,2.0
1,7.5970001220703125,learn,52402.99987792969,Fri Mar 07 2025 16:36:32 GMT-0600 (Central Standard Time),182589.10000000056,A,bo,O,o,72,1,765.7999999998137,181823.30000000075,7078,WL,C,2.0
1,7.730000019073486,learn,52269.999980926514,Fri Mar 07 2025 16:36:32 GMT-0600 (Central Standard Time),182722.30000000075,A,boy,O,y,125,1,899.0,181823.30000000075,7078,WL,C,2.0
1,8.19700002670288,learn,51802.99997329712,Fri Mar 07 2025 16:36:32 GMT-0600 (Central Standard Time),183188.90000000037,A,boyenter,O,enter,456,1,1365.5999999996275,181823.30000000075,7078,WL,C,2.0
1,8.647000074386597,learn,51352.9999256134,Fri Mar 07 2025 16:36:32 GMT-0600 (Central Standard Time),183639.0,A,f,O,f,428,1,449.79999999981374,183189.2000000002,7078,WL,C,3.0
1,8.77999997138977,learn,51220.00002861023,Fri Mar 07 2025 16:36:32 GMT-0600 (Central Standard Time),183772.10000000056,A,fl,O,l,114,1,582.9000000003725,183189.2000000002,7078,WL,C,3.0
1,8.864000082015991,learn,51135.99991798401,Fri Mar 07 2025 16:36:32 GMT-0600 (Central Standard Time),183855.7000000002,A,fla,O,a,69,1,666.5,183189.2000000002,7078,WL,C,3.0
1,9.347000122070312,learn,50652.99987792969,Fri Mar 07 2025 16:36:32 GMT-0600 (Central Standard Time),184338.60000000056,A,flag,O,g,474,1,1149.4000000003725,183189.2000000002,7078,WL,C,3.0
1,9.52999997138977,learn,50470.00002861023,Fri Mar 07 2025 16:36:32 GMT-0600 (Central Standard Time),184521.7000000002,A,flagenter,O,enter,167,1,1332.5,183189.2000000002,7078,WL,C,3.0
1,10.480000019073486,learn,49519.999980926514,Fri Mar 07 2025 16:36:32 GMT-0600 (Central Standard Time),185471.5,A,q,O,q,936,1,949.2999999998137,184522.2000000002,7078,WL,C,4.0
1,10.630000114440918,learn,49369.99988555908,Fri Mar 07 2025 16:36:32 GMT-0600 (Central Standard Time),185621.5,A,qu,O,u,138,1,1099.2999999998137,184522.2000000002,7078,WL,C,4.0
1,10.763000011444092,learn,49236.99998855591,Fri Mar 07 2025 16:36:32 GMT-0600 (Central Standard Time),185754.7000000002,A,que,O,e,116,1,1232.5,184522.2000000002,7078,WL,C,4.0
1,10.963000059127808,learn,49036.99994087219,Fri Mar 07 2025 16:36:32 GMT-0600 (Central Standard Time),185954.7000000002,A,quee,O,e,191,1,1432.5,184522.2000000002,7078,WL,C,4.0
1,11.080000162124634,learn,48919.999837875366,Fri Mar 07 2025 16:36:32 GMT-0600 (Central Standard Time),186071.7000000002,A,queen,O,n,111,1,1549.5,184522.2000000002,7078,WL,C,4.0
1,11.279000043869019,learn,48720.99995613098,Fri Mar 07 2025 16:36:32 GMT-0600 (Central Standard Time),186271.30000000075,A,queenenter,O,enter,186,1,1749.1000000005588,184522.2000000002,7078,WL,C,4.0
1,11.61300015449524,learn,48386.99984550476,Fri Mar 07 2025 16:36:32 GMT-0600 (Central Standard Time),186604.60000000056,A,c,O,c,314,1,332.90000000037253,186271.7000000002,7078,WL,C,5.0
1,11.712000131607056,learn,48287.999868392944,Fri Mar 07 2025 16:36:32 GMT-0600 (Central Standard Time),186704.2000000002,A,ca,O,a,94,1,432.5,186271.7000000002,7078,WL,C,5.0
1,11.861999988555908,learn,48138.00001144409,Fri Mar 07 2025 16:36:32 GMT-0600 (Central Standard Time),186854.40000000037,A,cam,O,m,138,1,582.7000000001863,186271.7000000002,7078,WL,C,5.0
1,12.046000003814697,learn,47953.9999961853,Fri Mar 07 2025 16:36:32 GMT-0600 (Central Standard Time),187037.80000000075,A,camp,O,p,172,1,766.1000000005588,186271.7000000002,7078,WL,C,5.0
1,12.462000131607056,learn,47537.999868392944,Fri Mar 07 2025 16:36:32 GMT-0600 (Central Standard Time),187454.40000000037,A,campenter,O,enter,396,1,1182.7000000001863,186271.7000000002,7078,WL,C,5.0
1,12.76200008392334,learn,47237.99991607666,Fri Mar 07 2025 16:36:32 GMT-0600 (Central Standard Time),187754.30000000075,A,s,O,s,291,1,299.40000000037253,187454.90000000037,7078,WL,C,6.0
1,12.896000146865845,learn,47103.999853134155,Fri Mar 07 2025 16:36:32 GMT-0600 (Central Standard Time),187887.60000000056,A,sh,O,h,128,1,432.70000000018626,187454.90000000037,7078,WL,C,6.0
1,13.273000001907349,learn,46726.99999809265,Fri Mar 07 2025 16:36:32 GMT-0600 (Central Standard Time),188265.40000000037,A,shr,O,r,372,1,810.5,187454.90000000037,7078,WL,C,6.0
1,13.361999988555908,learn,46638.00001144409,Fri Mar 07 2025 16:36:32 GMT-0600 (Central Standard Time),188353.60000000056,A,shre,O,e,72,1,898.7000000001863,187454.90000000037,7078,WL,C,6.0
1,14.278000116348267,learn,45721.99988365173,Fri Mar 07 2025 16:36:32 GMT-0600 (Central Standard Time),189270.5,A,shr,O,backspace,894,1,1815.5999999996275,187454.90000000037,7078,WL,C,6.0
1,14.412000179290771,learn,45587.99982070923,Fri Mar 07 2025 16:36:32 GMT-0600 (Central Standard Time),189403.60000000056,A,sh,O,backspace,116,1,1948.7000000001863,187454.90000000037,7078,WL,C,6.0
1,14.67799997329712,learn,45322.00002670288,Fri Mar 07 2025 16:36:32 GMT-0600 (Central Standard Time),189670.2000000002,A,sho,O,o,254,1,2215.2999999998137,187454.90000000037,7078,WL,C,6.0
1,14.811000108718872,learn,45188.99989128113,Fri Mar 07 2025 16:36:32 GMT-0600 (Central Standard Time),189803.40000000037,A,shor,O,r,124,1,2348.5,187454.90000000037,7078,WL,C,6.0
1,14.960999965667725,learn,45039.000034332275,Fri Mar 07 2025 16:36:32 GMT-0600 (Central Standard Time),189953.10000000056,A,shore,O,e,141,1,2498.2000000001863,187454.90000000037,7078,WL,C,6.0
1,15.245000123977661,learn,44754.99987602234,Fri Mar 07 2025 16:36:32 GMT-0600 (Central Standard Time),190236.7000000002,A,shoreenter,O,enter,265,1,2781.7999999998137,187454.90000000037,7078,WL,C,6.0
1,16.544000148773193,learn,43455.99985122681,Fri Mar 07 2025 16:36:32 GMT-0600 (Central Standard Time),191536.30000000075,A,b,O,b,1285,1,1299.1000000005588,190237.2000000002,7078,WL,C,7.0
1,16.628000020980835,learn,43371.999979019165,Fri Mar 07 2025 16:36:32 GMT-0600 (Central Standard Time),191619.7000000002,A,bo,O,o,74,1,1382.5,190237.2000000002,7078,WL,C,7.0
1,16.761000156402588,learn,43238.99984359741,Fri Mar 07 2025 16:36:32 GMT-0600 (Central Standard Time),191753.0,A,boy,O,y,126,1,1515.7999999998137,190237.2000000002,7078,WL,C,7.0
1,17.01200008392334,learn,42987.99991607666,Fri Mar 07 2025 16:36:32 GMT-0600 (Central Standard Time),192003.80000000075,A,boyenter,O,enter,233,1,1766.6000000005588,190237.2000000002,7078,WL,C,7.0
1,20.693000078201294,learn,39306.999921798706,Fri Mar 07 2025 16:36:32 GMT-0600 (Central Standard Time),195685.2000000002,A,h,O,h,3670,1,3681.0,192004.2000000002,7078,WL,C,8.0
1,20.860000133514404,learn,39139.999866485596,Fri Mar 07 2025 16:36:32 GMT-0600 (Central Standard Time),195851.7000000002,A,ho,O,o,157,1,3847.5,192004.2000000002,7078,WL,C,8.0
1,21.06000018119812,learn,38939.99981880188,Fri Mar 07 2025 16:36:32 GMT-0600 (Central Standard Time),196051.60000000056,A,hom,O,m,190,1,4047.4000000003725,192004.2000000002,7078,WL,C,8.0
1,21.31000018119812,learn,38689.99981880188,Fri Mar 07 2025 16:36:32 GMT-0600 (Central Standard Time),196301.5,A,home,O,e,230,1,4297.299999999814,192004.2000000002,7078,WL,C,8.0
1,21.56000018119812,learn,38439.99981880188,Fri Mar 07 2025 16:36:32 GMT-0600 (Central Standard Time),196551.60000000056,A,homeenter,O,enter,229,1,4547.4000000003725,192004.2000000002,7078,WL,C,8.0
1,22.9760000705719,learn,37023.9999294281,Fri Mar 07 2025 16:36:32 GMT-0600 (Central Standard Time),197967.7000000002,A,c,O,c,1394,1,1415.5999999996275,196552.10000000056,7078,WL,C,9.0
1,23.009000062942505,learn,36990.999937057495,Fri Mar 07 2025 16:36:32 GMT-0600 (Central Standard Time),198000.60000000056,A,co,O,o,18,1,1448.5,196552.10000000056,7078,WL,C,9.0
1,23.225000143051147,learn,36774.99985694885,Fri Mar 07 2025 16:36:32 GMT-0600 (Central Standard Time),198217.5,A,cor,O,r,210,1,1665.3999999994412,196552.10000000056,7078,WL,C,9.0
1,23.409000158309937,learn,36590.99984169006,Fri Mar 07 2025 16:36:32 GMT-0600 (Central Standard Time),198400.90000000037,A,corn,O,n,169,1,1848.7999999998137,196552.10000000056,7078,WL,C,9.0
1,23.692000150680542,learn,36307.99984931946,Fri Mar 07 2025 16:36:32 GMT-0600 (Central Standard Time),198684.10000000056,A,cornenter,O,enter,274,1,2132.0,196552.10000000056,7078,WL,C,9.0
1,36.82100009918213,learn,23178.99990081787,Fri Mar 07 2025 16:36:32 GMT-0600 (Central Standard Time),211813.10000000056,A,enter,O,enter,13116,1,13128.600000000559,198684.5,7078,WL,C,10.0
1,37.30400013923645,learn,22695.99986076355,Fri Mar 07 2025 16:36:32 GMT-0600 (Central Standard Time),212296.5,A,enter,O,enter,468,1,483.19999999925494,211813.30000000075,7078,WL,C,11.0
1,37.97100019454956,learn,22028.99980545044,Fri Mar 07 2025 16:36:32 GMT-0600 (Central Standard Time),212963.0,A,enter,O,enter,650,1,666.1999999992549,212296.80000000075,7078,WL,C,12.0
1,38.88700008392334,learn,21112.99991607666,Fri Mar 07 2025 16:36:32 GMT-0600 (Central Standard Time),213879.60000000056,A,enter,O,enter,911,1,916.1000000005588,212963.5,7078,WL,C,13.0
1,39.4539999961853,learn,20546.000003814697,Fri Mar 07 2025 16:36:32 GMT-0600 (Central Standard Time),214445.7000000002,A,enter,O,enter,555,1,565.8999999994412,213879.80000000075,7078,WL,C,14.0
1,39.88700008392334,learn,20112.99991607666,Fri Mar 07 2025 16:36:32 GMT-0600 (Central Standard Time),214879.10000000056,A,enter,O,enter,420,1,433.0,214446.10000000056,7078,WL,C,15.0
2,1.1669998168945312,learn,58833.00018310547,Fri Mar 07 2025 16:36:32 GMT-0600 (Central Standard Time),281558.10000000056,A,n,O,n,1147,1,1166.2000000001863,280391.9000000004,7078,WL,C,1.0
2,1.2829999923706055,learn,58717.000007629395,Fri Mar 07 2025 16:36:32 GMT-0600 (Central Standard Time),281674.80000000075,A,na,O,a,108,1,1282.9000000003725,280391.9000000004,7078,WL,C,1.0
2,1.432999849319458,learn,58567.00015068054,Fri Mar 07 2025 16:36:32 GMT-0600 (Central Standard Time),281824.7000000002,A,nai,O,i,143,1,1432.7999999998137,280391.9000000004,7078,WL,C,1.0
2,1.5829999446868896,learn,58417.00005531311,Fri Mar 07 2025 16:36:32 GMT-0600 (Central Standard Time),281974.60000000056,A,nail,O,l,130,1,1582.7000000001863,280391.9000000004,7078,WL,C,1.0
2,1.9279999732971191,learn,58072.00002670288,Fri Mar 07 2025 16:36:32 GMT-0600 (Central Standard Time),282319.2000000002,A,nailenter,O,enter,340,1,1927.2999999998137,280391.9000000004,7078,WL,C,1.0
2,2.365999937057495,learn,57634.000062942505,Fri Mar 07 2025 16:36:32 GMT-0600 (Central Standard Time),282757.9000000004,A,c,O,c,425,1,438.09999999962747,282319.80000000075,7078,WL,C,2.0
2,2.5329999923706055,learn,57467.000007629395,Fri Mar 07 2025 16:36:32 GMT-0600 (Central Standard Time),282924.30000000075,A,co,O,o,156,1,604.5,282319.80000000075,7078,WL,C,2.0
2,2.682999849319458,learn,57317.00015068054,Fri Mar 07 2025 16:36:32 GMT-0600 (Central Standard Time),283074.7000000002,A,cor,O,r,134,1,754.8999999994412,282319.80000000075,7078,WL,C,2.0
2,2.7829999923706055,learn,57217.000007629395,Fri Mar 07 2025 16:36:32 GMT-0600 (Central Standard Time),283174.60000000056,A,corn,O,n,87,1,854.7999999998137,282319.80000000075,7078,WL,C,2.0
2,3.6489999294281006,learn,56351.0000705719,Fri Mar 07 2025 16:36:32 GMT-0600 (Central Standard Time),284040.7000000002,A,cornenter,O,enter,860,1,1720.8999999994412,282319.80000000075,7078,WL,C,2.0
2,4.265999794006348,learn,55734.00020599365,Fri Mar 07 2025 16:36:32 GMT-0600 (Central Standard Time),284657.30000000075,A,c,O,c,601,1,616.2000000001863,284041.10000000056,7078,WL,C,3.0
2,4.381999969482422,learn,55618.00003051758,Fri Mar 07 2025 16:36:32 GMT-0600 (Central Standard Time),284773.80000000075,A,ca,O,a,105,1,732.7000000001863,284041.10000000056,7078,WL,C,3.0
2,4.615999937057495,learn,55384.000062942505,Fri Mar 07 2025 16:36:32 GMT-0600 (Central Standard Time),285007.30000000075,A,cal,O,l,228,1,966.2000000001863,284041.10000000056,7078,WL,C,3.0
2,5.031999826431274,learn,54968.000173568726,Fri Mar 07 2025 16:36:32 GMT-0600 (Central Standard Time),285423.5,A,ca,O,backspace,411,1,1382.3999999994412,284041.10000000056,7078,WL,C,3.0
2,5.131999969482422,learn,54868.00003051758,Fri Mar 07 2025 16:36:32 GMT-0600 (Central Standard Time),285523.60000000056,A,cat,O,t,91,1,1482.5,284041.10000000056,7078,WL,C,3.0
2,5.299000024795532,learn,54700.99997520447,Fri Mar 07 2025 16:36:32 GMT-0600 (Central Standard Time),285690.30000000075,A,catt,O,t,159,1,1649.2000000001863,284041.10000000056,7078,WL,C,3.0
2,5.448999881744385,learn,54551.000118255615,Fri Mar 07 2025 16:36:32 GMT-0600 (Central Standard Time),285839.9000000004,A,cattl,O,l,144,1,1798.7999999998137,284041.10000000056,7078,WL,C,3.0
2,5.56499981880188,learn,54435.00018119812,Fri Mar 07 2025 16:36:32 GMT-0600 (Central Standard Time),285956.80000000075,A,cattle,O,e,98,1,1915.7000000001863,284041.10000000056,7078,WL,C,3.0
2,5.7149999141693115,learn,54285.00008583069,Fri Mar 07 2025 16:36:32 GMT-0600 (Central Standard Time),286106.60000000056,A,cattleenter,O,enter,133,1,2065.5,284041.10000000056,7078,WL,C,3.0
2,6.299000024795532,learn,53700.99997520447,Fri Mar 07 2025 16:36:32 GMT-0600 (Central Standard Time),286690.0,A,b,O,b,576,1,583.0999999996275,286106.9000000004,7078,WL,C,4.0
2,6.381999969482422,learn,53618.00003051758,Fri Mar 07 2025 16:36:32 GMT-0600 (Central Standard Time),286773.2000000002,A,bo,O,o,64,1,666.2999999998137,286106.9000000004,7078,WL,C,4.0
2,6.56499981880188,learn,53435.00018119812,Fri Mar 07 2025 16:36:32 GMT-0600 (Central Standard Time),286956.4000000004,A,boy,O,y,165,1,849.5,286106.9000000004,7078,WL,C,4.0
2,7.365000009536743,learn,52634.99999046326,Fri Mar 07 2025 16:36:32 GMT-0600 (Central Standard Time),287756.0,A,boyenter,O,enter,782,1,1649.0999999996275,286106.9000000004,7078,WL,C,4.0
2,7.880999803543091,learn,52119.00019645691,Fri Mar 07 2025 16:36:32 GMT-0600 (Central Standard Time),288272.80000000075,A,q,O,q,510,1,516.4000000003725,287756.4000000004,7078,WL,C,5.0
2,8.014999866485596,learn,51985.000133514404,Fri Mar 07 2025 16:36:32 GMT-0600 (Central Standard Time),288406.2000000002,A,qu,O,u,113,1,649.7999999998137,287756.4000000004,7078,WL,C,5.0
2,8.164999961853027,learn,51835.00003814697,Fri Mar 07 2025 16:36:32 GMT-0600 (Central Standard Time),288556.2000000002,A,qui,O,i,140,1,799.7999999998137,287756.4000000004,7078,WL,C,5.0
2,8.63099980354309,learn,51369.00019645691,Fri Mar 07 2025 16:36:32 GMT-0600 (Central Standard Time),289022.5,A,qu,O,backspace,454,1,1266.0999999996275,287756.4000000004,7078,WL,C,5.0
2,8.71399998664856,learn,51286.00001335144,Fri Mar 07 2025 16:36:32 GMT-0600 (Central Standard Time),289105.7000000002,A,que,O,e,76,1,1349.2999999998137,287756.4000000004,7078,WL,C,5.0
2,8.913999795913696,learn,51086.000204086304,Fri Mar 07 2025 16:36:32 GMT-0600 (Central Standard Time),289305.7000000002,A,quee,O,e,193,1,1549.2999999998137,287756.4000000004,7078,WL,C,5.0
2,9.047999858856201,learn,50952.0001411438,Fri Mar 07 2025 16:36:32 GMT-0600 (Central Standard Time),289439.10000000056,A,queen,O,n,113,1,1682.7000000001863,287756.4000000004,7078,WL,C,5.0
2,9.46399998664856,learn,50536.00001335144,Fri Mar 07 2025 16:36:32 GMT-0600 (Central Standard Time),289855.5,A,queenenter,O,enter,403,1,2099.0999999996275,287756.4000000004,7078,WL,C,5.0
2,9.830999851226807,learn,50169.00014877319,Fri Mar 07 2025 16:36:32 GMT-0600 (Central Standard Time),290222.10000000056,A,c,O,c,347,1,366.20000000018626,289855.9000000004,7078,WL,C,6.0
2,9.96399998664856,learn,50036.00001335144,Fri Mar 07 2025 16:36:32 GMT-0600 (Central Standard Time),290355.5,A,ca,O,a,124,1,499.59999999962747,289855.9000000004,7078,WL,C,6.0
2,10.063999891281128,learn,49936.00010871887,Fri Mar 07 2025 16:36:32 GMT-0600 (Central Standard Time),290455.30000000075,A,cam,O,m,95,1,599.4000000003725,289855.9000000004,7078,WL,C,6.0
2,10.247999906539917,learn,49752.00009346008,Fri Mar 07 2025 16:36:32 GMT-0600 (Central Standard Time),290639.60000000056,A,camp,O,p,171,1,783.7000000001863,289855.9000000004,7078,WL,C,6.0
2,10.663999795913696,learn,49336.000204086304,Fri Mar 07 2025 16:36:32 GMT-0600 (Central Standard Time),291055.30000000075,A,campenter,O,enter,394,1,1199.4000000003725,289855.9000000004,7078,WL,C,6.0
2,10.996999979019165,learn,49003.000020980835,Fri Mar 07 2025 16:36:32 GMT-0600 (Central Standard Time),291388.5,A,t,O,t,315,1,332.8999999994412,291055.60000000056,7078,WL,C,7.0
2,11.063999891281128,learn,48936.00010871887,Fri Mar 07 2025 16:36:32 GMT-0600 (Central Standard Time),291455.0,A,to,O,o,54,1,399.3999999994412,291055.60000000056,7078,WL,C,7.0
2,11.179999828338623,learn,48820.00017166138,Fri Mar 07 2025 16:36:32 GMT-0600 (Central Standard Time),291571.5,A,tow,O,w,107,1,515.8999999994412,291055.60000000056,7078,WL,C,7.0
2,11.52999997138977,learn,48470.00002861023,Fri Mar 07 2025 16:36:32 GMT-0600 (Central Standard Time),291921.60000000056,A,towe,O,e,335,1,866.0,291055.60000000056,7078,WL,C,7.0
2,11.613999843597412,learn,48386.00015640259,Fri Mar 07 2025 16:36:32 GMT-0600 (Central Standard Time),292004.9000000004,A,tower,O,r,73,1,949.2999999998137,291055.60000000056,7078,WL,C,7.0
2,12.096999883651733,learn,47903.00011634827,Fri Mar 07 2025 16:36:32 GMT-0600 (Central Standard Time),292487.9000000004,A,towerenter,O,enter,476,1,1432.2999999998137,291055.60000000056,7078,WL,C,7.0
2,14.02899980545044,learn,45971.00019454956,Fri Mar 07 2025 16:36:32 GMT-0600 (Central Standard Time),294420.80000000075,A,d,O,d,1923,1,1932.7000000001863,292488.10000000056,7078,WL,C,8.0
2,14.128999948501587,learn,45871.00005149841,Fri Mar 07 2025 16:36:32 GMT-0600 (Central Standard Time),294520.80000000075,A,do,O,o,85,1,2032.7000000001863,292488.10000000056,7078,WL,C,8.0
2,14.263000011444092,learn,45736.99998855591,Fri Mar 07 2025 16:36:32 GMT-0600 (Central Standard Time),294654.0,A,doc,O,c,114,1,2165.899999999441,292488.10000000056,7078,WL,C,8.0
2,14.462999820709229,learn,45537.00017929077,Fri Mar 07 2025 16:36:32 GMT-0600 (Central Standard Time),294854.0,A,doct,O,t,189,1,2365.899999999441,292488.10000000056,7078,WL,C,8.0
2,14.52899980545044,learn,45471.00019454956,Fri Mar 07 2025 16:36:32 GMT-0600 (Central Standard Time),294920.60000000056,A,docto,O,o,60,1,2432.5,292488.10000000056,7078,WL,C,8.0
2,14.678999900817871,learn,45321.00009918213,Fri Mar 07 2025 16:36:32 GMT-0600 (Central Standard Time),295070.7000000002,A,doctor,O,r,138,1,2582.5999999996275,292488.10000000056,7078,WL,C,8.0
2,14.978999853134155,learn,45021.000146865845,Fri Mar 07 2025 16:36:32 GMT-0600 (Central Standard Time),295370.4000000004,A,doctorenter,O,enter,283,1,2882.2999999998137,292488.10000000056,7078,WL,C,8.0
2,16.394999980926514,learn,43605.000019073486,Fri Mar 07 2025 16:36:32 GMT-0600 (Central Standard Time),296786.7000000002,A,h,O,h,1408,1,1416.0,295370.7000000002,7078,WL,C,9.0
2,16.52899980545044,learn,43471.00019454956,Fri Mar 07 2025 16:36:32 GMT-0600 (Central Standard Time),296920.10000000056,A,ho,O,o,120,1,1549.4000000003725,295370.7000000002,7078,WL,C,9.0
2,16.644999980926514,learn,43355.000019073486,Fri Mar 07 2025 16:36:32 GMT-0600 (Central Standard Time),297036.60000000056,A,hom,O,m,106,1,1665.9000000003725,295370.7000000002,7078,WL,C,9.0
2,16.777999877929688,learn,43222.00012207031,Fri Mar 07 2025 16:36:32 GMT-0600 (Central Standard Time),297169.9000000004,A,home,O,e,118,1,1799.2000000001863,295370.7000000002,7078,WL,C,9.0
2,16.911999940872192,learn,43088.00005912781,Fri Mar 07 2025 16:36:32 GMT-0600 (Central Standard Time),297303.2000000002,A,homeenter,O,enter,113,1,1932.5,295370.7000000002,7078,WL,C,9.0
2,20.776999950408936,learn,39223.000049591064,Fri Mar 07 2025 16:36:32 GMT-0600 (Central Standard Time),301168.7000000002,A,s,O,s,3859,1,3865.0999999996275,297303.60000000056,7078,WL,C,10.0
2,20.876999855041504,learn,39123.000144958496,Fri Mar 07 2025 16:36:32 GMT-0600 (Central Standard Time),301268.60000000056,A,sh,O,h,82,1,3965.0,297303.60000000056,7078,WL,C,10.0
2,21.01099991798401,learn,38989.00008201599,Fri Mar 07 2025 16:36:32 GMT-0600 (Central Standard Time),301401.9000000004,A,sho,O,o,126,1,4098.299999999814,297303.60000000056,7078,WL,C,10.0
2,21.110999822616577,learn,38889.00017738342,Fri Mar 07 2025 16:36:32 GMT-0600 (Central Standard Time),301501.9000000004,A,shor,O,r,81,1,4198.299999999814,297303.60000000056,7078,WL,C,10.0
2,21.24399995803833,learn,38756.00004196167,Fri Mar 07 2025 16:36:32 GMT-0600 (Central Standard Time),301635.30000000075,A,shore,O,e,117,1,4331.700000000186,297303.60000000056,7078,WL,C,10.0
2,21.3439998626709,learn,38656.0001373291,Fri Mar 07 2025 16:36:32 GMT-0600 (Central Standard Time),301735.10000000056,A,shoreenter,O,enter,87,1,4431.5,297303.60000000056,7078,WL,C,10.0
2,26.991999864578247,learn,33008.00013542175,Fri Mar 07 2025 16:36:32 GMT-0600 (Central Standard Time),307383.4000000004,A,f,O,f,5635,1,5647.9000000003725,301735.5,7078,WL,C,11.0
2,27.158999919891357,learn,32841.00008010864,Fri Mar 07 2025 16:36:32 GMT-0600 (Central Standard Time),307550.10000000056,A,fl,O,l,147,1,5814.600000000559,301735.5,7078,WL,C,11.0
2,27.242999792099,learn,32757.000207901,Fri Mar 07 2025 16:36:32 GMT-0600 (Central Standard Time),307634.5,A,fla,O,a,68,1,5899.0,301735.5,7078,WL,C,11.0
2,27.592000007629395,learn,32407.999992370605,Fri Mar 07 2025 16:36:32 GMT-0600 (Central Standard Time),307983.10000000056,A,flag,O,g,335,1,6247.600000000559,301735.5,7078,WL,C,11.0
2,27.72499990463257,learn,32275.00009536743,Fri Mar 07 2025 16:36:32 GMT-0600 (Central Standard Time),308116.2000000002,A,flagenter,O,enter,123,1,6380.700000000186,301735.5,7078,WL,C,11.0
2,32.35699987411499,learn,27643.00012588501,Fri Mar 07 2025 16:36:32 GMT-0600 (Central Standard Time),312748.2000000002,A,l,O,l,4615,1,4631.799999999814,308116.4000000004,7078,WL,C,12.0
2,32.45700001716614,learn,27542.999982833862,Fri Mar 07 2025 16:36:32 GMT-0600 (Central Standard Time),312848.30000000075,A,le,O,e,86,1,4731.9000000003725,308116.4000000004,7078,WL,C,12.0
2,32.60699987411499,learn,27393.00012588501,Fri Mar 07 2025 16:36:32 GMT-0600 (Central Standard Time),312998.4000000004,A,let,O,t,130,1,4882.0,308116.4000000004,7078,WL,C,12.0
2,32.78999996185303,learn,27210.000038146973,Fri Mar 07 2025 16:36:32 GMT-0600 (Central Standard Time),313181.60000000056,A,lett,O,t,172,1,5065.200000000186,308116.4000000004,7078,WL,C,12.0
2,32.93999981880188,learn,27060.00018119812,Fri Mar 07 2025 16:36:32 GMT-0600 (Central Standard Time),313331.4000000004,A,lette,O,e,141,1,5215.0,308116.4000000004,7078,WL,C,12.0
2,33.03999996185303,learn,26960.000038146973,Fri Mar 07 2025 16:36:32 GMT-0600 (Central Standard Time),313431.60000000056,A,letter,O,r,79,1,5315.200000000186,308116.4000000004,7078,WL,C,12.0
2,33.1729998588562,learn,26827.0001411438,Fri Mar 07 2025 16:36:32 GMT-0600 (Central Standard Time),313564.7000000002,A,letterenter,O,enter,123,1,5448.299999999814,308116.4000000004,7078,WL,C,12.0
2,36.15599989891052,learn,23844.000101089478,Fri Mar 07 2025 16:36:32 GMT-0600 (Central Standard Time),316547.30000000075,A,enter,O,enter,2974,1,2982.2000000001863,313565.10000000056,7078,WL,C,13.0
2,36.52300000190735,learn,23476.99999809265,Fri Mar 07 2025 16:36:32 GMT-0600 (Central Standard Time),316913.9000000004,A,enter,O,enter,351,1,366.29999999981374,316547.60000000056,7078,WL,C,14.0
2,36.98899984359741,learn,23011.000156402588,Fri Mar 07 2025 16:36:32 GMT-0600 (Central Standard Time),317380.30000000075,A,enter,O,enter,449,1,466.1000000005588,316914.2000000002,7078,WL,C,15.0
3,1.183000087738037,learn,58816.99991226196,Fri Mar 07 2025 16:36:32 GMT-0600 (Central Standard Time),383292.4000000004,A,n,O,n,1173,1,1182.7000000001863,382109.7000000002,7078,WL,C,1.0
3,1.3329999446868896,learn,58667.00005531311,Fri Mar 07 2025 16:36:32 GMT-0600 (Central Standard Time),383442.60000000056,A,na,O,a,134,1,1332.9000000003725,382109.7000000002,7078,WL,C,1.0
3,1.4670000076293945,learn,58532.999992370605,Fri Mar 07 2025 16:36:32 GMT-0600 (Central Standard Time),383576.2000000002,A,nai,O,i,119,1,1466.5,382109.7000000002,7078,WL,C,1.0
3,1.6329998970031738,learn,58367.000102996826,Fri Mar 07 2025 16:36:32 GMT-0600 (Central Standard Time),383742.4000000004,A,nail,O,l,154,1,1632.7000000001863,382109.7000000002,7078,WL,C,1.0
3,1.815999984741211,learn,58184.00001525879,Fri Mar 07 2025 16:36:32 GMT-0600 (Central Standard Time),383925.7000000002,A,nailenter,O,enter,172,1,1816.0,382109.7000000002,7078,WL,C,1.0
3,2.6489999294281006,learn,57351.0000705719,Fri Mar 07 2025 16:36:32 GMT-0600 (Central Standard Time),384759.10000000056,A,c,O,c,829,1,833.2000000001863,383925.9000000004,7078,WL,C,2.0
3,2.803999900817871,learn,57196.00009918213,Fri Mar 07 2025 16:36:32 GMT-0600 (Central Standard Time),384914.0,A,co,O,o,131,1,988.0999999996275,383925.9000000004,7078,WL,C,2.0
3,2.9159998893737793,learn,57084.00011062622,Fri Mar 07 2025 16:36:32 GMT-0600 (Central Standard Time),385025.4000000004,A,cor,O,r,104,1,1099.5,383925.9000000004,7078,WL,C,2.0
3,3.0160000324249268,learn,56983.99996757507,Fri Mar 07 2025 16:36:32 GMT-0600 (Central Standard Time),385125.5,A,corn,O,n,91,1,1199.5999999996275,383925.9000000004,7078,WL,C,2.0
3,3.2160000801086426,learn,56783.99991989136,Fri Mar 07 2025 16:36:32 GMT-0600 (Central Standard Time),385325.4000000004,A,cornenter,O,enter,180,1,1399.5,383925.9000000004,7078,WL,C,2.0
3,3.6700000762939453,learn,56329.999923706055,Fri Mar 07 2025 16:36:32 GMT-0600 (Central Standard Time),385779.80000000075,A,c,O,c,445,1,454.20000000018626,385325.60000000056,7078,WL,C,3.0
3,3.815000057220459,learn,56184.99994277954,Fri Mar 07 2025 16:36:32 GMT-0600 (Central Standard Time),385925.2000000002,A,ca,O,a,129,1,599.5999999996275,385325.60000000056,7078,WL,C,3.0
3,3.9489998817443848,learn,56051.000118255615,Fri Mar 07 2025 16:36:32 GMT-0600 (Central Standard Time),386058.5,A,cat,O,t,120,1,732.8999999994412,385325.60000000056,7078,WL,C,3.0
3,4.131999969482422,learn,55868.00003051758,Fri Mar 07 2025 16:36:32 GMT-0600 (Central Standard Time),386241.9000000004,A,catt,O,t,167,1,916.2999999998137,385325.60000000056,7078,WL,C,3.0
3,4.2820000648498535,learn,55717.99993515015,Fri Mar 07 2025 16:36:32 GMT-0600 (Central Standard Time),386391.60000000056,A,cattl,O,l,144,1,1066.0,385325.60000000056,7078,WL,C,3.0
3,4.382999897003174,learn,55617.000102996826,Fri Mar 07 2025 16:36:32 GMT-0600 (Central Standard Time),386492.80000000075,A,cattle,O,e,90,1,1167.2000000001863,385325.60000000056,7078,WL,C,3.0
3,4.818000078201294,learn,55181.999921798706,Fri Mar 07 2025 16:36:32 GMT-0600 (Central Standard Time),386927.9000000004,A,cattleenter,O,enter,413,1,1602.2999999998137,385325.60000000056,7078,WL,C,3.0
3,5.2149999141693115,learn,54785.00008583069,Fri Mar 07 2025 16:36:32 GMT-0600 (Central Standard Time),387324.80000000075,A,w,O,w,378,1,396.6000000005588,386928.2000000002,7078,WL,C,4.0
3,5.315000057220459,learn,54684.99994277954,Fri Mar 07 2025 16:36:32 GMT-0600 (Central Standard Time),387424.7000000002,A,wh,O,h,93,1,496.5,386928.2000000002,7078,WL,C,4.0
3,5.865000009536743,learn,54134.99999046326,Fri Mar 07 2025 16:36:32 GMT-0600 (Central Standard Time),387974.5,A,whe,O,e,529,1,1046.2999999998137,386928.2000000002,7078,WL,C,4.0
3,5.980999946594238,learn,54019.00005340576,Fri Mar 07 2025 16:36:32 GMT-0600 (Central Standard Time),388091.10000000056,A,whea,O,a,99,1,1162.9000000003725,386928.2000000002,7078,WL,C,4.0
3,6.065000057220459,learn,53934.99994277954,Fri Mar 07 2025 16:36:32 GMT-0600 (Central Standard Time),388174.60000000056,A,wheat,O,t,71,1,1246.4000000003725,386928.2000000002,7078,WL,C,4.0
3,6.430999994277954,learn,53569.000005722046,Fri Mar 07 2025 16:36:32 GMT-0600 (Central Standard Time),388540.9000000004,A,wheatenter,O,enter,355,1,1612.7000000001863,386928.2000000002,7078,WL,C,4.0
3,10.895999908447266,learn,49104.000091552734,Fri Mar 07 2025 16:36:32 GMT-0600 (Central Standard Time),393006.10000000056,A,s,O,s,4453,1,4464.9000000003725,388541.2000000002,7078,WL,C,5.0
3,11.114000082015991,learn,48885.99991798401,Fri Mar 07 2025 16:36:32 GMT-0600 (Central Standard Time),393223.4000000004,A,su,O,u,212,1,4682.200000000186,388541.2000000002,7078,WL,C,5.0
3,11.180000066757202,learn,48819.9999332428,Fri Mar 07 2025 16:36:32 GMT-0600 (Central Standard Time),393289.5,A,sug,O,g,51,1,4748.299999999814,388541.2000000002,7078,WL,C,5.0
3,11.329999923706055,learn,48670.000076293945,Fri Mar 07 2025 16:36:32 GMT-0600 (Central Standard Time),393439.30000000075,A,suga,O,a,138,1,4898.100000000559,388541.2000000002,7078,WL,C,5.0
3,11.463000059127808,learn,48536.99994087219,Fri Mar 07 2025 16:36:32 GMT-0600 (Central Standard Time),393572.7000000002,A,sugar,O,r,115,1,5031.5,388541.2000000002,7078,WL,C,5.0
3,11.678999900817871,learn,48321.00009918213,Fri Mar 07 2025 16:36:32 GMT-0600 (Central Standard Time),393789.2000000002,A,sugarenter,O,enter,198,1,5248.0,388541.2000000002,7078,WL,C,5.0
3,12.19599986076355,learn,47804.00013923645,Fri Mar 07 2025 16:36:32 GMT-0600 (Central Standard Time),394305.7000000002,A,d,O,d,501,1,516.2999999998137,393789.4000000004,7078,WL,C,6.0
3,12.328999996185303,learn,47671.0000038147,Fri Mar 07 2025 16:36:32 GMT-0600 (Central Standard Time),394439.0,A,do,O,o,120,1,649.5999999996275,393789.4000000004,7078,WL,C,6.0
3,12.779000043869019,learn,47220.99995613098,Fri Mar 07 2025 16:36:32 GMT-0600 (Central Standard Time),394888.80000000075,A,doc,O,c,443,1,1099.4000000003725,393789.4000000004,7078,WL,C,6.0
3,13.029000043869019,learn,46970.99995613098,Fri Mar 07 2025 16:36:32 GMT-0600 (Central Standard Time),395138.80000000075,A,doct,O,t,241,1,1349.4000000003725,393789.4000000004,7078,WL,C,6.0
3,13.128999948501587,learn,46871.00005149841,Fri Mar 07 2025 16:36:32 GMT-0600 (Central Standard Time),395238.80000000075,A,docto,O,o,79,1,1449.4000000003725,393789.4000000004,7078,WL,C,6.0
3,13.26200008392334,learn,46737.99991607666,Fri Mar 07 2025 16:36:32 GMT-0600 (Central Standard Time),395372.0,A,doctor,O,r,123,1,1582.5999999996275,393789.4000000004,7078,WL,C,6.0
3,13.562000036239624,learn,46437.999963760376,Fri Mar 07 2025 16:36:32 GMT-0600 (Central Standard Time),395672.0,A,doctorenter,O,enter,294,1,1882.5999999996275,393789.4000000004,7078,WL,C,6.0
3,13.878999948501587,learn,46121.00005149841,Fri Mar 07 2025 16:36:32 GMT-0600 (Central Standard Time),395988.80000000075,A,b,O,b,307,1,316.6000000005588,395672.2000000002,7078,WL,C,7.0
3,14.029000043869019,learn,45970.99995613098,Fri Mar 07 2025 16:36:32 GMT-0600 (Central Standard Time),396138.5,A,bo,O,o,134,1,466.29999999981374,395672.2000000002,7078,WL,C,7.0
3,14.378999948501587,learn,45621.00005149841,Fri Mar 07 2025 16:36:32 GMT-0600 (Central Standard Time),396488.4000000004,A,boy,O,y,344,1,816.2000000001863,395672.2000000002,7078,WL,C,7.0
3,14.92799997329712,learn,45072.00002670288,Fri Mar 07 2025 16:36:32 GMT-0600 (Central Standard Time),397038.2000000002,A,boyc,O,c,530,1,1366.0,395672.2000000002,7078,WL,C,7.0
3,15.062000036239624,learn,44937.999963760376,Fri Mar 07 2025 16:36:32 GMT-0600 (Central Standard Time),397171.5,A,boyca,O,a,116,1,1499.2999999998137,395672.2000000002,7078,WL,C,7.0
3,15.711999893188477,learn,44288.00010681152,Fri Mar 07 2025 16:36:32 GMT-0600 (Central Standard Time),397821.4000000004,A,boyc,O,backspace,639,1,2149.2000000001863,395672.2000000002,7078,WL,C,7.0
3,15.82800006866455,learn,44171.99993133545,Fri Mar 07 2025 16:36:32 GMT-0600 (Central Standard Time),397937.9000000004,A,boy,O,backspace,101,1,2265.7000000001863,395672.2000000002,7078,WL,C,7.0
3,16.244999885559082,learn,43755.00011444092,Fri Mar 07 2025 16:36:32 GMT-0600 (Central Standard Time),398354.5,A,boyenter,O,enter,408,1,2682.2999999998137,395672.2000000002,7078,WL,C,7.0
3,16.560999870300293,learn,43439.00012969971,Fri Mar 07 2025 16:36:32 GMT-0600 (Central Standard Time),398671.10000000056,A,c,O,c,296,1,316.29999999981374,398354.80000000075,7078,WL,C,8.0
3,16.727999925613403,learn,43272.0000743866,Fri Mar 07 2025 16:36:32 GMT-0600 (Central Standard Time),398837.7000000002,A,ca,O,a,155,1,482.8999999994412,398354.80000000075,7078,WL,C,8.0
3,16.977999925613403,learn,43022.0000743866,Fri Mar 07 2025 16:36:32 GMT-0600 (Central Standard Time),399087.60000000056,A,cam,O,m,245,1,732.7999999998137,398354.80000000075,7078,WL,C,8.0
3,17.26099991798401,learn,42739.00008201599,Fri Mar 07 2025 16:36:32 GMT-0600 (Central Standard Time),399370.9000000004,A,camp,O,p,267,1,1016.0999999996275,398354.80000000075,7078,WL,C,8.0
3,17.5939998626709,learn,42406.0001373291,Fri Mar 07 2025 16:36:32 GMT-0600 (Central Standard Time),399704.0,A,campenter,O,enter,320,1,1349.199999999255,398354.80000000075,7078,WL,C,8.0
3,18.861000061035156,learn,41138.999938964844,Fri Mar 07 2025 16:36:32 GMT-0600 (Central Standard Time),400970.4000000004,A,d,O,d,1250,1,1266.0999999996275,399704.30000000075,7078,WL,C,9.0
3,18.99399995803833,learn,41006.00004196167,Fri Mar 07 2025 16:36:32 GMT-0600 (Central Standard Time),401103.7000000002,A,do,O,o,128,1,1399.3999999994412,399704.30000000075,7078,WL,C,9.0
3,19.111000061035156,learn,40888.999938964844,Fri Mar 07 2025 16:36:32 GMT-0600 (Central Standard Time),401220.5,A,doc,O,c,107,1,1516.199999999255,399704.30000000075,7078,WL,C,9.0
3,19.30999994277954,learn,40690.00005722046,Fri Mar 07 2025 16:36:32 GMT-0600 (Central Standard Time),401420.2000000002,A,doct,O,t,190,1,1715.8999999994412,399704.30000000075,7078,WL,C,9.0
3,19.41000008583069,learn,40589.99991416931,Fri Mar 07 2025 16:36:32 GMT-0600 (Central Standard Time),401520.2000000002,A,docto,O,o,86,1,1815.8999999994412,399704.30000000075,7078,WL,C,9.0
3,19.526999950408936,learn,40473.000049591064,Fri Mar 07 2025 16:36:32 GMT-0600 (Central Standard Time),401636.80000000075,A,doctor,O,r,105,1,1932.5,399704.30000000075,7078,WL,C,9.0
3,19.710000038146973,learn,40289.99996185303,Fri Mar 07 2025 16:36:32 GMT-0600 (Central Standard Time),401820.0,A,doctorenter,O,enter,174,1,2115.699999999255,399704.30000000075,7078,WL,C,9.0
3,21.359999895095825,learn,38640.000104904175,Fri Mar 07 2025 16:36:32 GMT-0600 (Central Standard Time),403469.5,A,l,O,l,1630,1,1649.199999999255,401820.30000000075,7078,WL,C,10.0
3,21.509999990463257,learn,38490.00000953674,Fri Mar 07 2025 16:36:32 GMT-0600 (Central Standard Time),403619.5,A,le,O,e,141,1,1799.199999999255,401820.30000000075,7078,WL,C,10.0
3,21.609999895095825,learn,38390.000104904175,Fri Mar 07 2025 16:36:32 GMT-0600 (Central Standard Time),403719.60000000056,A,let,O,t,87,1,1899.2999999998137,401820.30000000075,7078,WL,C,10.0
3,21.80999994277954,learn,38190.00005722046,Fri Mar 07 2025 16:36:32 GMT-0600 (Central Standard Time),403919.4000000004,A,lett,O,t,195,1,2099.0999999996275,401820.30000000075,7078,WL,C,10.0
3,21.943000078201294,learn,38056.999921798706,Fri Mar 07 2025 16:36:32 GMT-0600 (Central Standard Time),404052.80000000075,A,lette,O,e,123,1,2232.5,401820.30000000075,7078,WL,C,10.0
3,22.042999982833862,learn,37957.00001716614,Fri Mar 07 2025 16:36:32 GMT-0600 (Central Standard Time),404152.7000000002,A,letter,O,r,93,1,2332.399999999441,401820.30000000075,7078,WL,C,10.0
3,22.210000038146973,learn,37789.99996185303,Fri Mar 07 2025 16:36:32 GMT-0600 (Central Standard Time),404319.30000000075,A,letterenter,O,enter,146,1,2499.0,401820.30000000075,7078,WL,C,10.0
3,23.2260000705719,learn,36773.9999294281,Fri Mar 07 2025 16:36:32 GMT-0600 (Central Standard Time),405335.60000000056,A,f,O,f,1011,1,1016.1000000005588,404319.5,7078,WL,C,11.0
3,23.375999927520752,learn,36624.00007247925,Fri Mar 07 2025 16:36:32 GMT-0600 (Central Standard Time),405485.60000000056,A,fl,O,l,138,1,1166.1000000005588,404319.5,7078,WL,C,11.0
3,23.491999864578247,learn,36508.00013542175,Fri Mar 07 2025 16:36:32 GMT-0600 (Central Standard Time),405602.2000000002,A,fla,O,a,109,1,1282.7000000001863,404319.5,7078,WL,C,11.0
3,23.7260000705719,learn,36273.9999294281,Fri Mar 07 2025 16:36:32 GMT-0600 (Central Standard Time),405835.5,A,flag,O,g,216,1,1516.0,404319.5,7078,WL,C,11.0
3,23.80900001525879,learn,36190.99998474121,Fri Mar 07 2025 16:36:32 GMT-0600 (Central Standard Time),405918.9000000004,A,flagenter,O,enter,79,1,1599.4000000003725,404319.5,7078,WL,C,11.0
3,25.491999864578247,learn,34508.00013542175,Fri Mar 07 2025 16:36:32 GMT-0600 (Central Standard Time),407601.60000000056,A,w,O,w,1667,1,1682.2999999998137,405919.30000000075,7078,WL,C,12.0
3,25.608999967575073,learn,34391.00003242493,Fri Mar 07 2025 16:36:32 GMT-0600 (Central Standard Time),407718.30000000075,A,wh,O,h,104,1,1799.0,405919.30000000075,7078,WL,C,12.0
3,25.625,learn,34375.0,Fri Mar 07 2025 16:36:32 GMT-0600 (Central Standard Time),407735.2000000002,A,whe,O,e,12,1,1815.8999999994412,405919.30000000075,7078,WL,C,12.0
3,26.075000047683716,learn,33924.999952316284,Fri Mar 07 2025 16:36:32 GMT-0600 (Central Standard Time),408184.7000000002,A,whea,O,a,444,1,2265.399999999441,405919.30000000075,7078,WL,C,12.0
3,26.174999952316284,learn,33825.000047683716,Fri Mar 07 2025 16:36:32 GMT-0600 (Central Standard Time),408284.80000000075,A,wheat,O,t,81,1,2365.5,405919.30000000075,7078,WL,C,12.0
3,26.45799994468689,learn,33542.00005531311,Fri Mar 07 2025 16:36:32 GMT-0600 (Central Standard Time),408567.9000000004,A,wheatenter,O,enter,277,1,2648.5999999996275,405919.30000000075,7078,WL,C,12.0
3,33.94000005722046,learn,26059.99994277954,Fri Mar 07 2025 16:36:32 GMT-0600 (Central Standard Time),416049.30000000075,A,s,O,s,7474,1,7481.100000000559,408568.2000000002,7078,WL,C,13.0
3,34.039000034332275,learn,25960.999965667725,Fri Mar 07 2025 16:36:32 GMT-0600 (Central Standard Time),416149.2000000002,A,sh,O,h,81,1,7581.0,408568.2000000002,7078,WL,C,13.0
3,34.19000005722046,learn,25809.99994277954,Fri Mar 07 2025 16:36:32 GMT-0600 (Central Standard Time),416299.30000000075,A,sho,O,o,141,1,7731.100000000559,408568.2000000002,7078,WL,C,13.0
3,34.32299995422363,learn,25677.000045776367,Fri Mar 07 2025 16:36:32 GMT-0600 (Central Standard Time),416432.4000000004,A,shor,O,r,119,1,7864.200000000186,408568.2000000002,7078,WL,C,13.0
3,34.456000089645386,learn,25543.999910354614,Fri Mar 07 2025 16:36:32 GMT-0600 (Central Standard Time),416565.7000000002,A,shore,O,e,114,1,7997.5,408568.2000000002,7078,WL,C,13.0
3,34.60599994659424,learn,25394.00005340576,Fri Mar 07 2025 16:36:32 GMT-0600 (Central Standard Time),416715.9000000004,A,shoreenter,O,enter,133,1,8147.700000000186,408568.2000000002,7078,WL,C,13.0
3,39.454999923706055,learn,20545.000076293945,Fri Mar 07 2025 16:36:32 GMT-0600 (Central Standard Time),421564.4000000004,A,enter,O,enter,4830,1,4848.200000000186,416716.2000000002,7078,WL,C,14.0
3,39.7039999961853,learn,20296.000003814697,Fri Mar 07 2025 16:36:32 GMT-0600 (Central Standard Time),421814.2000000002,A,enter,O,enter,230,1,249.3999999994412,421564.80000000075,7078,WL,C,15.0
4,0.9500000476837158,learn,59049.999952316284,Fri Mar 07 2025 16:36:32 GMT-0600 (Central Standard Time),487343.80000000075,A,n,O,n,930,1,949.5,486394.30000000075,7078,WL,C,1.0
4,1.1159999370574951,learn,58884.000062942505,Fri Mar 07 2025 16:36:32 GMT-0600 (Central Standard Time),487510.30000000075,A,na,O,a,146,1,1116.0,486394.30000000075,7078,WL,C,1.0
4,1.2829999923706055,learn,58717.000007629395,Fri Mar 07 2025 16:36:32 GMT-0600 (Central Standard Time),487677.0,A,nai,O,i,148,1,1282.699999999255,486394.30000000075,7078,WL,C,1.0
4,1.4660000801086426,learn,58533.99991989136,Fri Mar 07 2025 16:36:32 GMT-0600 (Central Standard Time),487860.2000000002,A,nail,O,l,166,1,1465.8999999994412,486394.30000000075,7078,WL,C,1.0
4,2.199000120162964,learn,57800.999879837036,Fri Mar 07 2025 16:36:32 GMT-0600 (Central Standard Time),488593.2000000002,A,nailenter,O,enter,718,1,2198.899999999441,486394.30000000075,7078,WL,C,1.0
4,2.7820000648498535,learn,57217.99993515015,Fri Mar 07 2025 16:36:32 GMT-0600 (Central Standard Time),489176.2000000002,A,s,O,s,577,1,582.7999999998137,488593.4000000004,7078,WL,C,2.0
4,2.883000135421753,learn,57116.99986457825,Fri Mar 07 2025 16:36:32 GMT-0600 (Central Standard Time),489276.4000000004,A,sh,O,h,82,1,683.0,488593.4000000004,7078,WL,C,2.0
4,3.0160000324249268,learn,56983.99996757507,Fri Mar 07 2025 16:36:32 GMT-0600 (Central Standard Time),489409.9000000004,A,sho,O,o,118,1,816.5,488593.4000000004,7078,WL,C,2.0
4,3.0989999771118164,learn,56901.00002288818,Fri Mar 07 2025 16:36:32 GMT-0600 (Central Standard Time),489493.0,A,shor,O,r,73,1,899.5999999996275,488593.4000000004,7078,WL,C,2.0
4,3.2840001583099365,learn,56715.99984169006,Fri Mar 07 2025 16:36:32 GMT-0600 (Central Standard Time),489677.4000000004,A,shore,O,e,173,1,1084.0,488593.4000000004,7078,WL,C,2.0
4,3.4160001277923584,learn,56583.99987220764,Fri Mar 07 2025 16:36:32 GMT-0600 (Central Standard Time),489809.60000000056,A,shoreenter,O,enter,125,1,1216.2000000001863,488593.4000000004,7078,WL,C,2.0
4,3.7320001125335693,learn,56267.99988746643,Fri Mar 07 2025 16:36:32 GMT-0600 (Central Standard Time),490126.2000000002,A,b,O,b,305,1,316.3999999994412,489809.80000000075,7078,WL,C,3.0
4,3.8320000171661377,learn,56167.99998283386,Fri Mar 07 2025 16:36:32 GMT-0600 (Central Standard Time),490226.2000000002,A,bo,O,o,84,1,416.3999999994412,489809.80000000075,7078,WL,C,3.0
4,4.199000120162964,learn,55800.999879837036,Fri Mar 07 2025 16:36:32 GMT-0600 (Central Standard Time),490592.60000000056,A,bod,O,d,352,1,782.7999999998137,489809.80000000075,7078,WL,C,3.0
4,4.315000057220459,learn,55684.99994277954,Fri Mar 07 2025 16:36:32 GMT-0600 (Central Standard Time),490709.30000000075,A,body,O,y,98,1,899.5,489809.80000000075,7078,WL,C,3.0
4,4.631999969482422,learn,55368.00003051758,Fri Mar 07 2025 16:36:32 GMT-0600 (Central Standard Time),491025.80000000075,A,bodyenter,O,enter,301,1,1216.0,489809.80000000075,7078,WL,C,3.0
4,5.049000024795532,learn,54950.99997520447,Fri Mar 07 2025 16:36:32 GMT-0600 (Central Standard Time),491442.4000000004,A,c,O,c,401,1,416.20000000018626,491026.2000000002,7078,WL,C,4.0
4,5.164999961853027,learn,54835.00003814697,Fri Mar 07 2025 16:36:32 GMT-0600 (Central Standard Time),491559.10000000056,A,ca,O,a,104,1,532.9000000003725,491026.2000000002,7078,WL,C,4.0
4,5.265000104904175,learn,54734.999895095825,Fri Mar 07 2025 16:36:32 GMT-0600 (Central Standard Time),491659.2000000002,A,cam,O,m,91,1,633.0,491026.2000000002,7078,WL,C,4.0
4,5.447999954223633,learn,54552.00004577637,Fri Mar 07 2025 16:36:32 GMT-0600 (Central Standard Time),491842.2000000002,A,camp,O,p,175,1,816.0,491026.2000000002,7078,WL,C,4.0
4,5.865000009536743,learn,54134.99999046326,Fri Mar 07 2025 16:36:32 GMT-0600 (Central Standard Time),492258.80000000075,A,campenter,O,enter,408,1,1232.6000000005588,491026.2000000002,7078,WL,C,4.0
4,6.414999961853027,learn,53585.00003814697,Fri Mar 07 2025 16:36:32 GMT-0600 (Central Standard Time),492808.60000000056,A,h,O,h,544,1,549.5,492259.10000000056,7078,WL,C,5.0
4,6.581000089645386,learn,53418.999910354614,Fri Mar 07 2025 16:36:32 GMT-0600 (Central Standard Time),492975.10000000056,A,ho,O,o,145,1,716.0,492259.10000000056,7078,WL,C,5.0
4,6.680999994277954,learn,53319.000005722046,Fri Mar 07 2025 16:36:32 GMT-0600 (Central Standard Time),493075.2000000002,A,hom,O,m,83,1,816.0999999996275,492259.10000000056,7078,WL,C,5.0
4,6.781000137329102,learn,53218.9998626709,Fri Mar 07 2025 16:36:32 GMT-0600 (Central Standard Time),493175.10000000056,A,home,O,e,79,1,916.0,492259.10000000056,7078,WL,C,5.0
4,6.998000144958496,learn,53001.999855041504,Fri Mar 07 2025 16:36:32 GMT-0600 (Central Standard Time),493391.9000000004,A,homeenter,O,enter,203,1,1132.7999999998137,492259.10000000056,7078,WL,C,5.0
4,7.365000009536743,learn,52634.99999046326,Fri Mar 07 2025 16:36:32 GMT-0600 (Central Standard Time),493758.5,A,l,O,l,355,1,366.19999999925494,493392.30000000075,7078,WL,C,6.0
4,7.430999994277954,learn,52569.000005722046,Fri Mar 07 2025 16:36:32 GMT-0600 (Central Standard Time),493824.60000000056,A,le,O,e,60,1,432.29999999981374,493392.30000000075,7078,WL,C,6.0
4,7.5980000495910645,learn,52401.999950408936,Fri Mar 07 2025 16:36:32 GMT-0600 (Central Standard Time),493991.60000000056,A,let,O,t,147,1,599.2999999998137,493392.30000000075,7078,WL,C,6.0
4,7.891999959945679,learn,52108.00004005432,Fri Mar 07 2025 16:36:32 GMT-0600 (Central Standard Time),494285.80000000075,A,lett,O,t,290,1,893.5,493392.30000000075,7078,WL,C,6.0
4,7.898000001907349,learn,52101.99999809265,Fri Mar 07 2025 16:36:32 GMT-0600 (Central Standard Time),494291.80000000075,A,lette,O,e,0,1,899.5,493392.30000000075,7078,WL,C,6.0
4,8.039000034332275,learn,51960.999965667725,Fri Mar 07 2025 16:36:32 GMT-0600 (Central Standard Time),494433.4000000004,A,letter,O,r,137,1,1041.0999999996275,493392.30000000075,7078,WL,C,6.0
4,8.397000074386597,learn,51602.9999256134,Fri Mar 07 2025 16:36:32 GMT-0600 (Central Standard Time),494791.0,A,letterenter,O,enter,335,1,1398.699999999255,493392.30000000075,7078,WL,C,6.0
4,8.781000137329102,learn,51218.9998626709,Fri Mar 07 2025 16:36:32 GMT-0600 (Central Standard Time),495174.4000000004,A,d,O,d,372,1,383.20000000018626,494791.2000000002,7078,WL,C,7.0
4,8.897000074386597,learn,51102.9999256134,Fri Mar 07 2025 16:36:32 GMT-0600 (Central Standard Time),495291.2000000002,A,do,O,o,108,1,500.0,494791.2000000002,7078,WL,C,7.0
4,9.031000137329102,learn,50968.9998626709,Fri Mar 07 2025 16:36:32 GMT-0600 (Central Standard Time),495424.5,A,doc,O,c,119,1,633.2999999998137,494791.2000000002,7078,WL,C,7.0
4,9.314000129699707,learn,50685.99987030029,Fri Mar 07 2025 16:36:32 GMT-0600 (Central Standard Time),495707.7000000002,A,doct,O,t,266,1,916.5,494791.2000000002,7078,WL,C,7.0
4,9.44700002670288,learn,50552.99997329712,Fri Mar 07 2025 16:36:32 GMT-0600 (Central Standard Time),495841.0,A,docto,O,o,119,1,1049.7999999998137,494791.2000000002,7078,WL,C,7.0
4,9.614000082015991,learn,50385.99991798401,Fri Mar 07 2025 16:36:32 GMT-0600 (Central Standard Time),496007.7000000002,A,doctor,O,r,146,1,1216.5,494791.2000000002,7078,WL,C,7.0
4,9.914000034332275,learn,50085.999965667725,Fri Mar 07 2025 16:36:32 GMT-0600 (Central Standard Time),496307.30000000075,A,doctorenter,O,enter,290,1,1516.1000000005588,494791.2000000002,7078,WL,C,7.0
4,11.880000114440918,learn,48119.99988555908,Fri Mar 07 2025 16:36:32 GMT-0600 (Central Standard Time),498273.7000000002,A,c,O,c,1959,1,1966.0,496307.7000000002,7078,WL,C,8.0
4,11.963000059127808,learn,48036.99994087219,Fri Mar 07 2025 16:36:32 GMT-0600 (Central Standard Time),498356.9000000004,A,co,O,o,73,1,2049.2000000001863,496307.7000000002,7078,WL,C,8.0
4,12.130000114440918,learn,47869.99988555908,Fri Mar 07 2025 16:36:32 GMT-0600 (Central Standard Time),498523.5,A,cor,O,r,150,1,2215.7999999998137,496307.7000000002,7078,WL,C,8.0
4,12.213000059127808,learn,47786.99994087219,Fri Mar 07 2025 16:36:32 GMT-0600 (Central Standard Time),498606.80000000075,A,corn,O,n,71,1,2299.100000000559,496307.7000000002,7078,WL,C,8.0
4,12.380000114440918,learn,47619.99988555908,Fri Mar 07 2025 16:36:32 GMT-0600 (Central Standard Time),498773.4000000004,A,cornenter,O,enter,156,1,2465.7000000001863,496307.7000000002,7078,WL,C,8.0
4,12.67900013923645,learn,47320.99986076355,Fri Mar 07 2025 16:36:32 GMT-0600 (Central Standard Time),499073.0,A,w,O,w,284,1,299.29999999981374,498773.7000000002,7078,WL,C,9.0
4,13.095999956130981,learn,46904.00004386902,Fri Mar 07 2025 16:36:32 GMT-0600 (Central Standard Time),499489.9000000004,A,wh,O,h,401,1,716.2000000001863,498773.7000000002,7078,WL,C,9.0
4,13.413000106811523,learn,46586.99989318848,Fri Mar 07 2025 16:36:32 GMT-0600 (Central Standard Time),499806.4000000004,A,whe,O,e,305,1,1032.7000000001863,498773.7000000002,7078,WL,C,9.0
4,13.529000043869019,learn,46470.99995613098,Fri Mar 07 2025 16:36:32 GMT-0600 (Central Standard Time),499923.10000000056,A,whea,O,a,100,1,1149.4000000003725,498773.7000000002,7078,WL,C,9.0
4,13.661999940872192,learn,46338.00005912781,Fri Mar 07 2025 16:36:32 GMT-0600 (Central Standard Time),500056.2000000002,A,wheat,O,t,127,1,1282.5,498773.7000000002,7078,WL,C,9.0
4,14.046000003814697,learn,45953.9999961853,Fri Mar 07 2025 16:36:32 GMT-0600 (Central Standard Time),500439.60000000056,A,wheatenter,O,enter,362,1,1665.9000000003725,498773.7000000002,7078,WL,C,9.0
4,14.26200008392334,learn,45737.99991607666,Fri Mar 07 2025 16:36:32 GMT-0600 (Central Standard Time),500656.0,A,c,O,c,211,1,216.19999999925494,500439.80000000075,7078,WL,C,10.0
4,14.446000099182129,learn,45553.99990081787,Fri Mar 07 2025 16:36:32 GMT-0600 (Central Standard Time),500839.5,A,ca,O,a,162,1,399.69999999925494,500439.80000000075,7078,WL,C,10.0
4,14.545000076293945,learn,45454.999923706055,Fri Mar 07 2025 16:36:32 GMT-0600 (Central Standard Time),500939.30000000075,A,cat,O,t,91,1,499.5,500439.80000000075,7078,WL,C,10.0
4,14.76200008392334,learn,45237.99991607666,Fri Mar 07 2025 16:36:32 GMT-0600 (Central Standard Time),501155.9000000004,A,catt,O,t,199,1,716.0999999996275,500439.80000000075,7078,WL,C,10.0
4,14.962000131607056,learn,45037.999868392944,Fri Mar 07 2025 16:36:32 GMT-0600 (Central Standard Time),501356.2000000002,A,cattl,O,l,183,1,916.3999999994412,500439.80000000075,7078,WL,C,10.0
4,15.062000036239624,learn,44937.999963760376,Fri Mar 07 2025 16:36:32 GMT-0600 (Central Standard Time),501455.80000000075,A,cattle,O,e,94,1,1016.0,500439.80000000075,7078,WL,C,10.0
4,15.545000076293945,learn,44454.999923706055,Fri Mar 07 2025 16:36:32 GMT-0600 (Central Standard Time),501939.2000000002,A,cattleenter,O,enter,475,1,1499.3999999994412,500439.80000000075,7078,WL,C,10.0
4,16.045000076293945,learn,43954.999923706055,Fri Mar 07 2025 16:36:32 GMT-0600 (Central Standard Time),502439.2000000002,A,q,O,q,487,1,499.5,501939.7000000002,7078,WL,C,11.0
4,16.17799997329712,learn,43822.00002670288,Fri Mar 07 2025 16:36:32 GMT-0600 (Central Standard Time),502572.2000000002,A,qu,O,u,115,1,632.5,501939.7000000002,7078,WL,C,11.0
4,16.312000036239624,learn,43687.999963760376,Fri Mar 07 2025 16:36:32 GMT-0600 (Central Standard Time),502705.4000000004,A,que,O,e,118,1,765.7000000001863,501939.7000000002,7078,WL,C,11.0
4,16.49500012397766,learn,43504.99987602234,Fri Mar 07 2025 16:36:32 GMT-0600 (Central Standard Time),502888.9000000004,A,ques,O,s,169,1,949.2000000001863,501939.7000000002,7078,WL,C,11.0
4,16.945000171661377,learn,43054.99982833862,Fri Mar 07 2025 16:36:32 GMT-0600 (Central Standard Time),503338.60000000056,A,que,O,backspace,441,1,1398.9000000003725,501939.7000000002,7078,WL,C,11.0
4,17.061000108718872,learn,42938.99989128113,Fri Mar 07 2025 16:36:32 GMT-0600 (Central Standard Time),503455.2000000002,A,quee,O,e,104,1,1515.5,501939.7000000002,7078,WL,C,11.0
4,17.210999965667725,learn,42789.000034332275,Fri Mar 07 2025 16:36:32 GMT-0600 (Central Standard Time),503605.30000000075,A,queen,O,n,131,1,1665.6000000005588,501939.7000000002,7078,WL,C,11.0
4,17.41100001335144,learn,42588.99998664856,Fri Mar 07 2025 16:36:32 GMT-0600 (Central Standard Time),503805.30000000075,A,queenenter,O,enter,181,1,1865.6000000005588,501939.7000000002,7078,WL,C,11.0
4,18.111000061035156,learn,41888.999938964844,Fri Mar 07 2025 16:36:32 GMT-0600 (Central Standard Time),504505.10000000056,A,t,O,t,693,1,699.4000000003725,503805.7000000002,7078,WL,C,12.0
4,18.210999965667725,learn,41789.000034332275,Fri Mar 07 2025 16:36:32 GMT-0600 (Central Standard Time),504605.10000000056,A,to,O,o,82,1,799.4000000003725,503805.7000000002,7078,WL,C,12.0
4,18.294000148773193,learn,41705.99985122681,Fri Mar 07 2025 16:36:32 GMT-0600 (Central Standard Time),504688.0,A,tow,O,w,78,1,882.2999999998137,503805.7000000002,7078,WL,C,12.0
4,18.47699999809265,learn,41523.00000190735,Fri Mar 07 2025 16:36:32 GMT-0600 (Central Standard Time),504871.5,A,towe,O,e,171,1,1065.7999999998137,503805.7000000002,7078,WL,C,12.0
4,18.64400005340576,learn,41355.99994659424,Fri Mar 07 2025 16:36:32 GMT-0600 (Central Standard Time),505038.2000000002,A,towen,O,n,155,1,1232.5,503805.7000000002,7078,WL,C,12.0
4,19.128000020980835,learn,40871.999979019165,Fri Mar 07 2025 16:36:32 GMT-0600 (Central Standard Time),505522.4000000004,A,towe,O,backspace,476,1,1716.7000000001863,503805.7000000002,7078,WL,C,12.0
4,19.24399995803833,learn,40756.00004196167,Fri Mar 07 2025 16:36:32 GMT-0600 (Central Standard Time),505637.9000000004,A,tower,O,r,96,1,1832.2000000001863,503805.7000000002,7078,WL,C,12.0
4,19.49399995803833,learn,40506.00004196167,Fri Mar 07 2025 16:36:32 GMT-0600 (Central Standard Time),505887.9000000004,A,towerenter,O,enter,236,1,2082.2000000001863,503805.7000000002,7078,WL,C,12.0
4,20.710000038146973,learn,39289.99996185303,Fri Mar 07 2025 16:36:32 GMT-0600 (Central Standard Time),507104.10000000056,A,b,O,b,1203,1,1215.9000000003725,505888.2000000002,7078,WL,C,13.0
4,20.776999950408936,learn,39223.000049591064,Fri Mar 07 2025 16:36:32 GMT-0600 (Central Standard Time),507170.9000000004,A,bo,O,o,58,1,1282.7000000001863,505888.2000000002,7078,WL,C,13.0
4,20.97699999809265,learn,39023.00000190735,Fri Mar 07 2025 16:36:32 GMT-0600 (Central Standard Time),507370.7000000002,A,bos,O,s,184,1,1482.5,505888.2000000002,7078,WL,C,13.0
4,21.0770001411438,learn,38922.9998588562,Fri Mar 07 2025 16:36:32 GMT-0600 (Central Standard Time),507470.7000000002,A,bosy,O,y,88,1,1582.5,505888.2000000002,7078,WL,C,13.0
4,21.342999935150146,learn,38657.00006484985,Fri Mar 07 2025 16:36:32 GMT-0600 (Central Standard Time),507737.2000000002,A,bosyenter,O,enter,252,1,1849.0,505888.2000000002,7078,WL,C,13.0
4,22.2260000705719,learn,37773.9999294281,Fri Mar 07 2025 16:36:32 GMT-0600 (Central Standard Time),508620.2000000002,A,b,O,b,874,1,882.7000000001863,507737.5,7078,WL,C,14.0
4,22.409000158309937,learn,37590.99984169006,Fri Mar 07 2025 16:36:32 GMT-0600 (Central Standard Time),508803.60000000056,A,bo,O,o,166,1,1066.1000000005588,507737.5,7078,WL,C,14.0
4,22.776000022888184,learn,37223.99997711182,Fri Mar 07 2025 16:36:32 GMT-0600 (Central Standard Time),509170.0,A,bod,O,d,351,1,1432.5,507737.5,7078,WL,C,14.0
4,22.926000118255615,learn,37073.999881744385,Fri Mar 07 2025 16:36:32 GMT-0600 (Central Standard Time),509320.30000000075,A,body,O,y,137,1,1582.800000000745,507737.5,7078,WL,C,14.0
4,23.2260000705719,learn,36773.9999294281,Fri Mar 07 2025 16:36:32 GMT-0600 (Central Standard Time),509620.10000000056,A,bodyenter,O,enter,290,1,1882.6000000005588,507737.5,7078,WL,C,14.0
4,31.604000091552734,learn,28395.999908447266,Fri Mar 07 2025 16:36:32 GMT-0600 (Central Standard Time),517997.7000000002,A,enter,O,enter,8226,1,8377.200000000186,509620.5,7078,WL,C,15.0
5,1.0999999046325684,learn,60000.0,Fri Mar 07 2025 16:36:32 GMT-0600 (Central Standard Time),584263.5,A,c,O,c,1080,1,1099.7999999998137,583163.7000000002,7078,WL,C,1.0
5,1.2669999599456787,learn,60000.0,Fri Mar 07 2025 16:36:32 GMT-0600 (Central Standard Time),584430.3000000007,A,ca,O,a,155,1,1266.6000000005588,583163.7000000002,7078,WL,C,1.0
5,1.4169998168945312,learn,60000.0,Fri Mar 07 2025 16:36:32 GMT-0600 (Central Standard Time),584580.0,A,cat,O,t,140,1,1416.2999999998137,583163.7000000002,7078,WL,C,1.0
5,1.616999864578247,learn,60000.0,Fri Mar 07 2025 16:36:32 GMT-0600 (Central Standard Time),584779.9000000004,A,catt,O,t,190,1,1616.2000000001863,583163.7000000002,7078,WL,C,1.0
5,1.7829999923706055,learn,60000.0,Fri Mar 07 2025 16:36:32 GMT-0600 (Central Standard Time),584946.3000000007,A,catte,O,e,151,1,1782.6000000005588,583163.7000000002,7078,WL,C,1.0
5,1.8659999370574951,learn,60000.0,Fri Mar 07 2025 16:36:32 GMT-0600 (Central Standard Time),585029.7000000002,A,cattel,O,l,72,1,1866.0,583163.7000000002,7078,WL,C,1.0
5,2.382999897003174,learn,60000.0,Fri Mar 07 2025 16:36:32 GMT-0600 (Central Standard Time),585546.3000000007,A,cattels,O,s,509,1,2382.600000000559,583163.7000000002,7078,WL,C,1.0
5,2.9659998416900635,learn,60000.0,Fri Mar 07 2025 16:36:32 GMT-0600 (Central Standard Time),586129.3000000007,A,cattel,O,backspace,576,1,2965.600000000559,583163.7000000002,7078,WL,C,1.0
5,3.3329999446868896,learn,60000.0,Fri Mar 07 2025 16:36:32 GMT-0600 (Central Standard Time),586495.8000000007,A,cattelenter,O,enter,361,1,3332.100000000559,583163.7000000002,7078,WL,C,1.0
5,3.8989999294281006,learn,60000.0,Fri Mar 07 2025 16:36:32 GMT-0600 (Central Standard Time),587062.5,A,s,O,s,555,1,566.5,586496.0,7078,WL,C,2.0
5,4.016000032424927,learn,60000.0,Fri Mar 07 2025 16:36:32 GMT-0600 (Central Standard Time),587178.9000000004,A,sh,O,h,108,1,682.9000000003725,586496.0,7078,WL,C,2.0
5,4.182999849319458,learn,60000.0,Fri Mar 07 2025 16:36:32 GMT-0600 (Central Standard Time),587345.7000000002,A,sho,O,o,160,1,849.7000000001863,586496.0,7078,WL,C,2.0
5,4.315999984741211,learn,60000.0,Fri Mar 07 2025 16:36:32 GMT-0600 (Central Standard Time),587479.0,A,shor,O,r,121,1,983.0,586496.0,7078,WL,C,2.0
5,4.4659998416900635,learn,60000.0,Fri Mar 07 2025 16:36:32 GMT-0600 (Central Standard Time),587629.1000000006,A,shore,O,e,131,1,1133.1000000005588,586496.0,7078,WL,C,2.0
5,4.631999969482422,learn,60000.0,Fri Mar 07 2025 16:36:32 GMT-0600 (Central Standard Time),587795.8000000007,A,shoreenter,O,enter,157,1,1299.800000000745,586496.0,7078,WL,C,2.0
5,5.115999937057495,learn,60000.0,Fri Mar 07 2025 16:36:32 GMT-0600 (Central Standard Time),588279.0,A,n,O,n,463,1,482.69999999925494,587796.3000000007,7078,WL,C,3.0
5,5.44599986076355,learn,60000.0,Fri Mar 07 2025 16:36:32 GMT-0600 (Central Standard Time),588609.2000000002,A,ni,O,i,243,1,812.8999999994412,587796.3000000007,7078,WL,C,3.0
5,5.547999858856201,learn,60000.0,Fri Mar 07 2025 16:36:32 GMT-0600 (Central Standard Time),588711.7000000002,A,nil,O,l,88,1,915.3999999994412,587796.3000000007,7078,WL,C,3.0
5,6.332000017166138,learn,60000.0,Fri Mar 07 2025 16:36:32 GMT-0600 (Central Standard Time),589495.0,A,ni,O,backspace,763,1,1698.699999999255,587796.3000000007,7078,WL,C,3.0
5,6.514999866485596,learn,60000.0,Fri Mar 07 2025 16:36:32 GMT-0600 (Central Standard Time),589678.2000000002,A,n,O,backspace,164,1,1881.8999999994412,587796.3000000007,7078,WL,C,3.0
5,6.631999969482422,learn,60000.0,Fri Mar 07 2025 16:36:32 GMT-0600 (Central Standard Time),589795.0,A,na,O,a,100,1,1998.699999999255,587796.3000000007,7078,WL,C,3.0
5,6.832000017166138,learn,60000.0,Fri Mar 07 2025 16:36:32 GMT-0600 (Central Standard Time),589994.8000000007,A,nai,O,i,183,1,2198.5,587796.3000000007,7078,WL,C,3.0
5,7.047999858856201,learn,60000.0,Fri Mar 07 2025 16:36:32 GMT-0600 (Central Standard Time),590211.6000000006,A,nail,O,l,200,1,2415.2999999998137,587796.3000000007,7078,WL,C,3.0
5,7.264999866485596,learn,60000.0,Fri Mar 07 2025 16:36:32 GMT-0600 (Central Standard Time),590428.1000000006,A,nailenter,O,enter,199,1,2631.7999999998137,587796.3000000007,7078,WL,C,3.0
5,7.81499981880188,learn,60000.0,Fri Mar 07 2025 16:36:32 GMT-0600 (Central Standard Time),590977.9000000004,A,b,O,b,534,1,549.4000000003725,590428.5,7078,WL,C,4.0
5,7.898000001907349,learn,60000.0,Fri Mar 07 2025 16:36:32 GMT-0600 (Central Standard Time),591061.1000000006,A,bo,O,o,64,1,632.6000000005588,590428.5,7078,WL,C,4.0
5,8.063999891281128,learn,60000.0,Fri Mar 07 2025 16:36:32 GMT-0600 (Central Standard Time),591227.7000000002,A,boy,O,y,149,1,799.2000000001863,590428.5,7078,WL,C,4.0
5,8.330999851226807,learn,60000.0,Fri Mar 07 2025 16:36:32 GMT-0600 (Central Standard Time),591494.2000000002,A,boyenter,O,enter,247,1,1065.7000000001863,590428.5,7078,WL,C,4.0
5,8.948999881744385,learn,60000.0,Fri Mar 07 2025 16:36:32 GMT-0600 (Central Standard Time),592112.8000000007,A,d,O,d,596,1,618.4000000003725,591494.4000000004,7078,WL,C,5.0
5,9.063999891281128,learn,60000.0,Fri Mar 07 2025 16:36:32 GMT-0600 (Central Standard Time),592227.4000000004,A,do,O,o,98,1,733.0,591494.4000000004,7078,WL,C,5.0
5,9.180999994277954,learn,60000.0,Fri Mar 07 2025 16:36:32 GMT-0600 (Central Standard Time),592344.0,A,doc,O,c,103,1,849.5999999996275,591494.4000000004,7078,WL,C,5.0
5,9.396999835968018,learn,60000.0,Fri Mar 07 2025 16:36:32 GMT-0600 (Central Standard Time),592560.7000000002,A,doct,O,t,202,1,1066.2999999998137,591494.4000000004,7078,WL,C,5.0
5,9.480999946594238,learn,60000.0,Fri Mar 07 2025 16:36:32 GMT-0600 (Central Standard Time),592644.0,A,docto,O,o,74,1,1149.5999999996275,591494.4000000004,7078,WL,C,5.0
5,9.596999883651733,learn,60000.0,Fri Mar 07 2025 16:36:32 GMT-0600 (Central Standard Time),592760.7000000002,A,doctor,O,r,110,1,1266.2999999998137,591494.4000000004,7078,WL,C,5.0
5,9.896999835968018,learn,60000.0,Fri Mar 07 2025 16:36:32 GMT-0600 (Central Standard Time),593060.5,A,doctorenter,O,enter,290,1,1566.0999999996275,591494.4000000004,7078,WL,C,5.0
5,10.730000019073486,learn,60000.0,Fri Mar 07 2025 16:36:32 GMT-0600 (Central Standard Time),593893.7000000002,A,l,O,l,822,1,832.8999999994412,593060.8000000007,7078,WL,C,6.0
5,10.829999923706055,learn,60000.0,Fri Mar 07 2025 16:36:32 GMT-0600 (Central Standard Time),593993.6000000006,A,le,O,e,93,1,932.7999999998137,593060.8000000007,7078,WL,C,6.0
5,10.94700002670288,learn,60000.0,Fri Mar 07 2025 16:36:32 GMT-0600 (Central Standard Time),594110.3000000007,A,let,O,t,105,1,1049.5,593060.8000000007,7078,WL,C,6.0
5,11.146999835968018,learn,60000.0,Fri Mar 07 2025 16:36:32 GMT-0600 (Central Standard Time),594310.1000000006,A,lett,O,t,180,1,1249.2999999998137,593060.8000000007,7078,WL,C,6.0
5,11.27999997138977,learn,60000.0,Fri Mar 07 2025 16:36:32 GMT-0600 (Central Standard Time),594443.5,A,lette,O,e,124,1,1382.699999999255,593060.8000000007,7078,WL,C,6.0
5,11.379999876022339,learn,60000.0,Fri Mar 07 2025 16:36:32 GMT-0600 (Central Standard Time),594543.6000000006,A,letter,O,r,87,1,1482.7999999998137,593060.8000000007,7078,WL,C,6.0
5,11.496999979019165,learn,60000.0,Fri Mar 07 2025 16:36:32 GMT-0600 (Central Standard Time),594660.0,A,letterenter,O,enter,99,1,1599.199999999255,593060.8000000007,7078,WL,C,6.0
5,11.77999997138977,learn,60000.0,Fri Mar 07 2025 16:36:32 GMT-0600 (Central Standard Time),594943.2000000002,A,f,O,f,271,1,283.0,594660.2000000002,7078,WL,C,7.0
5,11.879999876022339,learn,60000.0,Fri Mar 07 2025 16:36:32 GMT-0600 (Central Standard Time),595043.2000000002,A,fl,O,l,83,1,383.0,594660.2000000002,7078,WL,C,7.0
5,12.079999923706055,learn,60000.0,Fri Mar 07 2025 16:36:32 GMT-0600 (Central Standard Time),595243.2000000002,A,fla,O,a,183,1,583.0,594660.2000000002,7078,WL,C,7.0
5,12.429999828338623,learn,60000.0,Fri Mar 07 2025 16:36:32 GMT-0600 (Central Standard Time),595593.2000000002,A,flag,O,g,343,1,933.0,594660.2000000002,7078,WL,C,7.0
5,12.595999956130981,learn,60000.0,Fri Mar 07 2025 16:36:32 GMT-0600 (Central Standard Time),595759.8000000007,A,flagenter,O,enter,153,1,1099.6000000005588,594660.2000000002,7078,WL,C,7.0
5,13.662999868392944,learn,60000.0,Fri Mar 07 2025 16:36:32 GMT-0600 (Central Standard Time),596826.3000000007,A,c,O,c,1051,1,1066.2000000001863,595760.1000000006,7078,WL,C,8.0
5,13.763000011444092,learn,60000.0,Fri Mar 07 2025 16:36:32 GMT-0600 (Central Standard Time),596926.1000000006,A,co,O,o,88,1,1166.0,595760.1000000006,7078,WL,C,8.0
5,13.86299991607666,learn,60000.0,Fri Mar 07 2025 16:36:32 GMT-0600 (Central Standard Time),597026.1000000006,A,cor,O,r,92,1,1266.0,595760.1000000006,7078,WL,C,8.0
5,13.978999853134155,learn,60000.0,Fri Mar 07 2025 16:36:32 GMT-0600 (Central Standard Time),597142.6000000006,A,corn,O,n,104,1,1382.5,595760.1000000006,7078,WL,C,8.0
5,14.128999948501587,learn,60000.0,Fri Mar 07 2025 16:36:32 GMT-0600 (Central Standard Time),597292.4000000004,A,cornenter,O,enter,140,1,1532.2999999998137,595760.1000000006,7078,WL,C,8.0
5,14.796000003814697,learn,60000.0,Fri Mar 07 2025 16:36:32 GMT-0600 (Central Standard Time),597959.0,A,w,O,w,654,1,666.2999999998137,597292.7000000002,7078,WL,C,9.0
5,14.94599986076355,learn,60000.0,Fri Mar 07 2025 16:36:32 GMT-0600 (Central Standard Time),598109.0,A,we,O,e,139,1,816.2999999998137,597292.7000000002,7078,WL,C,9.0
5,14.994999885559082,learn,60000.0,Fri Mar 07 2025 16:36:32 GMT-0600 (Central Standard Time),598158.7000000002,A,weh,O,h,30,1,866.0,597292.7000000002,7078,WL,C,9.0
5,15.611999988555908,learn,60000.0,Fri Mar 07 2025 16:36:32 GMT-0600 (Central Standard Time),598775.4000000004,A,we,O,backspace,604,1,1482.7000000001863,597292.7000000002,7078,WL,C,9.0
5,15.76199984550476,learn,60000.0,Fri Mar 07 2025 16:36:32 GMT-0600 (Central Standard Time),598925.2000000002,A,w,O,backspace,131,1,1632.5,597292.7000000002,7078,WL,C,9.0
5,15.911999940872192,learn,60000.0,Fri Mar 07 2025 16:36:32 GMT-0600 (Central Standard Time),599075.3000000007,A,wh,O,h,133,1,1782.6000000005588,597292.7000000002,7078,WL,C,9.0
5,15.94599986076355,learn,60000.0,Fri Mar 07 2025 16:36:32 GMT-0600 (Central Standard Time),599109.1000000006,A,whe,O,e,15,1,1816.4000000003725,597292.7000000002,7078,WL,C,9.0
5,16.078999996185303,learn,60000.0,Fri Mar 07 2025 16:36:32 GMT-0600 (Central Standard Time),599242.0,A,whea,O,a,125,1,1949.2999999998137,597292.7000000002,7078,WL,C,9.0
5,16.161999940872192,learn,60000.0,Fri Mar 07 2025 16:36:32 GMT-0600 (Central Standard Time),599325.4000000004,A,wheat,O,t,64,1,2032.7000000001863,597292.7000000002,7078,WL,C,9.0
5,16.578999996185303,learn,60000.0,Fri Mar 07 2025 16:36:32 GMT-0600 (Central Standard Time),599742.0,A,wheatenter,O,enter,397,1,2449.2999999998137,597292.7000000002,7078,WL,C,9.0
5,17.07799983024597,learn,60000.0,Fri Mar 07 2025 16:36:32 GMT-0600 (Central Standard Time),600241.7000000002,A,q,O,q,492,1,499.3999999994412,599742.3000000007,7078,WL,C,10.0
5,17.17799997329712,learn,60000.0,Fri Mar 07 2025 16:36:32 GMT-0600 (Central Standard Time),600341.7000000002,A,qu,O,u,89,1,599.3999999994412,599742.3000000007,7078,WL,C,10.0
5,17.328999996185303,learn,60000.0,Fri Mar 07 2025 16:36:32 GMT-0600 (Central Standard Time),600492.7000000002,A,que,O,e,133,1,750.3999999994412,599742.3000000007,7078,WL,C,10.0
5,17.57799983024597,learn,60000.0,Fri Mar 07 2025 16:36:32 GMT-0600 (Central Standard Time),600741.5,A,quee,O,e,229,1,999.1999999992549,599742.3000000007,7078,WL,C,10.0
5,17.727999925613403,learn,60000.0,Fri Mar 07 2025 16:36:32 GMT-0600 (Central Standard Time),600891.5,A,queen,O,n,141,1,1149.199999999255,599742.3000000007,7078,WL,C,10.0
5,18.027999877929688,learn,60000.0,Fri Mar 07 2025 16:36:32 GMT-0600 (Central Standard Time),601191.5,A,queenenter,O,enter,295,1,1449.199999999255,599742.3000000007,7078,WL,C,10.0
5,18.51099991798401,learn,60000.0,Fri Mar 07 2025 16:36:32 GMT-0600 (Central Standard Time),601674.7000000002,A,t,O,t,475,1,483.0,601191.7000000002,7078,WL,C,11.0
5,18.59500002861023,learn,60000.0,Fri Mar 07 2025 16:36:32 GMT-0600 (Central Standard Time),601758.0,A,to,O,o,72,1,566.2999999998137,601191.7000000002,7078,WL,C,11.0
5,18.727999925613403,learn,60000.0,Fri Mar 07 2025 16:36:32 GMT-0600 (Central Standard Time),601891.1000000006,A,tow,O,w,125,1,699.4000000003725,601191.7000000002,7078,WL,C,11.0
5,18.8439998626709,learn,60000.0,Fri Mar 07 2025 16:36:32 GMT-0600 (Central Standard Time),602007.6000000006,A,towe,O,e,104,1,815.9000000003725,601191.7000000002,7078,WL,C,11.0
5,18.977999925613403,learn,60000.0,Fri Mar 07 2025 16:36:32 GMT-0600 (Central Standard Time),602141.1000000006,A,tower,O,r,115,1,949.4000000003725,601191.7000000002,7078,WL,C,11.0
5,19.560999870300293,learn,60000.0,Fri Mar 07 2025 16:36:32 GMT-0600 (Central Standard Time),602724.3000000007,A,towerenter,O,enter,565,1,1532.6000000005588,601191.7000000002,7078,WL,C,11.0
5,20.060999870300293,learn,60000.0,Fri Mar 07 2025 16:36:32 GMT-0600 (Central Standard Time),603223.8000000007,A,b,O,b,494,1,499.1000000005588,602724.7000000002,7078,WL,C,12.0
5,20.177000045776367,learn,60000.0,Fri Mar 07 2025 16:36:32 GMT-0600 (Central Standard Time),603340.6000000006,A,bo,O,o,99,1,615.9000000003725,602724.7000000002,7078,WL,C,12.0
5,21.126999855041504,learn,60000.0,Fri Mar 07 2025 16:36:32 GMT-0600 (Central Standard Time),604290.3000000007,A,boy,O,y,942,1,1565.6000000005588,602724.7000000002,7078,WL,C,12.0
5,21.444000005722046,learn,60000.0,Fri Mar 07 2025 16:36:32 GMT-0600 (Central Standard Time),604607.1000000006,A,boyenter,O,enter,296,1,1882.4000000003725,602724.7000000002,7078,WL,C,12.0
5,23.793999910354614,learn,60000.0,Fri Mar 07 2025 16:36:32 GMT-0600 (Central Standard Time),606957.5,A,f,O,f,2331,1,2350.0999999996275,604607.4000000004,7078,WL,C,13.0
5,23.942999839782715,learn,60000.0,Fri Mar 07 2025 16:36:32 GMT-0600 (Central Standard Time),607106.2000000002,A,fl,O,l,141,1,2498.7999999998137,604607.4000000004,7078,WL,C,13.0
5,24.043999910354614,learn,60000.0,Fri Mar 07 2025 16:36:32 GMT-0600 (Central Standard Time),607207.5,A,fla,O,a,96,1,2600.0999999996275,604607.4000000004,7078,WL,C,13.0
5,24.325999975204468,learn,60000.0,Fri Mar 07 2025 16:36:32 GMT-0600 (Central Standard Time),607489.4000000004,A,flag,O,g,275,1,2882.0,604607.4000000004,7078,WL,C,13.0
5,24.526000022888184,learn,60000.0,Fri Mar 07 2025 16:36:32 GMT-0600 (Central Standard Time),607689.1000000006,A,flagenter,O,enter,185,1,3081.7000000001863,604607.4000000004,7078,WL,C,13.0
5,27.158999919891357,learn,60000.0,Fri Mar 07 2025 16:36:32 GMT-0600 (Central Standard Time),610321.8000000007,A,enter,O,enter,2625,1,2632.4000000003725,607689.4000000004,7078,WL,C,14.0
5,27.39199995994568,learn,60000.0,Fri Mar 07 2025 16:36:32 GMT-0600 (Central Standard Time),610555.1000000006,A,enter,O,enter,225,1,232.90000000037253,610322.2000000002,7078,WL,C,15.0
6,1.432999849319458,distr,58567.00015068054,Fri Mar 07 2025 16:36:32 GMT-0600 (Central Standard Time),694045.5,B,n,O,n,1414,1,1432.5,692613.0,7078,WL,C,1.0
6,1.8999998569488525,distr,58100.00014305115,Fri Mar 07 2025 16:36:32 GMT-0600 (Central Standard Time),694512.3000000007,B,,O,backspace,452,1,1899.300000000745,692613.0,7078,WL,C,1.0
6,2.115999937057495,distr,57884.000062942505,Fri Mar 07 2025 16:36:32 GMT-0600 (Central Standard Time),694728.7000000002,B,m,O,m,202,1,2115.7000000001863,692613.0,7078,WL,C,1.0
6,2.2659997940063477,distr,57734.00020599365,Fri Mar 07 2025 16:36:32 GMT-0600 (Central Standard Time),694878.6000000006,B,mo,O,o,130,1,2265.600000000559,692613.0,7078,WL,C,1.0
6,2.3329999446868896,distr,57667.00005531311,Fri Mar 07 2025 16:36:32 GMT-0600 (Central Standard Time),694945.3000000007,B,mon,O,n,60,1,2332.300000000745,692613.0,7078,WL,C,1.0
6,2.5159997940063477,distr,57484.00020599365,Fri Mar 07 2025 16:36:32 GMT-0600 (Central Standard Time),695128.5,B,mond,O,d,177,1,2515.5,692613.0,7078,WL,C,1.0
6,2.932999849319458,distr,57067.00015068054,Fri Mar 07 2025 16:36:32 GMT-0600 (Central Standard Time),695545.1000000006,B,mon,O,backspace,410,1,2932.100000000559,692613.0,7078,WL,C,1.0
6,3.0989999771118164,distr,56901.00002288818,Fri Mar 07 2025 16:36:32 GMT-0600 (Central Standard Time),695711.5,B,mone,O,e,161,1,3098.5,692613.0,7078,WL,C,1.0
6,4.2159998416900635,distr,55784.00015830994,Fri Mar 07 2025 16:36:32 GMT-0600 (Central Standard Time),696828.1000000006,B,money,O,y,1099,1,4215.100000000559,692613.0,7078,WL,C,1.0
6,4.615000009536743,distr,55384.99999046326,Fri Mar 07 2025 16:36:32 GMT-0600 (Central Standard Time),697228.0,B,moneyenter,O,enter,391,1,4615.0,692613.0,7078,WL,C,1.0
6,5.031999826431274,distr,54968.000173568726,Fri Mar 07 2025 16:36:32 GMT-0600 (Central Standard Time),697644.7000000002,B,d,O,d,398,1,416.3999999994412,697228.3000000007,7078,WL,C,2.0
6,5.115000009536743,distr,54884.99999046326,Fri Mar 07 2025 16:36:32 GMT-0600 (Central Standard Time),697727.6000000006,B,do,O,o,76,1,499.29999999981374,697228.3000000007,7078,WL,C,2.0
6,5.31499981880188,distr,54685.00018119812,Fri Mar 07 2025 16:36:32 GMT-0600 (Central Standard Time),697927.9000000004,B,dol,O,l,187,1,699.5999999996275,697228.3000000007,7078,WL,C,2.0
6,5.448999881744385,distr,54551.000118255615,Fri Mar 07 2025 16:36:32 GMT-0600 (Central Standard Time),698061.1000000006,B,doll,O,l,115,1,832.7999999998137,697228.3000000007,7078,WL,C,2.0
6,5.582000017166138,distr,54417.99998283386,Fri Mar 07 2025 16:36:32 GMT-0600 (Central Standard Time),698194.2000000002,B,dolla,O,a,117,1,965.8999999994412,697228.3000000007,7078,WL,C,2.0
6,5.73199987411499,distr,54268.00012588501,Fri Mar 07 2025 16:36:32 GMT-0600 (Central Standard Time),698344.4000000004,B,dollar,O,r,136,1,1116.0999999996275,697228.3000000007,7078,WL,C,2.0
6,6.031999826431274,distr,53968.000173568726,Fri Mar 07 2025 16:36:32 GMT-0600 (Central Standard Time),698644.2000000002,B,dollarenter,O,enter,290,1,1415.8999999994412,697228.3000000007,7078,WL,C,2.0
6,6.847999811172485,distr,53152.000188827515,Fri Mar 07 2025 16:36:32 GMT-0600 (Central Standard Time),699460.5,B,m,O,m,798,1,816.0,698644.5,7078,WL,C,3.0
6,6.997999906539917,distr,53002.00009346008,Fri Mar 07 2025 16:36:32 GMT-0600 (Central Standard Time),699610.5,B,mo,O,o,142,1,966.0,698644.5,7078,WL,C,3.0
6,7.247999906539917,distr,52752.00009346008,Fri Mar 07 2025 16:36:32 GMT-0600 (Central Standard Time),699860.5,B,mot,O,t,240,1,1216.0,698644.5,7078,WL,C,3.0
6,7.2809998989105225,distr,52719.00010108948,Fri Mar 07 2025 16:36:32 GMT-0600 (Central Standard Time),699893.6000000006,B,moth,O,h,14,1,1249.1000000005588,698644.5,7078,WL,C,3.0
6,7.398000001907349,distr,52601.99999809265,Fri Mar 07 2025 16:36:32 GMT-0600 (Central Standard Time),700010.4000000004,B,mothe,O,e,109,1,1365.9000000003725,698644.5,7078,WL,C,3.0
6,7.497999906539917,distr,52502.00009346008,Fri Mar 07 2025 16:36:32 GMT-0600 (Central Standard Time),700110.2000000002,B,mother,O,r,80,1,1465.7000000001863,698644.5,7078,WL,C,3.0
6,7.7809998989105225,distr,52219.00010108948,Fri Mar 07 2025 16:36:32 GMT-0600 (Central Standard Time),700393.6000000006,B,motherenter,O,enter,276,1,1749.1000000005588,698644.5,7078,WL,C,3.0
6,8.73199987411499,distr,51268.00012588501,Fri Mar 07 2025 16:36:32 GMT-0600 (Central Standard Time),701344.5,B,t,O,t,937,1,950.5,700394.0,7078,WL,C,4.0
6,8.780999898910522,distr,51219.00010108948,Fri Mar 07 2025 16:36:32 GMT-0600 (Central Standard Time),701393.1000000006,B,to,O,o,34,1,999.1000000005588,700394.0,7078,WL,C,4.0
6,8.96399998664856,distr,51036.00001335144,Fri Mar 07 2025 16:36:32 GMT-0600 (Central Standard Time),701576.5,B,too,O,o,169,1,1182.5,700394.0,7078,WL,C,4.0
6,9.163999795913696,distr,50836.000204086304,Fri Mar 07 2025 16:36:32 GMT-0600 (Central Standard Time),701776.5,B,tool,O,l,186,1,1382.5,700394.0,7078,WL,C,4.0
6,9.363999843597412,distr,50636.00015640259,Fri Mar 07 2025 16:36:32 GMT-0600 (Central Standard Time),701976.3000000007,B,toolenter,O,enter,194,1,1582.300000000745,700394.0,7078,WL,C,4.0
6,10.696999788284302,distr,49303.0002117157,Fri Mar 07 2025 16:36:32 GMT-0600 (Central Standard Time),703309.3000000007,B,c,O,c,1322,1,1332.800000000745,701976.5,7078,WL,C,5.0
6,10.846999883651733,distr,49153.00011634827,Fri Mar 07 2025 16:36:32 GMT-0600 (Central Standard Time),703459.2000000002,B,ch,O,h,141,1,1482.7000000001863,701976.5,7078,WL,C,5.0
6,10.946999788284302,distr,49053.0002117157,Fri Mar 07 2025 16:36:32 GMT-0600 (Central Standard Time),703559.4000000004,B,chr,O,r,79,1,1582.9000000003725,701976.5,7078,WL,C,5.0
6,11.013000011444092,distr,48986.99998855591,Fri Mar 07 2025 16:36:32 GMT-0600 (Central Standard Time),703625.8000000007,B,chri,O,i,51,1,1649.300000000745,701976.5,7078,WL,C,5.0
6,11.146999835968018,distr,48853.00016403198,Fri Mar 07 2025 16:36:32 GMT-0600 (Central Standard Time),703759.5,B,chris,O,s,121,1,1783.0,701976.5,7078,WL,C,5.0
6,11.263000011444092,distr,48736.99998855591,Fri Mar 07 2025 16:36:32 GMT-0600 (Central Standard Time),703875.9000000004,B,christ,O,t,107,1,1899.4000000003725,701976.5,7078,WL,C,5.0
6,11.462999820709229,distr,48537.00017929077,Fri Mar 07 2025 16:36:32 GMT-0600 (Central Standard Time),704075.6000000006,B,christm,O,m,191,1,2099.100000000559,701976.5,7078,WL,C,5.0
6,11.596999883651733,distr,48403.00011634827,Fri Mar 07 2025 16:36:32 GMT-0600 (Central Standard Time),704209.6000000006,B,christma,O,a,127,1,2233.100000000559,701976.5,7078,WL,C,5.0
6,11.912999868392944,distr,48087.000131607056,Fri Mar 07 2025 16:36:32 GMT-0600 (Central Standard Time),704525.6000000006,B,christmas,O,s,305,1,2549.100000000559,701976.5,7078,WL,C,5.0
6,12.11299991607666,distr,47887.00008392334,Fri Mar 07 2025 16:36:32 GMT-0600 (Central Standard Time),704725.7000000002,B,christmasenter,O,enter,189,1,2749.2000000001863,701976.5,7078,WL,C,5.0
6,12.763000011444092,distr,47236.99998855591,Fri Mar 07 2025 16:36:32 GMT-0600 (Central Standard Time),705375.4000000004,B,s,O,s,637,1,649.2999999998137,704726.1000000006,7078,WL,C,6.0
6,12.895999908447266,distr,47104.000091552734,Fri Mar 07 2025 16:36:32 GMT-0600 (Central Standard Time),705508.8000000007,B,sk,O,k,123,1,782.7000000001863,704726.1000000006,7078,WL,C,6.0
6,13.19599986076355,distr,46804.00013923645,Fri Mar 07 2025 16:36:32 GMT-0600 (Central Standard Time),705808.7000000002,B,sky,O,y,293,1,1082.5999999996275,704726.1000000006,7078,WL,C,6.0
6,14.611999988555908,distr,45388.00001144409,Fri Mar 07 2025 16:36:32 GMT-0600 (Central Standard Time),707224.8000000007,B,skyenter,O,enter,1402,1,2498.7000000001863,704726.1000000006,7078,WL,C,6.0
6,26.941999912261963,distr,33058.00008773804,Fri Mar 07 2025 16:36:32 GMT-0600 (Central Standard Time),719554.2000000002,B,c,O,c,12314,1,12329.099999999627,707225.1000000006,7078,WL,C,7.0
6,27.024999856948853,distr,32975.00014305115,Fri Mar 07 2025 16:36:32 GMT-0600 (Central Standard Time),719637.5,B,cl,O,l,64,1,12412.399999999441,707225.1000000006,7078,WL,C,7.0
6,27.274999856948853,distr,32725.000143051147,Fri Mar 07 2025 16:36:32 GMT-0600 (Central Standard Time),719887.5,B,clo,O,o,230,1,12662.399999999441,707225.1000000006,7078,WL,C,7.0
6,27.407999992370605,distr,32592.000007629395,Fri Mar 07 2025 16:36:32 GMT-0600 (Central Standard Time),720020.8000000007,B,clou,O,u,115,1,12795.700000000186,707225.1000000006,7078,WL,C,7.0
6,27.857999801635742,distr,32142.000198364258,Fri Mar 07 2025 16:36:32 GMT-0600 (Central Standard Time),720470.9000000004,B,cloud,O,d,430,1,13245.799999999814,707225.1000000006,7078,WL,C,7.0
6,27.990999937057495,distr,32009.000062942505,Fri Mar 07 2025 16:36:32 GMT-0600 (Central Standard Time),720603.8000000007,B,cloudenter,O,enter,116,1,13378.700000000186,707225.1000000006,7078,WL,C,7.0
6,34.02300000190735,distr,25976.99999809265,Fri Mar 07 2025 16:36:32 GMT-0600 (Central Standard Time),726635.5,B,w,O,w,6015,1,6031.399999999441,720604.1000000006,7078,WL,C,8.0
6,34.12299990653992,distr,25877.000093460083,Fri Mar 07 2025 16:36:32 GMT-0600 (Central Standard Time),726735.4000000004,B,wi,O,i,79,1,6131.299999999814,720604.1000000006,7078,WL,C,8.0
6,34.20599985122681,distr,25794.000148773193,Fri Mar 07 2025 16:36:32 GMT-0600 (Central Standard Time),726818.6000000006,B,win,O,n,75,1,6214.5,720604.1000000006,7078,WL,C,8.0
6,34.27300000190735,distr,25726.99999809265,Fri Mar 07 2025 16:36:32 GMT-0600 (Central Standard Time),726885.3000000007,B,wint,O,t,48,1,6281.200000000186,720604.1000000006,7078,WL,C,8.0
6,34.43999981880188,distr,25560.00018119812,Fri Mar 07 2025 16:36:32 GMT-0600 (Central Standard Time),727052.2000000002,B,winte,O,e,149,1,6448.0999999996275,720604.1000000006,7078,WL,C,8.0
6,34.538999795913696,distr,25461.000204086304,Fri Mar 07 2025 16:36:32 GMT-0600 (Central Standard Time),727151.9000000004,B,winter,O,r,86,1,6547.799999999814,720604.1000000006,7078,WL,C,8.0
6,34.6729998588562,distr,25327.0001411438,Fri Mar 07 2025 16:36:32 GMT-0600 (Central Standard Time),727285.1000000006,B,winterenter,O,enter,115,1,6681.0,720604.1000000006,7078,WL,C,8.0
6,39.22099995613098,distr,20779.00004386902,Fri Mar 07 2025 16:36:32 GMT-0600 (Central Standard Time),731833.7000000002,B,enter,O,enter,4542,1,4548.299999999814,727285.4000000004,7078,WL,C,9.0
6,39.55499982833862,distr,20445.000171661377,Fri Mar 07 2025 16:36:32 GMT-0600 (Central Standard Time),732167.1000000006,B,enter,O,enter,313,1,333.0,731834.1000000006,7078,WL,C,10.0
6,39.787999868392944,distr,20212.000131607056,Fri Mar 07 2025 16:36:32 GMT-0600 (Central Standard Time),732400.2000000002,B,enter,O,enter,220,1,232.79999999981374,732167.4000000004,7078,WL,C,11.0
6,40.037999868392944,distr,19962.000131607056,Fri Mar 07 2025 16:36:32 GMT-0600 (Central Standard Time),732650.2000000002,B,enter,O,enter,234,1,249.70000000018626,732400.5,7078,WL,C,12.0
6,40.287999868392944,distr,19712.000131607056,Fri Mar 07 2025 16:36:32 GMT-0600 (Central Standard Time),732900.3000000007,B,enter,O,enter,240,1,249.80000000074506,732650.5,7078,WL,C,13.0
6,40.57099986076355,distr,19429.00013923645,Fri Mar 07 2025 16:36:32 GMT-0600 (Central Standard Time),733183.2000000002,B,enter,O,enter,270,1,282.59999999962747,732900.6000000006,7078,WL,C,14.0
6,40.9210000038147,distr,19078.999996185303,Fri Mar 07 2025 16:36:32 GMT-0600 (Central Standard Time),733533.2000000002,B,enter,O,enter,331,1,349.59999999962747,733183.6000000006,7078,WL,C,15.0
7,21.191999912261963,immed,38808.00008773804,Fri Mar 07 2025 16:36:32 GMT-0600 (Central Standard Time),755876.0,A,n,O,n,21184,1,21192.89999999944,734683.1000000006,7078,WL,C,1.0
7,21.30900001525879,immed,38690.99998474121,Fri Mar 07 2025 16:36:32 GMT-0600 (Central Standard Time),755992.9000000004,A,na,O,a,101,1,21309.799999999814,734683.1000000006,7078,WL,C,1.0
7,21.509000062942505,immed,38490.999937057495,Fri Mar 07 2025 16:36:32 GMT-0600 (Central Standard Time),756192.8000000007,A,nai,O,i,193,1,21509.700000000186,734683.1000000006,7078,WL,C,1.0
7,21.675999879837036,immed,38324.000120162964,Fri Mar 07 2025 16:36:32 GMT-0600 (Central Standard Time),756359.4000000004,A,nail,O,l,162,1,21676.299999999814,734683.1000000006,7078,WL,C,1.0
7,21.875999927520752,immed,38124.00007247925,Fri Mar 07 2025 16:36:32 GMT-0600 (Central Standard Time),756559.2000000002,A,nailenter,O,enter,187,1,21876.099999999627,734683.1000000006,7078,WL,C,1.0
7,22.70899987220764,immed,37291.00012779236,Fri Mar 07 2025 16:36:32 GMT-0600 (Central Standard Time),757392.4000000004,A,c,O,c,820,1,832.9000000003725,756559.5,7078,WL,C,2.0
7,22.89199995994568,immed,37108.00004005432,Fri Mar 07 2025 16:36:32 GMT-0600 (Central Standard Time),757575.9000000004,A,ca,O,a,162,1,1016.4000000003725,756559.5,7078,WL,C,2.0
7,23.024999856948853,immed,36975.00014305115,Fri Mar 07 2025 16:36:32 GMT-0600 (Central Standard Time),757709.0,A,cat,O,t,115,1,1149.5,756559.5,7078,WL,C,2.0
7,23.20799994468689,immed,36792.00005531311,Fri Mar 07 2025 16:36:32 GMT-0600 (Central Standard Time),757891.9000000004,A,catt,O,t,173,1,1332.4000000003725,756559.5,7078,WL,C,2.0
7,23.375,immed,36625.0,Fri Mar 07 2025 16:36:32 GMT-0600 (Central Standard Time),758058.9000000004,A,cattl,O,l,159,1,1499.4000000003725,756559.5,7078,WL,C,2.0
7,23.47499990463257,immed,36525.00009536743,Fri Mar 07 2025 16:36:32 GMT-0600 (Central Standard Time),758158.9000000004,A,cattle,O,e,88,1,1599.4000000003725,756559.5,7078,WL,C,2.0
7,23.658999919891357,immed,36341.00008010864,Fri Mar 07 2025 16:36:32 GMT-0600 (Central Standard Time),758342.3000000007,A,cattleenter,O,enter,164,1,1782.800000000745,756559.5,7078,WL,C,2.0
7,26.624000072479248,immed,33375.99992752075,Fri Mar 07 2025 16:36:32 GMT-0600 (Central Standard Time),761307.8000000007,A,q,O,q,2948,1,2965.300000000745,758342.5,7078,WL,C,3.0
7,26.707000017166138,immed,33292.99998283386,Fri Mar 07 2025 16:36:32 GMT-0600 (Central Standard Time),761391.1000000006,A,qu,O,u,70,1,3048.600000000559,758342.5,7078,WL,C,3.0
7,26.874000072479248,immed,33125.99992752075,Fri Mar 07 2025 16:36:32 GMT-0600 (Central Standard Time),761557.7000000002,A,que,O,e,155,1,3215.2000000001863,758342.5,7078,WL,C,3.0
7,27.10699987411499,immed,32893.00012588501,Fri Mar 07 2025 16:36:32 GMT-0600 (Central Standard Time),761791.1000000006,A,quee,O,e,213,1,3448.600000000559,758342.5,7078,WL,C,3.0
7,27.2739999294281,immed,32726.0000705719,Fri Mar 07 2025 16:36:32 GMT-0600 (Central Standard Time),761957.8000000007,A,queen,O,n,155,1,3615.300000000745,758342.5,7078,WL,C,3.0
7,27.473999977111816,immed,32526.000022888184,Fri Mar 07 2025 16:36:32 GMT-0600 (Central Standard Time),762157.6000000006,A,queenenter,O,enter,189,1,3815.100000000559,758342.5,7078,WL,C,3.0
7,27.874000072479248,immed,32125.999927520752,Fri Mar 07 2025 16:36:32 GMT-0600 (Central Standard Time),762557.4000000004,A,b,O,b,381,1,399.5,762157.9000000004,7078,WL,C,4.0
7,27.924000024795532,immed,32075.999975204468,Fri Mar 07 2025 16:36:32 GMT-0600 (Central Standard Time),762607.5,A,bo,O,o,45,1,449.59999999962747,762157.9000000004,7078,WL,C,4.0
7,28.124000072479248,immed,31875.999927520752,Fri Mar 07 2025 16:36:32 GMT-0600 (Central Standard Time),762807.3000000007,A,boy,O,y,187,1,649.4000000003725,762157.9000000004,7078,WL,C,4.0
7,28.457000017166138,immed,31542.999982833862,Fri Mar 07 2025 16:36:32 GMT-0600 (Central Standard Time),763140.7000000002,A,boyenter,O,enter,315,1,982.7999999998137,762157.9000000004,7078,WL,C,4.0
7,28.872999906539917,immed,31127.000093460083,Fri Mar 07 2025 16:36:32 GMT-0600 (Central Standard Time),763557.0,A,d,O,d,406,1,416.0,763141.0,7078,WL,C,5.0
7,29.02300000190735,immed,30976.99999809265,Fri Mar 07 2025 16:36:32 GMT-0600 (Central Standard Time),763707.2000000002,A,do,O,o,142,1,566.2000000001863,763141.0,7078,WL,C,5.0
7,29.223000049591064,immed,30776.999950408936,Fri Mar 07 2025 16:36:32 GMT-0600 (Central Standard Time),763906.8000000007,A,doc,O,c,183,1,765.8000000007451,763141.0,7078,WL,C,5.0
7,29.457000017166138,immed,30542.999982833862,Fri Mar 07 2025 16:36:32 GMT-0600 (Central Standard Time),764140.3000000007,A,doct,O,t,224,1,999.3000000007451,763141.0,7078,WL,C,5.0
7,29.539999961853027,immed,30460.000038146973,Fri Mar 07 2025 16:36:32 GMT-0600 (Central Standard Time),764223.6000000006,A,docto,O,o,78,1,1082.6000000005588,763141.0,7078,WL,C,5.0
7,29.6729998588562,immed,30327.0001411438,Fri Mar 07 2025 16:36:32 GMT-0600 (Central Standard Time),764356.9000000004,A,doctor,O,r,123,1,1215.9000000003725,763141.0,7078,WL,C,5.0
7,29.822999954223633,immed,30177.000045776367,Fri Mar 07 2025 16:36:32 GMT-0600 (Central Standard Time),764506.8000000007,A,doctorenter,O,enter,142,1,1365.800000000745,763141.0,7078,WL,C,5.0
7,30.122999906539917,immed,29877.000093460083,Fri Mar 07 2025 16:36:32 GMT-0600 (Central Standard Time),764806.8000000007,A,l,O,l,288,1,299.6000000005588,764507.2000000002,7078,WL,C,6.0
7,30.223000049591064,immed,29776.999950408936,Fri Mar 07 2025 16:36:32 GMT-0600 (Central Standard Time),764906.6000000006,A,le,O,e,92,1,399.40000000037253,764507.2000000002,7078,WL,C,6.0
7,30.35599994659424,immed,29644.00005340576,Fri Mar 07 2025 16:36:32 GMT-0600 (Central Standard Time),765040.0,A,let,O,t,120,1,532.7999999998137,764507.2000000002,7078,WL,C,6.0
7,30.555999994277954,immed,29444.000005722046,Fri Mar 07 2025 16:36:32 GMT-0600 (Central Standard Time),765239.9000000004,A,lett,O,t,186,1,732.7000000001863,764507.2000000002,7078,WL,C,6.0
7,30.705999851226807,immed,29294.000148773193,Fri Mar 07 2025 16:36:32 GMT-0600 (Central Standard Time),765389.9000000004,A,lette,O,e,131,1,882.7000000001863,764507.2000000002,7078,WL,C,6.0
7,30.789999961853027,immed,29210.000038146973,Fri Mar 07 2025 16:36:32 GMT-0600 (Central Standard Time),765473.3000000007,A,letter,O,r,69,1,966.1000000005588,764507.2000000002,7078,WL,C,6.0
7,31.10599994659424,immed,28894.00005340576,Fri Mar 07 2025 16:36:32 GMT-0600 (Central Standard Time),765789.6000000006,A,letterenter,O,enter,305,1,1282.4000000003725,764507.2000000002,7078,WL,C,6.0
7,32.90499997138977,immed,27095.00002861023,Fri Mar 07 2025 16:36:32 GMT-0600 (Central Standard Time),767589.2000000002,A,s,O,s,1789,1,1799.2000000001863,765790.0,7078,WL,C,7.0
7,32.98900008201599,immed,27010.99991798401,Fri Mar 07 2025 16:36:32 GMT-0600 (Central Standard Time),767672.5,A,sh,O,h,69,1,1882.5,765790.0,7078,WL,C,7.0
7,33.121999979019165,immed,26878.000020980835,Fri Mar 07 2025 16:36:32 GMT-0600 (Central Standard Time),767805.8000000007,A,sho,O,o,122,1,2015.800000000745,765790.0,7078,WL,C,7.0
7,33.23900008201599,immed,26760.99991798401,Fri Mar 07 2025 16:36:32 GMT-0600 (Central Standard Time),767922.3000000007,A,shor,O,r,100,1,2132.300000000745,765790.0,7078,WL,C,7.0
7,33.388999938964844,immed,26611.000061035156,Fri Mar 07 2025 16:36:32 GMT-0600 (Central Standard Time),768072.2000000002,A,shore,O,e,136,1,2282.2000000001863,765790.0,7078,WL,C,7.0
7,33.539000034332275,immed,26460.999965667725,Fri Mar 07 2025 16:36:32 GMT-0600 (Central Standard Time),768222.3000000007,A,shoreenter,O,enter,130,1,2432.300000000745,765790.0,7078,WL,C,7.0
7,33.954999923706055,immed,26045.000076293945,Fri Mar 07 2025 16:36:32 GMT-0600 (Central Standard Time),768638.9000000004,A,c,O,c,404,1,416.40000000037253,768222.5,7078,WL,C,8.0
7,34.0220000743866,immed,25977.999925613403,Fri Mar 07 2025 16:36:32 GMT-0600 (Central Standard Time),768705.4000000004,A,co,O,o,60,1,482.90000000037253,768222.5,7078,WL,C,8.0
7,34.204999923706055,immed,25795.000076293945,Fri Mar 07 2025 16:36:32 GMT-0600 (Central Standard Time),768889.0,A,cor,O,r,177,1,666.5,768222.5,7078,WL,C,8.0
7,34.287999868392944,immed,25712.000131607056,Fri Mar 07 2025 16:36:32 GMT-0600 (Central Standard Time),768972.0,A,corn,O,n,74,1,749.5,768222.5,7078,WL,C,8.0
7,34.48799991607666,immed,25512.00008392334,Fri Mar 07 2025 16:36:32 GMT-0600 (Central Standard Time),769172.1000000006,A,cornenter,O,enter,191,1,949.6000000005588,768222.5,7078,WL,C,8.0
7,35.0220000743866,immed,24977.999925613403,Fri Mar 07 2025 16:36:32 GMT-0600 (Central Standard Time),769705.3000000007,A,w,O,w,527,1,533.0,769172.3000000007,7078,WL,C,9.0
7,35.15499997138977,immed,24845.00002861023,Fri Mar 07 2025 16:36:32 GMT-0600 (Central Standard Time),769838.6000000006,A,wh,O,h,121,1,666.2999999998137,769172.3000000007,7078,WL,C,9.0
7,35.23799991607666,immed,24762.00008392334,Fri Mar 07 2025 16:36:32 GMT-0600 (Central Standard Time),769921.8000000007,A,whe,O,e,68,1,749.5,769172.3000000007,7078,WL,C,9.0
7,35.520999908447266,immed,24479.000091552734,Fri Mar 07 2025 16:36:32 GMT-0600 (Central Standard Time),770205.1000000006,A,whea,O,a,264,1,1032.7999999998137,769172.3000000007,7078,WL,C,9.0
7,35.58800005912781,immed,24411.999940872192,Fri Mar 07 2025 16:36:32 GMT-0600 (Central Standard Time),770271.7000000002,A,wheat,O,t,61,1,1099.3999999994412,769172.3000000007,7078,WL,C,9.0
7,35.9210000038147,immed,24078.999996185303,Fri Mar 07 2025 16:36:32 GMT-0600 (Central Standard Time),770605.0,A,wheatenter,O,enter,323,1,1432.699999999255,769172.3000000007,7078,WL,C,9.0
7,36.65400004386902,immed,23345.99995613098,Fri Mar 07 2025 16:36:32 GMT-0600 (Central Standard Time),771338.0,A,c,O,c,726,1,732.6999999992549,770605.3000000007,7078,WL,C,10.0
7,36.787999868392944,immed,23212.000131607056,Fri Mar 07 2025 16:36:32 GMT-0600 (Central Standard Time),771471.3000000007,A,ca,O,a,112,1,866.0,770605.3000000007,7078,WL,C,10.0
7,36.9210000038147,immed,23078.999996185303,Fri Mar 07 2025 16:36:32 GMT-0600 (Central Standard Time),771604.6000000006,A,cam,O,m,123,1,999.2999999998137,770605.3000000007,7078,WL,C,10.0
7,37.13700008392334,immed,22862.99991607666,Fri Mar 07 2025 16:36:32 GMT-0600 (Central Standard Time),771821.1000000006,A,camp,O,p,205,1,1215.7999999998137,770605.3000000007,7078,WL,C,10.0
7,37.4539999961853,immed,22546.000003814697,Fri Mar 07 2025 16:36:32 GMT-0600 (Central Standard Time),772137.5,A,campenter,O,enter,309,1,1532.199999999255,770605.3000000007,7078,WL,C,10.0
7,39.70300006866455,immed,20296.99993133545,Fri Mar 07 2025 16:36:32 GMT-0600 (Central Standard Time),774387.2000000002,A,f,O,f,2233,1,2249.2999999998137,772137.9000000004,7078,WL,C,11.0
7,39.920000076293945,immed,20079.999923706055,Fri Mar 07 2025 16:36:32 GMT-0600 (Central Standard Time),774603.6000000006,A,fl,O,l,199,1,2465.7000000001863,772137.9000000004,7078,WL,C,11.0
7,39.95300006866455,immed,20046.99993133545,Fri Mar 07 2025 16:36:32 GMT-0600 (Central Standard Time),774636.9000000004,A,fla,O,a,23,1,2499.0,772137.9000000004,7078,WL,C,11.0
7,40.253000020980835,immed,19746.999979019165,Fri Mar 07 2025 16:36:32 GMT-0600 (Central Standard Time),774936.9000000004,A,flag,O,g,294,1,2799.0,772137.9000000004,7078,WL,C,11.0
7,40.33699989318848,immed,19663.000106811523,Fri Mar 07 2025 16:36:32 GMT-0600 (Central Standard Time),775020.2000000002,A,flagenter,O,enter,74,1,2882.2999999998137,772137.9000000004,7078,WL,C,11.0
7,44.4689998626709,immed,15531.000137329102,Fri Mar 07 2025 16:36:32 GMT-0600 (Central Standard Time),779152.3000000007,A,t,O,t,4119,1,4131.800000000745,775020.5,7078,WL,C,12.0
7,44.51900005340576,immed,15480.999946594238,Fri Mar 07 2025 16:36:32 GMT-0600 (Central Standard Time),779202.4000000004,A,to,O,o,42,1,4181.9000000003725,775020.5,7078,WL,C,12.0
7,44.651999950408936,immed,15348.000049591064,Fri Mar 07 2025 16:36:32 GMT-0600 (Central Standard Time),779335.5,A,tow,O,w,129,1,4315.0,775020.5,7078,WL,C,12.0
7,44.76900005340576,immed,15230.999946594238,Fri Mar 07 2025 16:36:32 GMT-0600 (Central Standard Time),779452.2000000002,A,towe,O,e,107,1,4431.700000000186,775020.5,7078,WL,C,12.0
7,44.86899995803833,immed,15131.00004196167,Fri Mar 07 2025 16:36:32 GMT-0600 (Central Standard Time),779552.2000000002,A,tower,O,r,86,1,4531.700000000186,775020.5,7078,WL,C,12.0
7,45.11800003051758,immed,14881.999969482422,Fri Mar 07 2025 16:36:32 GMT-0600 (Central Standard Time),779802.0,A,towerenter,O,enter,234,1,4781.5,775020.5,7078,WL,C,12.0
7,46.45099997520447,immed,13549.000024795532,Fri Mar 07 2025 16:36:32 GMT-0600 (Central Standard Time),781135.2000000002,A,n,O,n,1321,1,1332.7999999998137,779802.4000000004,7078,WL,C,13.0
7,46.58399987220764,immed,13416.000127792358,Fri Mar 07 2025 16:36:32 GMT-0600 (Central Standard Time),781268.2000000002,A,na,O,a,123,1,1465.7999999998137,779802.4000000004,7078,WL,C,13.0
7,46.68599987030029,immed,13314.000129699707,Fri Mar 07 2025 16:36:32 GMT-0600 (Central Standard Time),781369.3000000007,A,nai,O,i,94,1,1566.9000000003725,779802.4000000004,7078,WL,C,13.0
7,46.818000078201294,immed,13181.999921798706,Fri Mar 07 2025 16:36:32 GMT-0600 (Central Standard Time),781501.5,A,nail,O,l,121,1,1699.0999999996275,779802.4000000004,7078,WL,C,13.0
7,47.01799988746643,immed,12982.00011253357,Fri Mar 07 2025 16:36:32 GMT-0600 (Central Standard Time),781701.4000000004,A,nailenter,O,enter,189,1,1899.0,779802.4000000004,7078,WL,C,13.0
7,49.5,immed,10500.0,Fri Mar 07 2025 16:36:32 GMT-0600 (Central Standard Time),784184.2000000002,A,enter,O,enter,2469,1,2482.5,781701.7000000002,7078,WL,C,14.0
7,49.68400001525879,immed,10315.999984741211,Fri Mar 07 2025 16:36:32 GMT-0600 (Central Standard Time),784367.2000000002,A,enter,O,enter,163,1,182.70000000018626,784184.5,7078,WL,C,15.0
