acc_sum,block,block_c,condition,correct,correct_response,datetime,endtime,flanker,jitter,project,response,response_test_buffer_response,response_test_target_response,response_time,response_time_test_buffer_response,response_time_test_target_response,row_sel,session_number,start_end,starttime,subject_id,target,task,task_vers,time_test_buffer,time_test_buffer_response,time_test_constants,time_test_flanker,time_test_jitter,time_test_logger,time_test_target,time_test_target_response,time_test_variables,trial
0,prac,1,inc,0,z,Thu Feb 20 2025 12:17:42 GMT-0600 (Central Standard Time),182159.3999999999,lead,1100,I,None,,,1799,,,8,1,5160.5,176998.8999999999,8030,plum,NF,C,,,,,,,,,,1
0,prac,1,con,0,m,Thu Feb 20 2025 12:17:42 GMT-0600 (Central Standard Time),184408.69999999995,bronze,800,I,z,,,149,,,9,1,2243.8000000000466,182164.8999999999,8030,bronze,NF,C,,,,,,,,,,2
0,prac,1,con,0,z,Thu Feb 20 2025 12:17:42 GMT-0600 (Central Standard Time),186858.0,banana,800,I,m,,,340,,,1,1,2445.100000000093,184412.8999999999,8030,banana,NF,C,,,,,,,,,,3
0,prac,1,inc,0,m,Thu Feb 20 2025 12:17:42 GMT-0600 (Central Standard Time),192022.69999999995,raisin,1100,I,None,,,1799,,,12,1,5160.300000000047,186862.3999999999,8030,cobalt,NF,C,,,,,,,,,,4
0,prac,1,inc,0,m,Thu Feb 20 2025 12:17:42 GMT-0600 (Central Standard Time),194955.3999999999,plum,1100,I,z,,,529,,,16,1,2927.899999999907,192027.5,8030,lead,NF,C,,,,,,,,,,5
0,prac,1,con,0,m,Thu Feb 20 2025 12:17:42 GMT-0600 (Central Standard Time),200020.3999999999,silver,1000,I,None,,,1799,,,11,1,5060.5,194959.8999999999,8030,silver,NF,C,,,,,,,,,,6
1,prac,1,con,1,m,Thu Feb 20 2025 12:17:42 GMT-0600 (Central Standard Time),203602.69999999995,zinc,1000,I,m,,,1271,,,15,1,3578.0,200024.69999999995,8030,zinc,NF,C,,,,,,,,,,7
2,prac,1,con,1,z,Thu Feb 20 2025 12:17:42 GMT-0600 (Central Standard Time),206834.7999999998,orange,1000,I,z,,,930,,,3,1,3227.6999999999534,203607.09999999986,8030,orange,NF,C,,,,,,,,,,8
3,prac,1,inc,1,z,Thu Feb 20 2025 12:17:42 GMT-0600 (Central Standard Time),210617.0,copper,900,I,z,,,1581,,,2,1,3777.7000000001863,206839.2999999998,8030,cherry,NF,C,,,,,,,,,,9
4,prac,1,con,1,m,Thu Feb 20 2025 12:17:42 GMT-0600 (Central Standard Time),213316.19999999995,gold,800,I,m,,,594,,,13,1,2694.9000000001397,210621.2999999998,8030,gold,NF,C,,,,,,,,,,10
5,prac,1,inc,1,m,Thu Feb 20 2025 12:17:42 GMT-0600 (Central Standard Time),216431.8999999999,cherry,900,I,m,,,901,,,10,1,3110.899999999907,213321.0,8030,copper,NF,C,,,,,,,,,,11
6,prac,1,con,1,z,Thu Feb 20 2025 12:17:42 GMT-0600 (Central Standard Time),219047.69999999995,lime,800,I,z,,,501,,,5,1,2611.5,216436.19999999995,8030,lime,NF,C,,,,,,,,,,12
7,prac,1,inc,1,m,Thu Feb 20 2025 12:17:42 GMT-0600 (Central Standard Time),221980.3999999999,pear,900,I,m,,,721,,,14,1,2928.399999999907,219052.0,8030,iron,NF,C,,,,,,,,,,13
8,prac,1,inc,1,z,Thu Feb 20 2025 12:17:42 GMT-0600 (Central Standard Time),224995.8999999999,iron,900,I,z,,,805,,,6,1,3011.3000000000466,221984.59999999986,8030,pear,NF,C,,,,,,,,,,14
9,prac,1,inc,1,z,Thu Feb 20 2025 12:17:42 GMT-0600 (Central Standard Time),228411.69999999995,cobalt,1100,I,z,,,1005,,,4,1,3411.100000000093,225000.59999999986,8030,raisin,NF,C,,,,,,,,,,15
10,prac,1,con,1,z,Thu Feb 20 2025 12:17:42 GMT-0600 (Central Standard Time),231527.3999999999,kiwi,1000,I,z,,,800,,,7,1,3111.600000000093,228415.7999999998,8030,kiwi,NF,C,,,,,,,,,,16
1,prac,2,inc,1,z,Thu Feb 20 2025 12:17:42 GMT-0600 (Central Standard Time),247455.3999999999,copper,900,I,z,,,933,,,2,1,3145.399999999907,244310.0,8030,cherry,NF,C,,,,,,,,,,1
2,prac,2,con,1,m,Thu Feb 20 2025 12:17:42 GMT-0600 (Central Standard Time),250204.59999999986,gold,800,I,m,,,636,,,13,1,2744.5999999998603,247460.0,8030,gold,NF,C,,,,,,,,,,2
3,prac,2,inc,1,z,Thu Feb 20 2025 12:17:42 GMT-0600 (Central Standard Time),253137.19999999995,iron,900,I,z,,,723,,,6,1,2928.8000000000466,250208.3999999999,8030,pear,NF,C,,,,,,,,,,3
3,prac,2,con,0,z,Thu Feb 20 2025 12:17:42 GMT-0600 (Central Standard Time),255803.09999999986,banana,800,I,m,,,564,,,1,1,2661.899999999907,253141.19999999995,8030,banana,NF,C,,,,,,,,,,4
4,prac,2,inc,1,z,Thu Feb 20 2025 12:17:42 GMT-0600 (Central Standard Time),258935.19999999995,cobalt,1100,I,z,,,717,,,4,1,3128.1999999999534,255807.0,8030,raisin,NF,C,,,,,,,,,,5
5,prac,2,con,1,m,Thu Feb 20 2025 12:17:42 GMT-0600 (Central Standard Time),261817.69999999995,bronze,800,I,m,,,781,,,9,1,2878.5,258939.19999999995,8030,bronze,NF,C,,,,,,,,,,6
6,prac,2,con,1,z,Thu Feb 20 2025 12:17:42 GMT-0600 (Central Standard Time),264716.8999999999,lime,800,I,z,,,787,,,5,1,2895.0,261821.8999999999,8030,lime,NF,C,,,,,,,,,,7
7,prac,2,inc,1,m,Thu Feb 20 2025 12:17:42 GMT-0600 (Central Standard Time),267615.8999999999,pear,900,I,m,,,708,,,14,1,2894.8000000000466,264721.09999999986,8030,iron,NF,C,,,,,,,,,,8
8,prac,2,con,1,z,Thu Feb 20 2025 12:17:42 GMT-0600 (Central Standard Time),270598.2999999998,orange,1000,I,z,,,677,,,3,1,2978.0,267620.2999999998,8030,orange,NF,C,,,,,,,,,,9
9,prac,2,inc,1,z,Thu Feb 20 2025 12:17:42 GMT-0600 (Central Standard Time),273847.3999999999,lead,1100,I,z,,,842,,,8,1,3244.399999999907,270603.0,8030,plum,NF,C,,,,,,,,,,10
10,prac,2,con,1,z,Thu Feb 20 2025 12:17:42 GMT-0600 (Central Standard Time),277046.09999999986,kiwi,1000,I,z,,,885,,,7,1,3194.5,273851.59999999986,8030,kiwi,NF,C,,,,,,,,,,11
11,prac,2,inc,1,m,Thu Feb 20 2025 12:17:42 GMT-0600 (Central Standard Time),280078.8999999999,cherry,900,I,m,,,817,,,10,1,3028.899999999907,277050.0,8030,copper,NF,C,,,,,,,,,,12
12,prac,2,inc,1,m,Thu Feb 20 2025 12:17:42 GMT-0600 (Central Standard Time),283361.0,raisin,1100,I,m,,,873,,,12,1,3278.100000000093,280082.8999999999,8030,cobalt,NF,C,,,,,,,,,,13
13,prac,2,inc,1,m,Thu Feb 20 2025 12:17:42 GMT-0600 (Central Standard Time),286510.19999999995,plum,1100,I,m,,,736,,,16,1,3145.0,283365.19999999995,8030,lead,NF,C,,,,,,,,,,14
14,prac,2,con,1,m,Thu Feb 20 2025 12:17:42 GMT-0600 (Central Standard Time),289617.09999999986,silver,1000,I,m,,,750,,,11,1,3102.8000000000466,286514.2999999998,8030,silver,NF,C,,,,,,,,,,15
15,prac,2,con,1,m,Thu Feb 20 2025 12:17:42 GMT-0600 (Central Standard Time),292524.5,zinc,1000,I,m,,,603,,,15,1,2903.3000000000466,289621.19999999995,8030,zinc,NF,C,,,,,,,,,,16
1,test,1,inc,1,z,Thu Feb 20 2025 12:17:42 GMT-0600 (Central Standard Time),317150.3999999999,cobalt,1100,I,z,z,None,786,587.0,199.0,16,1,2429.100000000093,314721.2999999998,8030,cherry,NF,C,302012,302012,300182,301295,300183,302612,301812,301812,302611,1
2,test,1,inc,1,m,Thu Feb 20 2025 12:17:42 GMT-0600 (Central Standard Time),319382.7999999998,kiwi,1000,I,m,m,None,686,487.0,199.0,103,1,2227.7999999998137,317155.0,8030,gold,NF,C,304344,304344,302616,303628,302616,304844,304145,304145,304844,2
3,test,1,con,1,m,Thu Feb 20 2025 12:17:42 GMT-0600 (Central Standard Time),321582.19999999995,lead,900,I,m,m,None,761,562.0,199.0,122,1,2194.4000000001397,319387.7999999998,8030,lead,NF,C,306477,306477,304849,305761,304849,307043,306278,306278,307043,3
4,test,1,inc,1,m,Thu Feb 20 2025 12:17:42 GMT-0600 (Central Standard Time),323914.8999999999,lime,800,I,m,m,None,989,790.0,199.0,109,1,2328.3000000000466,321586.59999999986,8030,iron,NF,C,308577,308577,307048,307860,307048,309376,308377,308377,309376,4
5,test,1,inc,1,z,Thu Feb 20 2025 12:17:42 GMT-0600 (Central Standard Time),326164.09999999986,zinc,1000,I,z,z,None,714,514.0,200.0,47,1,2245.0,323919.09999999986,8030,pear,NF,C,311109,311109,309380,310393,309380,311625,310909,310909,311625,5
6,test,1,inc,1,m,Thu Feb 20 2025 12:17:42 GMT-0600 (Central Standard Time),328547.8999999999,orange,1000,I,m,m,None,849,649.0,200.0,95,1,2379.8000000000466,326168.09999999986,8030,cobalt,NF,C,313358,313358,311629,312642,311630,314009,313158,313158,314009,6
7,test,1,con,1,z,Thu Feb 20 2025 12:17:42 GMT-0600 (Central Standard Time),331012.8999999999,pear,1100,I,z,z,None,821,622.0,199.0,44,1,2460.899999999907,328552.0,8030,pear,NF,C,315841,315841,314013,315124,314013,316474,315641,315641,316474,7
8,test,1,inc,1,m,Thu Feb 20 2025 12:17:42 GMT-0600 (Central Standard Time),333245.3999999999,kiwi,1000,I,m,m,None,695,496.0,199.0,111,1,2228.5,331016.8999999999,8030,iron,NF,C,318207,318207,316478,317490,316478,318706,318007,318007,318706,8
9,test,1,inc,1,z,Thu Feb 20 2025 12:17:42 GMT-0600 (Central Standard Time),335278.09999999986,bronze,800,I,z,z,None,694,495.0,199.0,29,1,2028.8000000000466,333249.2999999998,8030,raisin,NF,C,320240,320240,318710,319523,318711,320739,320040,320040,320739,9
10,test,1,con,1,z,Thu Feb 20 2025 12:17:42 GMT-0600 (Central Standard Time),337677.19999999995,cherry,900,I,z,z,None,966,755.0,211.0,10,1,2395.3000000000466,335281.8999999999,8030,cherry,NF,C,322372,322372,320743,321656,320743,323138,322161,322161,323138,10
11,test,1,con,1,m,Thu Feb 20 2025 12:17:42 GMT-0600 (Central Standard Time),339693.2999999998,lead,1000,I,m,m,None,472,272.0,200.0,123,1,2012.0999999998603,337681.19999999995,8030,lead,NF,C,324871,324871,323142,324155,323143,325154,324671,324671,325154,11
12,test,1,inc,1,m,Thu Feb 20 2025 12:17:42 GMT-0600 (Central Standard Time),342075.8999999999,raisin,1100,I,m,m,None,746,547.0,199.0,80,1,2378.1999999999534,339697.69999999995,8030,copper,NF,C,326988,326988,325159,326271,325159,327537,326787,326788,327537,12
13,test,1,con,1,m,Thu Feb 20 2025 12:17:42 GMT-0600 (Central Standard Time),344275.19999999995,cobalt,1000,I,m,m,None,657,457.0,200.0,91,1,2195.5,342079.69999999995,8030,cobalt,NF,C,329270,329270,327541,328554,327541,329736,329070,329070,329736,13
14,test,1,inc,1,z,Thu Feb 20 2025 12:17:42 GMT-0600 (Central Standard Time),346507.8999999999,zinc,1000,I,z,z,None,690,490.0,200.0,63,1,2228.899999999907,344279.0,8030,plum,NF,C,331469,331469,329740,330753,329740,331969,331269,331269,331969,14
15,test,1,inc,1,z,Thu Feb 20 2025 12:17:42 GMT-0600 (Central Standard Time),348906.7999999998,lead,1100,I,z,z,None,765,565.0,200.0,64,1,2395.0999999998603,346511.69999999995,8030,plum,NF,C,333802,333802,331973,333087,331973,334368,333602,333602,334368,15
16,test,1,inc,1,m,Thu Feb 20 2025 12:17:42 GMT-0600 (Central Standard Time),351206.2999999998,banana,800,I,m,m,None,952,737.0,215.0,85,1,2295.5999999998603,348910.69999999995,8030,silver,NF,C,335918,335918,334372,335185,334372,336667,335702,335703,336667,16
17,test,1,con,1,z,Thu Feb 20 2025 12:17:42 GMT-0600 (Central Standard Time),353455.59999999986,banana,1000,I,z,z,None,709,510.0,199.0,3,1,2245.3000000000466,351210.2999999998,8030,banana,NF,C,338400,338401,336671,337684,336672,338917,338201,338201,338917,17
18,test,1,inc,1,z,Thu Feb 20 2025 12:17:42 GMT-0600 (Central Standard Time),355721.59999999986,zinc,1000,I,z,z,None,717,517.0,200.0,39,1,2262.0,353459.59999999986,8030,lime,NF,C,340650,340650,338921,339934,338921,341183,340450,340450,341183,18
19,test,1,inc,1,z,Thu Feb 20 2025 12:17:42 GMT-0600 (Central Standard Time),357870.8999999999,bronze,800,I,z,z,None,810,611.0,199.0,13,1,2145.399999999907,355725.5,8030,cherry,NF,C,342716,342716,341187,341999,341187,343332,342516,342516,343332,19
20,test,1,con,1,m,Thu Feb 20 2025 12:17:42 GMT-0600 (Central Standard Time),360222.0,iron,1000,I,m,m,None,810,610.0,200.0,107,1,2347.3000000000466,357874.69999999995,8030,iron,NF,C,345065,345065,343336,344348,343336,345683,344865,344865,345683,20
21,test,1,con,1,m,Thu Feb 20 2025 12:17:42 GMT-0600 (Central Standard Time),362602.5,copper,1000,I,m,m,None,849,649.0,200.0,75,1,2376.5,360226.0,8030,copper,NF,C,347414,347414,345687,346698,345687,348064,347214,347214,348063,21
22,test,1,inc,1,m,Thu Feb 20 2025 12:17:42 GMT-0600 (Central Standard Time),364818.69999999995,pear,900,I,m,m,None,774,574.0,200.0,102,1,2212.600000000093,362606.09999999986,8030,gold,NF,C,349697,349697,348067,348980,348067,350280,349497,349497,350280,22
23,test,1,con,1,z,Thu Feb 20 2025 12:17:42 GMT-0600 (Central Standard Time),367134.59999999986,cherry,1000,I,z,z,None,777,578.0,199.0,11,1,2312.0,364822.59999999986,8030,cherry,NF,C,352013,352013,350284,351296,350284,352596,351813,351813,352596,23
24,test,1,inc,1,m,Thu Feb 20 2025 12:17:42 GMT-0600 (Central Standard Time),369251.7999999998,banana,800,I,m,m,None,781,581.0,200.0,93,1,2113.399999999907,367138.3999999999,8030,cobalt,NF,C,354129,354129,352599,353412,352600,354713,353929,353929,354713,24
25,test,1,con,1,z,Thu Feb 20 2025 12:17:42 GMT-0600 (Central Standard Time),372049.7999999998,banana,1100,I,z,z,None,1166,966.0,200.0,4,1,2793.899999999907,369255.8999999999,8030,banana,NF,C,356545,356545,354717,355828,354717,357511,356345,356345,357511,25
26,test,1,inc,1,m,Thu Feb 20 2025 12:17:42 GMT-0600 (Central Standard Time),374065.7999999998,lime,800,I,m,m,None,667,467.0,200.0,117,1,2012.3999999999069,372053.3999999999,8030,zinc,NF,C,359044,359044,357514,358328,357515,359527,358844,358844,359527,26
27,test,1,con,1,m,Thu Feb 20 2025 12:17:42 GMT-0600 (Central Standard Time),376215.0,lead,800,I,m,m,None,811,611.0,200.0,121,1,2145.2000000001863,374069.7999999998,8030,lead,NF,C,361060,361060,359531,360343,359531,361676,360860,360860,361676,27
28,test,1,inc,1,m,Thu Feb 20 2025 12:17:42 GMT-0600 (Central Standard Time),378498.09999999986,plum,1100,I,m,m,None,650,450.0,200.0,120,1,2278.899999999907,376219.19999999995,8030,zinc,NF,C,363509,363509,361680,362793,361681,363959,363309,363309,363959,28
29,test,1,inc,1,m,Thu Feb 20 2025 12:17:42 GMT-0600 (Central Standard Time),380730.3999999999,orange,1000,I,m,m,None,690,491.0,199.0,79,1,2228.5,378501.8999999999,8030,copper,NF,C,365692,365692,363963,364975,363963,366191,365492,365492,366191,29
30,test,1,con,1,m,Thu Feb 20 2025 12:17:42 GMT-0600 (Central Standard Time),383013.09999999986,cobalt,900,I,m,m,None,837,638.0,199.0,90,1,2278.6999999999534,380734.3999999999,8030,cobalt,NF,C,367825,367825,366195,367108,366196,368474,367625,367625,368474,30
31,test,1,con,1,z,Thu Feb 20 2025 12:17:42 GMT-0600 (Central Standard Time),385195.5,orange,900,I,z,z,None,740,540.0,200.0,18,1,2178.600000000093,383016.8999999999,8030,orange,NF,C,370107,370107,368478,369391,368478,370657,369907,369907,370657,31
32,test,1,inc,1,m,Thu Feb 20 2025 12:17:42 GMT-0600 (Central Standard Time),387328.3999999999,cherry,900,I,m,m,None,693,493.0,200.0,70,1,2129.100000000093,385199.2999999998,8030,bronze,NF,C,372290,372290,370660,371574,370661,372789,372090,372090,372789,32
33,test,1,con,1,z,Thu Feb 20 2025 12:17:42 GMT-0600 (Central Standard Time),389677.2999999998,plum,1100,I,z,z,None,710,511.0,199.0,60,1,2345.0,387332.2999999998,8030,plum,NF,C,374623,374623,372793,373906,372794,375138,374423,374423,375138,33
33,test,1,con,0,z,Thu Feb 20 2025 12:17:42 GMT-0600 (Central Standard Time),391543.5,orange,800,I,m,m,None,525,326.0,199.0,17,1,1862.3000000000466,389681.19999999995,8030,orange,NF,C,376672,376672,375142,375956,375143,377005,376472,376472,377005,34
34,test,1,con,1,m,Thu Feb 20 2025 12:17:42 GMT-0600 (Central Standard Time),393976.2999999998,bronze,1100,I,m,m,None,793,593.0,200.0,68,1,2428.5999999998603,391547.69999999995,8030,bronze,NF,C,378838,378838,377009,378121,377009,379437,378638,378638,379437,35
35,test,1,con,1,z,Thu Feb 20 2025 12:17:42 GMT-0600 (Central Standard Time),396358.69999999995,lime,1100,I,z,z,None,736,537.0,199.0,36,1,2378.600000000093,393980.09999999986,8030,lime,NF,C,381270,381270,379441,380554,379442,381820,381071,381071,381820,36
35,test,1,inc,0,z,Thu Feb 20 2025 12:17:42 GMT-0600 (Central Standard Time),398558.2999999998,silver,1000,I,m,m,None,662,462.0,200.0,23,1,2195.1999999999534,396363.09999999986,8030,orange,NF,C,383553,383553,381824,382837,381824,384019,383353,383353,384019,37
36,test,1,inc,1,m,Thu Feb 20 2025 12:17:42 GMT-0600 (Central Standard Time),400657.69999999995,lime,800,I,m,m,None,751,551.0,200.0,125,1,2095.5,398562.19999999995,8030,lead,NF,C,385552,385552,384023,384836,384024,386119,385352,385352,386119,38
37,test,1,con,1,m,Thu Feb 20 2025 12:17:42 GMT-0600 (Central Standard Time),403056.7999999998,silver,1000,I,m,m,None,858,643.0,215.0,83,1,2395.399999999907,400661.3999999999,8030,silver,NF,C,387868,387868,386122,387135,386123,388518,387653,387653,388518,39
38,test,1,inc,1,m,Thu Feb 20 2025 12:17:42 GMT-0600 (Central Standard Time),405289.3999999999,kiwi,1000,I,m,m,None,692,492.0,200.0,127,1,2229.0,403060.3999999999,8030,lead,NF,C,390251,390251,388521,389535,388522,390750,390051,390051,390750,40
39,test,1,inc,1,m,Thu Feb 20 2025 12:17:42 GMT-0600 (Central Standard Time),407605.3999999999,plum,1100,I,m,m,None,678,390.0,288.0,128,1,2312.0,405293.3999999999,8030,lead,NF,C,392673,392673,390754,391867,390755,393066,392384,392384,393066,41
40,test,1,con,1,m,Thu Feb 20 2025 12:17:42 GMT-0600 (Central Standard Time),409787.8999999999,silver,900,I,m,m,None,738,539.0,199.0,82,1,2178.399999999907,407609.5,8030,silver,NF,C,394700,394700,393071,393983,393071,395249,394499,394500,395249,42
41,test,1,con,1,z,Thu Feb 20 2025 12:17:42 GMT-0600 (Central Standard Time),411770.5,cherry,800,I,z,z,None,649,449.0,200.0,9,1,1978.6000000000931,409791.8999999999,8030,cherry,NF,C,396782,396782,395253,396066,395253,397232,396582,396582,397232,43
42,test,1,inc,1,m,Thu Feb 20 2025 12:17:42 GMT-0600 (Central Standard Time),413786.5,banana,800,I,m,m,None,681,482.0,199.0,77,1,2012.4000000001397,411774.09999999986,8030,copper,NF,C,398765,398765,397235,398049,397235,399248,398565,398565,399248,44
43,test,1,inc,1,z,Thu Feb 20 2025 12:17:42 GMT-0600 (Central Standard Time),415902.8999999999,iron,900,I,z,z,None,670,470.0,200.0,62,1,2112.600000000093,413790.2999999998,8030,plum,NF,C,400881,400881,399251,400164,399252,401364,400681,400681,401364,45
44,test,1,con,1,m,Thu Feb 20 2025 12:17:42 GMT-0600 (Central Standard Time),418052.19999999995,copper,800,I,m,m,None,806,606.0,200.0,73,1,2145.8000000000466,415906.3999999999,8030,copper,NF,C,402897,402897,401367,402180,401368,403513,402697,402697,403513,46
45,test,1,inc,1,z,Thu Feb 20 2025 12:17:42 GMT-0600 (Central Standard Time),420318.0,iron,900,I,z,z,None,828,628.0,200.0,54,1,2262.0,418056.0,8030,kiwi,NF,C,405146,405146,403517,404430,403517,405779,404946,404946,405779,47
46,test,1,con,1,z,Thu Feb 20 2025 12:17:42 GMT-0600 (Central Standard Time),422650.3999999999,lime,1000,I,z,z,None,799,599.0,200.0,35,1,2328.5,420321.8999999999,8030,lime,NF,C,407512,407512,405783,406796,405783,408112,407312,407312,408111,48
47,test,1,inc,1,m,Thu Feb 20 2025 12:17:42 GMT-0600 (Central Standard Time),424949.8999999999,plum,1100,I,m,m,None,661,462.0,199.0,104,1,2295.8000000000466,422654.09999999986,8030,gold,NF,C,409945,409945,408115,409229,408115,410411,409745,409745,410411,49
48,test,1,con,1,z,Thu Feb 20 2025 12:17:42 GMT-0600 (Central Standard Time),427032.59999999986,raisin,900,I,z,z,None,635,435.0,200.0,26,1,2079.0,424953.59999999986,8030,raisin,NF,C,412044,412044,410415,411328,410415,412494,411844,411844,412494,50
49,test,1,inc,1,m,Thu Feb 20 2025 12:17:42 GMT-0600 (Central Standard Time),429448.5,raisin,1100,I,m,m,None,768,568.0,200.0,72,1,2411.9000000001397,427036.59999999986,8030,bronze,NF,C,414327,414327,412498,413610,412498,414910,414127,414127,414910,51
50,test,1,inc,1,m,Thu Feb 20 2025 12:17:42 GMT-0600 (Central Standard Time),431681.3999999999,pear,900,I,m,m,None,758,550.0,208.0,110,1,2228.600000000093,429452.7999999998,8030,iron,NF,C,416576,416576,414914,415826,414914,417142,416368,416368,417142,52
51,test,1,con,1,m,Thu Feb 20 2025 12:17:42 GMT-0600 (Central Standard Time),434030.3999999999,copper,1100,I,m,m,None,711,512.0,199.0,76,1,2345.1999999999534,431685.19999999995,8030,copper,NF,C,418975,418975,417146,418259,417147,419492,418776,418776,419491,53
52,test,1,inc,1,z,Thu Feb 20 2025 12:17:42 GMT-0600 (Central Standard Time),436212.8999999999,silver,1000,I,z,z,None,637,438.0,199.0,31,1,2178.600000000093,434034.2999999998,8030,raisin,NF,C,421224,421225,419495,420508,419496,421674,421024,421025,421674,54
53,test,1,inc,1,z,Thu Feb 20 2025 12:17:42 GMT-0600 (Central Standard Time),438546.09999999986,cobalt,1100,I,z,z,None,700,499.0,201.0,32,1,2329.1999999999534,436216.8999999999,8030,raisin,NF,C,423508,423508,421678,422791,421678,424007,423307,423307,424007,55
54,test,1,con,1,m,Thu Feb 20 2025 12:17:42 GMT-0600 (Central Standard Time),440678.2999999998,gold,1000,I,m,m,None,594,395.0,199.0,99,1,2128.399999999907,438549.8999999999,8030,gold,NF,C,425740,425740,424011,425023,424011,426139,425540,425540,426139,56
55,test,1,con,1,z,Thu Feb 20 2025 12:17:42 GMT-0600 (Central Standard Time),442810.7999999998,kiwi,900,I,z,z,None,698,498.0,200.0,50,1,2128.0999999998603,440682.69999999995,8030,kiwi,NF,C,427773,427773,426144,427056,426144,428272,427572,427572,428272,57
56,test,1,inc,1,z,Thu Feb 20 2025 12:17:42 GMT-0600 (Central Standard Time),445010.2999999998,copper,900,I,z,z,None,750,550.0,200.0,30,1,2195.6999999999534,442814.59999999986,8030,raisin,NF,C,429905,429905,428276,429189,428276,430471,429705,429705,430471,58
57,test,1,con,1,m,Thu Feb 20 2025 12:17:42 GMT-0600 (Central Standard Time),446859.59999999986,silver,800,I,m,m,None,506,307.0,199.0,81,1,1845.5,445014.09999999986,8030,silver,NF,C,432004,432004,430475,431288,430475,432321,431805,431805,432321,59
58,test,1,con,1,z,Thu Feb 20 2025 12:17:42 GMT-0600 (Central Standard Time),448992.5,lime,800,I,z,z,None,793,593.0,200.0,33,1,2129.2000000001863,446863.2999999998,8030,lime,NF,C,433854,433854,432324,433137,432325,434454,433654,433654,434453,60
58,test,1,con,0,z,Thu Feb 20 2025 12:17:42 GMT-0600 (Central Standard Time),451208.3999999999,orange,1100,I,m,m,None,576,377.0,199.0,20,1,2212.100000000093,448996.2999999998,8030,orange,NF,C,436286,436286,434457,435570,434458,436669,436087,436087,436669,61
59,test,1,inc,1,z,Thu Feb 20 2025 12:17:42 GMT-0600 (Central Standard Time),453374.2999999998,iron,900,I,z,z,None,727,528.0,199.0,38,1,2162.0,451212.2999999998,8030,lime,NF,C,438303,438303,436673,437586,436674,438835,438103,438103,438835,62
60,test,1,inc,1,m,Thu Feb 20 2025 12:17:42 GMT-0600 (Central Standard Time),455507.19999999995,lime,800,I,m,m,None,789,590.0,199.0,101,1,2129.100000000093,453378.09999999986,8030,gold,NF,C,440369,440369,438839,439652,438839,440968,440169,440169,440968,63
61,test,1,con,1,m,Thu Feb 20 2025 12:17:42 GMT-0600 (Central Standard Time),457972.8999999999,lead,1100,I,m,m,None,830,630.0,200.0,124,1,2461.8000000000466,455511.09999999986,8030,lead,NF,C,442801,442801,440972,442085,440972,443434,442601,442601,443434,64
62,test,1,con,1,m,Thu Feb 20 2025 12:17:42 GMT-0600 (Central Standard Time),460238.8999999999,zinc,900,I,m,m,None,828,628.0,200.0,114,1,2262.3000000000466,457976.59999999986,8030,zinc,NF,C,445067,445067,443438,444351,443438,445700,444867,444867,445700,65
63,test,1,inc,1,m,Thu Feb 20 2025 12:17:42 GMT-0600 (Central Standard Time),462321.59999999986,pear,900,I,m,m,None,633,434.0,199.0,118,1,2079.0999999998603,460242.5,8030,zinc,NF,C,447333,447333,445704,446617,445704,447783,447133,447133,447783,66
64,test,1,con,1,m,Thu Feb 20 2025 12:17:42 GMT-0600 (Central Standard Time),464654.09999999986,gold,1100,I,m,m,None,694,495.0,199.0,100,1,2328.5999999998603,462325.5,8030,gold,NF,C,449616,449616,447787,448899,447787,450115,449416,449416,450115,67
65,test,1,inc,1,z,Thu Feb 20 2025 12:17:42 GMT-0600 (Central Standard Time),467020.09999999986,cobalt,1100,I,z,z,None,722,523.0,199.0,24,1,2362.1999999999534,464657.8999999999,8030,orange,NF,C,451948,451948,450119,451232,450119,452481,451749,451749,452481,68
66,test,1,inc,1,z,Thu Feb 20 2025 12:17:42 GMT-0600 (Central Standard Time),469369.5,iron,900,I,z,z,None,908,709.0,199.0,46,1,2345.600000000093,467023.8999999999,8030,pear,NF,C,454114,454114,452485,453398,452485,454831,453914,453915,454830,69
67,test,1,con,1,m,Thu Feb 20 2025 12:17:42 GMT-0600 (Central Standard Time),471318.69999999995,gold,800,I,m,m,None,610,411.0,199.0,97,1,1945.5,469373.19999999995,8030,gold,NF,C,456364,456364,454834,455647,454834,456780,456164,456164,456780,70
67,test,1,con,0,z,Thu Feb 20 2025 12:17:42 GMT-0600 (Central Standard Time),473567.69999999995,pear,800,I,m,m,None,910,710.0,200.0,41,1,2245.1999999999534,471322.5,8030,pear,NF,C,458313,458313,456783,457596,456784,459029,458113,458113,459029,71
68,test,1,con,1,m,Thu Feb 20 2025 12:17:42 GMT-0600 (Central Standard Time),476033.8999999999,iron,800,I,m,m,None,1133,933.0,200.0,105,1,2461.1999999999534,473572.69999999995,8030,iron,NF,C,460562,460562,459034,459846,459034,461495,460362,460362,461495,72
69,test,1,inc,1,z,Thu Feb 20 2025 12:17:42 GMT-0600 (Central Standard Time),478066.2999999998,gold,800,I,z,z,None,698,498.0,200.0,45,1,2028.5,476037.7999999998,8030,pear,NF,C,463028,463028,461499,462312,461499,463527,462828,462828,463527,73
70,test,1,con,1,z,Thu Feb 20 2025 12:17:42 GMT-0600 (Central Standard Time),480349.2999999998,pear,1000,I,z,z,None,738,538.0,200.0,43,1,2279.0999999998603,478070.19999999995,8030,pear,NF,C,465261,465261,463531,464544,463532,465810,465061,465061,465810,74
71,test,1,inc,1,m,Thu Feb 20 2025 12:17:42 GMT-0600 (Central Standard Time),482498.3999999999,banana,800,I,m,m,None,807,608.0,199.0,69,1,2145.3000000000466,480353.09999999986,8030,bronze,NF,C,467343,467343,465814,466628,465814,467959,467144,467144,467959,75
72,test,1,inc,1,z,Thu Feb 20 2025 12:17:42 GMT-0600 (Central Standard Time),484814.59999999986,bronze,800,I,z,z,None,970,769.0,201.0,21,1,2312.399999999907,482502.19999999995,8030,orange,NF,C,469494,469494,467963,468776,467963,470276,469293,469293,470276,76
73,test,1,con,1,z,Thu Feb 20 2025 12:17:42 GMT-0600 (Central Standard Time),486947.19999999995,pear,900,I,z,z,None,689,490.0,199.0,42,1,2128.3000000000466,484818.8999999999,8030,pear,NF,C,471909,471909,470280,471192,470280,472408,471709,471709,472408,77
74,test,1,con,1,m,Thu Feb 20 2025 12:17:42 GMT-0600 (Central Standard Time),489163.19999999995,cobalt,1100,I,m,m,None,580,381.0,199.0,92,1,2212.3000000000466,486950.8999999999,8030,cobalt,NF,C,474241,474242,472412,473525,472412,474624,474041,474042,474624,78
75,test,1,con,1,m,Thu Feb 20 2025 12:17:42 GMT-0600 (Central Standard Time),491129.19999999995,zinc,800,I,m,m,None,625,426.0,199.0,113,1,1962.3000000000466,489166.8999999999,8030,zinc,NF,C,476157,476157,474628,475441,474628,476590,475958,475958,476590,79
76,test,1,inc,1,z,Thu Feb 20 2025 12:17:42 GMT-0600 (Central Standard Time),493362.0,zinc,1000,I,z,z,None,692,492.0,200.0,55,1,2229.0,491133.0,8030,kiwi,NF,C,478323,478323,476594,477607,476594,478823,478123,478123,478823,80
76,test,1,con,0,z,Thu Feb 20 2025 12:17:42 GMT-0600 (Central Standard Time),495394.2999999998,plum,1000,I,m,m,None,499,299.0,200.0,59,1,2028.6999999999534,493365.59999999986,8030,plum,NF,C,480556,480556,478827,479840,478827,480855,480356,480356,480855,81
77,test,1,con,1,z,Thu Feb 20 2025 12:17:42 GMT-0600 (Central Standard Time),497610.5,kiwi,800,I,z,z,None,874,675.0,199.0,49,1,2212.2000000001863,495398.2999999998,8030,kiwi,NF,C,482388,482388,480859,481673,480860,483072,482189,482189,483072,82
78,test,1,con,1,z,Thu Feb 20 2025 12:17:42 GMT-0600 (Central Standard Time),499942.7999999998,cherry,1100,I,z,z,None,693,494.0,199.0,12,1,2328.2999999998137,497614.5,8030,cherry,NF,C,484904,484904,483076,484188,483076,485404,484705,484705,485404,83
79,test,1,con,1,m,Thu Feb 20 2025 12:17:42 GMT-0600 (Central Standard Time),501925.8999999999,bronze,800,I,m,m,None,532,328.0,204.0,65,1,1977.8000000000466,499948.09999999986,8030,bronze,NF,C,487055,487055,485409,486221,485410,487387,486851,486851,487387,84
80,test,1,con,1,z,Thu Feb 20 2025 12:17:42 GMT-0600 (Central Standard Time),503741.8999999999,raisin,800,I,z,z,None,471,271.0,200.0,25,1,1812.1000000000931,501929.7999999998,8030,raisin,NF,C,488920,488920,487391,488203,487391,489203,488720,488720,489203,85
81,test,1,con,1,m,Thu Feb 20 2025 12:17:42 GMT-0600 (Central Standard Time),505907.7999999998,silver,1100,I,m,m,None,531,331.0,200.0,84,1,2162.1999999999534,503745.59999999986,8030,silver,NF,C,491036,491036,489207,490320,489207,491369,490836,490836,491369,86
82,test,1,inc,1,z,Thu Feb 20 2025 12:17:42 GMT-0600 (Central Standard Time),508190.2999999998,lead,1100,I,z,z,None,644,444.0,200.0,56,1,2278.5999999998603,505911.69999999995,8030,kiwi,NF,C,493202,493202,491373,492485,491373,493651,493002,493002,493651,87
83,test,1,con,1,m,Thu Feb 20 2025 12:17:42 GMT-0600 (Central Standard Time),510556.59999999986,bronze,1000,I,m,m,None,822,623.0,199.0,67,1,2362.6999999999534,508193.8999999999,8030,bronze,NF,C,495384,495384,493655,494668,493655,496018,495185,495185,496018,88
84,test,1,inc,1,z,Thu Feb 20 2025 12:17:42 GMT-0600 (Central Standard Time),512672.5,copper,900,I,z,z,None,675,476.0,199.0,22,1,2111.9000000001397,510560.59999999986,8030,orange,NF,C,497651,497651,496022,496934,496022,498134,497451,497451,498134,89
85,test,1,con,1,z,Thu Feb 20 2025 12:17:42 GMT-0600 (Central Standard Time),515121.7999999998,plum,800,I,z,z,None,1099,900.0,199.0,57,1,2445.5,512676.2999999998,8030,plum,NF,C,499667,499667,498137,498950,498138,500583,499467,499467,500583,90
86,test,1,con,1,m,Thu Feb 20 2025 12:17:42 GMT-0600 (Central Standard Time),517321.0,zinc,1000,I,m,m,None,658,459.0,199.0,115,1,2195.4000000001397,515125.59999999986,8030,zinc,NF,C,502316,502316,500587,501600,500587,502782,502116,502116,502782,91
87,test,1,inc,1,m,Thu Feb 20 2025 12:17:42 GMT-0600 (Central Standard Time),519653.69999999995,raisin,1100,I,m,m,None,696,496.0,200.0,96,1,2328.600000000093,517325.09999999986,8030,cobalt,NF,C,504615,504615,502786,503899,502786,505115,504415,504415,505115,92
88,test,1,inc,1,m,Thu Feb 20 2025 12:17:42 GMT-0600 (Central Standard Time),522086.19999999995,plum,1100,I,m,m,None,794,595.0,199.0,112,1,2428.3000000000466,519657.8999999999,8030,iron,NF,C,506948,506948,505119,506231,505119,507547,506748,506748,507547,93
89,test,1,inc,1,z,Thu Feb 20 2025 12:17:42 GMT-0600 (Central Standard Time),524418.7999999998,lead,1100,I,z,z,None,689,490.0,199.0,40,1,2328.5,522090.2999999998,8030,lime,NF,C,509381,509381,507551,508664,507552,509880,509181,509181,509880,94
90,test,1,con,1,z,Thu Feb 20 2025 12:17:42 GMT-0600 (Central Standard Time),526634.8999999999,banana,900,I,z,z,None,774,574.0,200.0,2,1,2212.0,524422.8999999999,8030,banana,NF,C,511513,511513,509884,510797,509884,512096,511313,511313,512096,95
91,test,1,inc,1,m,Thu Feb 20 2025 12:17:42 GMT-0600 (Central Standard Time),528667.5,cherry,900,I,m,m,None,598,398.0,200.0,94,1,2028.7000000001863,526638.7999999998,8030,cobalt,NF,C,513729,513729,512100,513012,512100,514129,513529,513529,514129,96
92,test,1,inc,1,m,Thu Feb 20 2025 12:17:42 GMT-0600 (Central Standard Time),531166.7999999998,orange,1000,I,m,m,None,952,753.0,199.0,87,1,2495.5,528671.2999999998,8030,silver,NF,C,515861,515862,514132,515145,514133,516628,515662,515662,516628,97
93,test,1,inc,1,m,Thu Feb 20 2025 12:17:42 GMT-0600 (Central Standard Time),533266.0,pear,900,I,m,m,None,658,458.0,200.0,126,1,2095.4000000001397,531170.5999999999,8030,lead,NF,C,518261,518261,516632,517544,516632,518727,518061,518061,518727,98
94,test,1,con,1,m,Thu Feb 20 2025 12:17:42 GMT-0600 (Central Standard Time),535515.3999999999,cobalt,800,I,m,m,None,915,715.0,200.0,89,1,2245.5,533269.8999999999,8030,cobalt,NF,C,520260,520260,518731,519544,518731,520976,520060,520060,520976,99
95,test,1,inc,1,z,Thu Feb 20 2025 12:17:42 GMT-0600 (Central Standard Time),537465.0,gold,800,I,z,z,None,601,402.0,199.0,37,1,1945.9000000001397,535519.0999999999,8030,lime,NF,C,522509,522509,520980,521793,520981,522926,522310,522310,522926,100
96,test,1,con,1,m,Thu Feb 20 2025 12:17:42 GMT-0600 (Central Standard Time),539714.0,iron,1100,I,m,m,None,600,400.0,200.0,108,1,2245.5,537468.5,8030,iron,NF,C,524759,524759,522930,524043,522930,525175,524559,524559,525175,101
97,test,1,inc,1,z,Thu Feb 20 2025 12:17:42 GMT-0600 (Central Standard Time),541796.7999999998,gold,800,I,z,z,None,746,547.0,199.0,53,1,2078.899999999907,539717.8999999999,8030,kiwi,NF,C,526708,526708,525179,525992,525179,527258,526509,526509,527258,102
98,test,1,inc,1,z,Thu Feb 20 2025 12:17:42 GMT-0600 (Central Standard Time),544229.2999999998,cobalt,1100,I,z,z,None,787,588.0,199.0,8,1,2428.7999999998137,541800.5,8030,banana,NF,C,529091,529091,527262,528374,527262,529690,528891,528891,529690,103
99,test,1,inc,1,m,Thu Feb 20 2025 12:17:42 GMT-0600 (Central Standard Time),546711.7999999998,raisin,1100,I,m,m,None,844,644.0,200.0,88,1,2478.7999999998137,544233.0,8030,silver,NF,C,531523,531523,529694,530807,529694,532173,531323,531323,532173,104
100,test,1,con,1,m,Thu Feb 20 2025 12:17:42 GMT-0600 (Central Standard Time),548994.5,iron,900,I,m,m,None,832,633.0,199.0,106,1,2279.100000000093,546715.3999999999,8030,iron,NF,C,533806,533806,532176,533089,532177,534456,533606,533606,534456,105
101,test,1,inc,1,m,Thu Feb 20 2025 12:17:42 GMT-0600 (Central Standard Time),551210.2999999998,kiwi,1000,I,m,m,None,682,483.0,199.0,119,1,2212.0999999998603,548998.2,8030,zinc,NF,C,536188,536188,534459,535472,534460,536671,535989,535989,536671,106
102,test,1,con,1,z,Thu Feb 20 2025 12:17:42 GMT-0600 (Central Standard Time),553243.3999999999,banana,800,I,z,z,None,689,490.0,199.0,1,1,2029.5,551213.8999999999,8030,banana,NF,C,538204,538205,536675,537489,536675,538704,538005,538005,538704,107
103,test,1,inc,1,z,Thu Feb 20 2025 12:17:42 GMT-0600 (Central Standard Time),555375.8999999999,copper,900,I,z,z,None,701,502.0,199.0,6,1,2128.899999999907,553247.0,8030,banana,NF,C,540321,540321,538708,539621,538708,540837,540122,540122,540837,108
104,test,1,con,1,z,Thu Feb 20 2025 12:17:42 GMT-0600 (Central Standard Time),557575.0999999999,kiwi,1000,I,z,z,None,653,453.0,200.0,51,1,2195.5999999998603,555379.5,8030,kiwi,NF,C,542570,542570,540841,541855,540841,543036,542370,542370,543036,109
105,test,1,inc,1,z,Thu Feb 20 2025 12:17:42 GMT-0600 (Central Standard Time),559792.7999999998,copper,900,I,z,z,None,778,578.0,200.0,14,1,2213.7999999998137,557579.0,8030,cherry,NF,C,544669,544669,543040,543953,543040,545254,544469,544469,545254,110
106,test,1,inc,1,m,Thu Feb 20 2025 12:17:42 GMT-0600 (Central Standard Time),561990.0999999999,cherry,900,I,m,m,None,762,562.0,200.0,78,1,2193.399999999907,559796.7,8030,copper,NF,C,546885,546885,545258,546169,545258,547451,546685,546685,547451,111
107,test,1,con,1,z,Thu Feb 20 2025 12:17:42 GMT-0600 (Central Standard Time),564223.0,raisin,1000,I,z,z,None,695,495.0,200.0,27,1,2229.3000000000466,561993.7,8030,raisin,NF,C,549184,549184,547455,548468,547455,549684,548984,548984,549684,112
108,test,1,inc,1,m,Thu Feb 20 2025 12:17:42 GMT-0600 (Central Standard Time),566305.7,cherry,900,I,m,m,None,642,442.0,200.0,86,1,2079.0,564226.7,8030,silver,NF,C,551317,551317,549688,550601,549688,551767,551117,551117,551767,113
109,test,1,inc,1,z,Thu Feb 20 2025 12:17:42 GMT-0600 (Central Standard Time),568738.3999999999,lead,1100,I,z,z,None,799,599.0,200.0,48,1,2428.600000000093,566309.7999999998,8030,pear,NF,C,553600,553600,551771,552883,551771,554199,553400,553400,554199,114
110,test,1,con,1,z,Thu Feb 20 2025 12:17:42 GMT-0600 (Central Standard Time),570904.3999999999,lime,900,I,z,z,None,726,527.0,199.0,34,1,2162.1999999999534,568742.2,8030,lime,NF,C,555832,555832,554203,555116,554204,556366,555632,555633,556365,115
111,test,1,con,1,z,Thu Feb 20 2025 12:17:42 GMT-0600 (Central Standard Time),573286.7999999998,kiwi,1100,I,z,z,None,619,420.0,199.0,52,1,2378.6999999999534,570908.0999999999,8030,kiwi,NF,C,558315,558315,556369,557607,556369,558748,558116,558116,558748,116
112,test,1,con,1,m,Thu Feb 20 2025 12:17:42 GMT-0600 (Central Standard Time),575752.7999999998,zinc,1100,I,m,m,None,818,618.0,200.0,116,1,2462.0,573290.7999999998,8030,zinc,NF,C,560581,560581,558752,559865,558752,561214,560381,560381,561214,117
113,test,1,inc,1,z,Thu Feb 20 2025 12:17:42 GMT-0600 (Central Standard Time),577802.0999999999,gold,800,I,z,z,None,716,516.0,200.0,61,1,2045.5,575756.5999999999,8030,plum,NF,C,562747,562747,561218,562031,561218,563263,562547,562547,563263,118
114,test,1,con,1,z,Thu Feb 20 2025 12:17:42 GMT-0600 (Central Standard Time),580051.3999999999,raisin,1100,I,z,z,None,615,415.0,200.0,28,1,2245.600000000093,577805.7999999998,8030,raisin,NF,C,565096,565096,563267,564380,563267,565513,564896,564896,565512,119
115,test,1,inc,1,m,Thu Feb 20 2025 12:17:42 GMT-0600 (Central Standard Time),582234.2,orange,1000,I,m,m,None,641,442.0,199.0,71,1,2179.100000000093,580055.0999999999,8030,bronze,NF,C,567245,567245,565516,566529,565516,567695,567046,567046,567695,120
116,test,1,con,1,m,Thu Feb 20 2025 12:17:42 GMT-0600 (Central Standard Time),584466.3999999999,copper,900,I,m,m,None,798,599.0,199.0,74,1,2228.399999999907,582238.0,8030,copper,NF,C,569328,569328,567699,568612,567699,569928,569129,569129,569927,121
117,test,1,inc,1,z,Thu Feb 20 2025 12:17:42 GMT-0600 (Central Standard Time),586682.7999999998,silver,1000,I,z,z,None,674,474.0,200.0,15,1,2212.899999999907,584469.8999999999,8030,cherry,NF,C,571661,571661,569931,570944,569931,572144,571461,571461,572144,122
118,test,1,inc,1,z,Thu Feb 20 2025 12:17:42 GMT-0600 (Central Standard Time),588715.2999999998,bronze,800,I,z,z,None,690,490.0,200.0,5,1,2028.7999999998137,586686.5,8030,banana,NF,C,573677,573677,572148,572961,572148,574176,573477,573477,574176,123
119,test,1,con,1,z,Thu Feb 20 2025 12:17:42 GMT-0600 (Central Standard Time),591098.2,orange,1000,I,z,z,None,832,633.0,199.0,19,1,2379.100000000093,588719.0999999999,8030,orange,NF,C,575909,575910,574180,575193,574180,576559,575710,575710,576559,124
120,test,1,con,1,m,Thu Feb 20 2025 12:17:42 GMT-0600 (Central Standard Time),593297.2999999998,bronze,900,I,m,m,None,751,551.0,200.0,66,1,2195.399999999907,591101.8999999999,8030,bronze,NF,C,578192,578192,576563,577476,576563,578758,577992,577992,578758,125
121,test,1,inc,1,z,Thu Feb 20 2025 12:17:42 GMT-0600 (Central Standard Time),595691.3999999999,silver,1000,I,z,z,None,714,515.0,199.0,7,1,2390.399999999907,593301.0,8030,banana,NF,C,580491,580491,578762,579775,578762,581152,580292,580292,581152,126
122,test,1,con,1,z,Thu Feb 20 2025 12:17:42 GMT-0600 (Central Standard Time),597862.5,plum,900,I,z,z,None,719,520.0,199.0,58,1,2166.9000000001397,595695.5999999999,8030,plum,NF,C,582791,582791,581157,582074,581157,583324,582591,582591,583324,127
123,test,1,con,1,m,Thu Feb 20 2025 12:17:42 GMT-0600 (Central Standard Time),600245.0,gold,900,I,m,m,None,937,738.0,199.0,98,1,2378.8000000000466,597866.2,8030,gold,NF,C,584957,584957,583327,584240,583328,585706,584757,584757,585706,128
