Number,acc_sum,block,block_c,block_cond,con_img,correct,correct_response,datetime,endtime,jitter,project,response,response_time,row_sel,session_number,start_end,starttime,subject_id,task,task_vers,trial
9,1,prac,1,A,circle.png,1,m,Thu Apr 17 2025 10:10:05 GMT-0500 (Central Daylight Time),55930.5,1500,O,m,1088,8,1,3376.5,52554.0,7128,NTS,A,1
6,2,prac,1,A,circle.png,1,m,Thu Apr 17 2025 10:10:05 GMT-0500 (Central Daylight Time),59629.20000000298,1900,O,m,1010,5,1,3691.5,55937.70000000298,7128,NTS,A,2
2,3,prac,1,A,circle.png,1,z,Thu Apr 17 2025 10:10:05 GMT-0500 (Central Daylight Time),62961.60000000149,2000,O,z,540,2,1,3326.60000000149,59635.0,7128,NTS,A,3
3,4,prac,1,A,circle.png,1,z,Thu Apr 17 2025 10:10:05 GMT-0500 (Central Daylight Time),65527.29999999702,1200,O,z,575,3,1,2559.1999999955297,62968.10000000149,7128,NTS,A,4
1,5,prac,1,A,circle.png,1,z,Thu Apr 17 2025 10:10:05 GMT-0500 (Central Daylight Time),68060.0,1000,O,z,737,1,1,2526.7999999970198,65533.20000000298,7128,NTS,A,5
4,6,prac,1,A,circle.png,1,z,Thu Apr 17 2025 10:10:05 GMT-0500 (Central Daylight Time),70909.0,1400,O,z,653,4,1,2843.5,68065.5,7128,NTS,A,6
2,7,prac,1,A,circle.png,1,z,Thu Apr 17 2025 10:10:05 GMT-0500 (Central Daylight Time),74291.29999999702,2000,O,z,596,2,1,3376.89999999851,70914.39999999851,7128,NTS,A,7
3,8,prac,1,A,circle.png,1,z,Thu Apr 17 2025 10:10:05 GMT-0500 (Central Daylight Time),76873.70000000298,1200,O,z,598,3,1,2577.10000000149,74296.60000000149,7128,NTS,A,8
8,9,prac,1,A,circle.png,1,m,Thu Apr 17 2025 10:10:05 GMT-0500 (Central Daylight Time),80006.29999999702,1600,O,m,735,7,1,3126.5999999940395,76879.70000000298,7128,NTS,A,9
6,10,prac,1,A,circle.png,1,m,Thu Apr 17 2025 10:10:05 GMT-0500 (Central Daylight Time),83505.10000000149,1900,O,m,815,5,1,3493.39999999851,80011.70000000298,7128,NTS,A,10
9,11,prac,1,A,circle.png,1,m,Thu Apr 17 2025 10:10:05 GMT-0500 (Central Daylight Time),86454.0,1500,O,m,660,8,1,2943.0,83511.0,7128,NTS,A,11
7,12,prac,1,A,circle.png,1,m,Thu Apr 17 2025 10:10:05 GMT-0500 (Central Daylight Time),89669.89999999851,1700,O,m,719,6,1,3209.89999999851,86460.0,7128,NTS,A,12
9,1,prac,1,B,triangle.png,1,z,Thu Apr 17 2025 10:10:05 GMT-0500 (Central Daylight Time),126341.5,1400,O,z,1236,8,1,3427.5,122914.0,7128,NTS,A,1
2,2,prac,1,B,triangle.png,1,m,Thu Apr 17 2025 10:10:05 GMT-0500 (Central Daylight Time),129957.20000000298,1700,O,m,1128,2,1,3610.10000000149,126347.10000000149,7128,NTS,A,2
7,3,prac,1,B,triangle.png,1,z,Thu Apr 17 2025 10:10:05 GMT-0500 (Central Daylight Time),133920.29999999702,2000,O,z,1036,6,1,3957.39999999851,129962.89999999851,7128,NTS,A,3
2,4,prac,1,B,triangle.png,1,m,Thu Apr 17 2025 10:10:05 GMT-0500 (Central Daylight Time),137054.79999999702,1700,O,m,635,2,1,3129.0999999940395,133925.70000000298,7128,NTS,A,4
1,5,prac,1,B,triangle.png,1,z,Thu Apr 17 2025 10:10:05 GMT-0500 (Central Daylight Time),140403.6000000015,1900,O,z,661,1,1,3343.2000000029802,137060.3999999985,7128,NTS,A,5
4,6,prac,1,B,triangle.png,1,m,Thu Apr 17 2025 10:10:05 GMT-0500 (Central Daylight Time),143419.6000000015,1500,O,m,730,4,1,3010.5,140409.1000000015,7128,NTS,A,6
6,7,prac,1,B,triangle.png,1,m,Thu Apr 17 2025 10:10:05 GMT-0500 (Central Daylight Time),146118.6000000015,1000,O,m,902,5,1,2693.7000000029802,143424.8999999985,7128,NTS,A,7
8,8,prac,1,B,triangle.png,1,m,Thu Apr 17 2025 10:10:05 GMT-0500 (Central Daylight Time),148701.0,1200,O,m,594,7,1,2576.89999999851,146124.1000000015,7128,NTS,A,8
3,9,prac,1,B,triangle.png,1,z,Thu Apr 17 2025 10:10:05 GMT-0500 (Central Daylight Time),151816.8999999985,1600,O,z,732,3,1,3110.89999999851,148706.0,7128,NTS,A,9
8,10,prac,1,B,triangle.png,1,m,Thu Apr 17 2025 10:10:05 GMT-0500 (Central Daylight Time),154449.29999999702,1200,O,m,639,7,1,2627.39999999851,151821.8999999985,7128,NTS,A,10
9,10,prac,1,B,triangle.png,0,z,Thu Apr 17 2025 10:10:05 GMT-0500 (Central Daylight Time),157607.20000000298,1400,O,m,856,8,1,3152.7000000029802,154454.5,7128,NTS,A,11
6,11,prac,1,B,triangle.png,1,m,Thu Apr 17 2025 10:10:05 GMT-0500 (Central Daylight Time),160797.5,1000,O,m,1403,5,1,3183.89999999851,157613.6000000015,7128,NTS,A,12
2,1,test,1,A,circle.png,1,z,Thu Apr 17 2025 10:10:05 GMT-0500 (Central Daylight Time),185523.0,2000,O,z,907,2,1,2927.10000000149,182595.8999999985,7128,NTS,A,1
7,2,test,1,A,circle.png,1,m,Thu Apr 17 2025 10:10:05 GMT-0500 (Central Daylight Time),187788.79999999702,1700,O,m,537,6,1,2261.7999999970198,185527.0,7128,NTS,A,2
1,3,test,1,A,circle.png,1,z,Thu Apr 17 2025 10:10:05 GMT-0500 (Central Daylight Time),189471.8999999985,1000,O,z,652,1,1,1679.1000000014901,187792.79999999702,7128,NTS,A,3
2,4,test,1,A,circle.png,1,z,Thu Apr 17 2025 10:10:05 GMT-0500 (Central Daylight Time),192120.79999999702,2000,O,z,625,2,1,2645.1999999955297,189475.6000000015,7128,NTS,A,4
6,5,test,1,A,circle.png,1,m,Thu Apr 17 2025 10:10:05 GMT-0500 (Central Daylight Time),194770.0,1900,O,m,724,5,1,2645.5,192124.5,7128,NTS,A,5
3,6,test,1,A,circle.png,1,z,Thu Apr 17 2025 10:10:05 GMT-0500 (Central Daylight Time),196569.5,1200,O,z,575,3,1,1795.5,194774.0,7128,NTS,A,6
9,7,test,1,A,circle.png,1,m,Thu Apr 17 2025 10:10:05 GMT-0500 (Central Daylight Time),198618.79999999702,1500,O,m,523,8,1,2045.5,196573.29999999702,7128,NTS,A,7
1,8,test,1,A,circle.png,1,z,Thu Apr 17 2025 10:10:05 GMT-0500 (Central Daylight Time),200319.5,1000,O,z,670,1,1,1696.7999999970198,198622.70000000298,7128,NTS,A,8
9,9,test,1,A,circle.png,1,m,Thu Apr 17 2025 10:10:05 GMT-0500 (Central Daylight Time),202467.5,1500,O,m,622,8,1,2144.5,200323.0,7128,NTS,A,9
7,10,test,1,A,circle.png,1,m,Thu Apr 17 2025 10:10:05 GMT-0500 (Central Daylight Time),204700.70000000298,1700,O,m,516,6,1,2229.3000000044703,202471.3999999985,7128,NTS,A,10
4,11,test,1,A,circle.png,1,z,Thu Apr 17 2025 10:10:05 GMT-0500 (Central Daylight Time),206766.29999999702,1400,O,z,645,4,1,2061.0,204705.29999999702,7128,NTS,A,11
6,12,test,1,A,circle.png,1,m,Thu Apr 17 2025 10:10:05 GMT-0500 (Central Daylight Time),209365.5,1900,O,m,679,5,1,2595.2999999970198,206770.20000000298,7128,NTS,A,12
1,13,test,1,A,circle.png,1,z,Thu Apr 17 2025 10:10:05 GMT-0500 (Central Daylight Time),210914.79999999702,1000,O,z,523,1,1,1545.5999999940395,209369.20000000298,7128,NTS,A,13
2,14,test,1,A,circle.png,1,z,Thu Apr 17 2025 10:10:05 GMT-0500 (Central Daylight Time),214030.70000000298,2000,O,z,1094,2,1,3112.2000000029802,210918.5,7128,NTS,A,14
8,15,test,1,A,circle.png,1,m,Thu Apr 17 2025 10:10:05 GMT-0500 (Central Daylight Time),216230.0,1600,O,m,570,7,1,2195.60000000149,214034.3999999985,7128,NTS,A,15
8,16,test,1,A,circle.png,1,m,Thu Apr 17 2025 10:10:05 GMT-0500 (Central Daylight Time),218412.3999999985,1600,O,m,562,7,1,2178.89999999851,216233.5,7128,NTS,A,16
4,17,test,1,A,circle.png,1,z,Thu Apr 17 2025 10:10:05 GMT-0500 (Central Daylight Time),220395.20000000298,1400,O,z,565,4,1,1978.9000000059605,218416.29999999702,7128,NTS,A,17
3,18,test,1,A,circle.png,1,z,Thu Apr 17 2025 10:10:05 GMT-0500 (Central Daylight Time),222744.6000000015,1200,O,z,1126,3,1,2345.5,220399.1000000015,7128,NTS,A,18
2,19,test,1,A,circle.png,1,z,Thu Apr 17 2025 10:10:05 GMT-0500 (Central Daylight Time),225327.1000000015,2000,O,z,553,2,1,2578.8000000044703,222748.29999999702,7128,NTS,A,19
6,20,test,1,A,circle.png,1,m,Thu Apr 17 2025 10:10:05 GMT-0500 (Central Daylight Time),227859.5,1900,O,m,606,5,1,2528.7999999970198,225330.70000000298,7128,NTS,A,20
7,21,test,1,A,circle.png,1,m,Thu Apr 17 2025 10:10:05 GMT-0500 (Central Daylight Time),230192.1000000015,1700,O,m,602,6,1,2329.10000000149,227863.0,7128,NTS,A,21
8,22,test,1,A,circle.png,1,m,Thu Apr 17 2025 10:10:05 GMT-0500 (Central Daylight Time),232358.1000000015,1600,O,m,544,7,1,2161.5,230196.6000000015,7128,NTS,A,22
9,23,test,1,A,circle.png,1,m,Thu Apr 17 2025 10:10:05 GMT-0500 (Central Daylight Time),234424.20000000298,1500,O,m,535,8,1,2062.4000000059605,232361.79999999702,7128,NTS,A,23
9,24,test,1,A,circle.png,1,m,Thu Apr 17 2025 10:10:05 GMT-0500 (Central Daylight Time),236423.6000000015,1500,O,m,477,8,1,1995.7000000029802,234427.8999999985,7128,NTS,A,24
1,1,test,1,B,triangle.png,1,z,Thu Apr 17 2025 10:10:05 GMT-0500 (Central Daylight Time),252368.3999999985,1900,O,z,778,1,1,2729.1999999955297,249639.20000000298,7128,NTS,A,1
1,2,test,1,B,triangle.png,1,z,Thu Apr 17 2025 10:10:05 GMT-0500 (Central Daylight Time),254418.1000000015,1400,O,z,617,9,1,2045.5,252372.6000000015,7128,NTS,A,2
4,3,test,1,B,triangle.png,1,m,Thu Apr 17 2025 10:10:05 GMT-0500 (Central Daylight Time),256050.70000000298,1000,O,m,607,12,1,1627.6000000014901,254423.1000000015,7128,NTS,A,3
9,4,test,1,B,triangle.png,1,z,Thu Apr 17 2025 10:10:05 GMT-0500 (Central Daylight Time),258366.6000000015,1400,O,z,886,8,1,2311.89999999851,256054.70000000298,7128,NTS,A,4
2,5,test,1,B,triangle.png,1,m,Thu Apr 17 2025 10:10:05 GMT-0500 (Central Daylight Time),260699.29999999702,1200,O,m,1114,10,1,2329.1999999955297,258370.1000000015,7128,NTS,A,5
8,6,test,1,B,triangle.png,1,m,Thu Apr 17 2025 10:10:05 GMT-0500 (Central Daylight Time),263215.1000000015,1700,O,m,786,15,1,2512.2000000029802,260702.8999999985,7128,NTS,A,6
4,7,test,1,B,triangle.png,1,m,Thu Apr 17 2025 10:10:05 GMT-0500 (Central Daylight Time),264831.3999999985,1000,O,m,594,12,1,1612.5,263218.8999999985,7128,NTS,A,7
6,8,test,1,B,triangle.png,1,m,Thu Apr 17 2025 10:10:05 GMT-0500 (Central Daylight Time),266480.8999999985,1000,O,m,618,5,1,1645.3999999985099,264835.5,7128,NTS,A,8
9,9,test,1,B,triangle.png,1,z,Thu Apr 17 2025 10:10:05 GMT-0500 (Central Daylight Time),269546.3999999985,1900,O,z,1149,16,1,3061.5,266484.8999999985,7128,NTS,A,9
9,10,test,1,B,triangle.png,1,z,Thu Apr 17 2025 10:10:05 GMT-0500 (Central Daylight Time),271862.700000003,1400,O,z,895,8,1,2311.9000000059605,269550.799999997,7128,NTS,A,10
1,11,test,1,B,triangle.png,1,z,Thu Apr 17 2025 10:10:05 GMT-0500 (Central Daylight Time),273928.6000000015,1400,O,z,635,9,1,2061.3000000044703,271867.299999997,7128,NTS,A,11
7,12,test,1,B,triangle.png,1,z,Thu Apr 17 2025 10:10:05 GMT-0500 (Central Daylight Time),276127.799999997,1600,O,z,577,14,1,2195.2999999970198,273932.5,7128,NTS,A,12
3,13,test,1,B,triangle.png,1,z,Thu Apr 17 2025 10:10:05 GMT-0500 (Central Daylight Time),278860.1000000015,2000,O,z,706,11,1,2728.89999999851,276131.200000003,7128,NTS,A,13
7,14,test,1,B,triangle.png,1,z,Thu Apr 17 2025 10:10:05 GMT-0500 (Central Daylight Time),281059.5,1600,O,z,581,14,1,2195.7000000029802,278863.799999997,7128,NTS,A,14
8,15,test,1,B,triangle.png,1,m,Thu Apr 17 2025 10:10:05 GMT-0500 (Central Daylight Time),283258.8999999985,1700,O,m,475,15,1,2195.60000000149,281063.299999997,7128,NTS,A,15
7,16,test,1,B,triangle.png,1,z,Thu Apr 17 2025 10:10:05 GMT-0500 (Central Daylight Time),285924.700000003,2000,O,z,647,6,1,2662.0,283262.700000003,7128,NTS,A,16
6,17,test,1,B,triangle.png,1,m,Thu Apr 17 2025 10:10:05 GMT-0500 (Central Daylight Time),288840.5,1500,O,m,1385,13,1,2911.89999999851,285928.6000000015,7128,NTS,A,17
8,18,test,1,B,triangle.png,1,m,Thu Apr 17 2025 10:10:05 GMT-0500 (Central Daylight Time),290656.5,1200,O,m,593,7,1,1812.0,288844.5,7128,NTS,A,18
4,19,test,1,B,triangle.png,1,m,Thu Apr 17 2025 10:10:05 GMT-0500 (Central Daylight Time),292689.200000003,1500,O,m,501,4,1,2028.8000000044703,290660.3999999985,7128,NTS,A,19
3,20,test,1,B,triangle.png,1,z,Thu Apr 17 2025 10:10:05 GMT-0500 (Central Daylight Time),294905.0,1600,O,z,592,3,1,2212.10000000149,292692.8999999985,7128,NTS,A,20
8,21,test,1,B,triangle.png,1,m,Thu Apr 17 2025 10:10:05 GMT-0500 (Central Daylight Time),296688.0,1200,O,m,552,7,1,1779.1000000014901,294908.8999999985,7128,NTS,A,21
1,22,test,1,B,triangle.png,1,z,Thu Apr 17 2025 10:10:05 GMT-0500 (Central Daylight Time),299220.6000000015,1900,O,z,534,1,1,2528.3000000044703,296692.299999997,7128,NTS,A,22
2,23,test,1,B,triangle.png,1,m,Thu Apr 17 2025 10:10:05 GMT-0500 (Central Daylight Time),301419.799999997,1200,O,m,981,10,1,2195.39999999851,299224.3999999985,7128,NTS,A,23
2,24,test,1,B,triangle.png,1,m,Thu Apr 17 2025 10:10:05 GMT-0500 (Central Daylight Time),303685.700000003,1700,O,m,538,2,1,2261.0,301424.700000003,7128,NTS,A,24
3,0,prac,1,C,triangle.png,0,z,Thu Apr 17 2025 10:10:05 GMT-0500 (Central Daylight Time),357119.200000003,1500,O,None,1516,3,1,3794.2000000029802,353325.0,7128,NTS,A,1
1,1,prac,1,C,circle.png,1,z,Thu Apr 17 2025 10:10:05 GMT-0500 (Central Daylight Time),360184.8999999985,1700,O,z,566,1,1,3059.5,357125.3999999985,7128,NTS,A,2
7,2,prac,1,C,triangle.png,1,z,Thu Apr 17 2025 10:10:05 GMT-0500 (Central Daylight Time),363367.0,1200,O,z,1184,6,1,3176.7999999970198,360190.200000003,7128,NTS,A,3
6,3,prac,1,C,circle.png,1,m,Thu Apr 17 2025 10:10:05 GMT-0500 (Central Daylight Time),366849.3999999985,2000,O,m,690,5,1,3477.6999999955297,363371.700000003,7128,NTS,A,4
1,3,prac,1,C,circle.png,0,z,Thu Apr 17 2025 10:10:05 GMT-0500 (Central Daylight Time),370448.3999999985,1700,O,m,1109,1,1,3593.89999999851,366854.5,7128,NTS,A,5
3,3,prac,1,C,triangle.png,0,z,Thu Apr 17 2025 10:10:05 GMT-0500 (Central Daylight Time),374246.8999999985,1500,O,None,1515,3,1,3793.0,370453.8999999985,7128,NTS,A,6
8,3,prac,1,C,triangle.png,0,m,Thu Apr 17 2025 10:10:05 GMT-0500 (Central Daylight Time),377945.799999997,1400,O,None,1515,7,1,3694.0,374251.799999997,7128,NTS,A,7
2,3,prac,1,C,triangle.png,0,m,Thu Apr 17 2025 10:10:05 GMT-0500 (Central Daylight Time),381677.799999997,1600,O,z,1336,2,1,3726.7999999970198,377951.0,7128,NTS,A,8
6,4,prac,1,C,circle.png,1,m,Thu Apr 17 2025 10:10:05 GMT-0500 (Central Daylight Time),384976.8999999985,2000,O,m,508,5,1,3293.7999999970198,381683.1000000015,7128,NTS,A,9
4,4,prac,1,C,circle.png,0,z,Thu Apr 17 2025 10:10:05 GMT-0500 (Central Daylight Time),387392.799999997,1000,O,m,616,4,1,2411.0,384981.799999997,7128,NTS,A,10
7,4,prac,1,C,triangle.png,0,z,Thu Apr 17 2025 10:10:05 GMT-0500 (Central Daylight Time),390891.6000000015,1200,O,None,1515,6,1,3493.3000000044703,387398.299999997,7128,NTS,A,11
9,5,prac,1,C,circle.png,1,m,Thu Apr 17 2025 10:10:05 GMT-0500 (Central Daylight Time),394873.799999997,1900,O,m,1251,8,1,3977.0,390896.799999997,7128,NTS,A,12
2,0,prac,2,C,triangle.png,0,m,Thu Apr 17 2025 10:10:05 GMT-0500 (Central Daylight Time),415750.5,1600,O,None,1516,2,1,3893.89999999851,411856.6000000015,7128,NTS,A,1
4,0,prac,2,C,circle.png,0,z,Thu Apr 17 2025 10:10:05 GMT-0500 (Central Daylight Time),418433.0,1000,O,m,899,4,1,2676.7000000029802,415756.299999997,7128,NTS,A,2
7,0,prac,2,C,triangle.png,0,z,Thu Apr 17 2025 10:10:05 GMT-0500 (Central Daylight Time),421482.0,1200,O,m,1056,6,1,3043.89999999851,418438.1000000015,7128,NTS,A,3
8,0,prac,2,C,triangle.png,0,m,Thu Apr 17 2025 10:10:05 GMT-0500 (Central Daylight Time),425181.1000000015,1400,O,None,1515,7,1,3693.89999999851,421487.200000003,7128,NTS,A,4
7,0,prac,2,C,triangle.png,0,z,Thu Apr 17 2025 10:10:05 GMT-0500 (Central Daylight Time),427846.700000003,1200,O,m,677,6,1,2658.9000000059605,425187.799999997,7128,NTS,A,5
1,1,prac,2,C,circle.png,1,z,Thu Apr 17 2025 10:10:05 GMT-0500 (Central Daylight Time),430912.5,1700,O,z,575,1,1,3060.2999999970198,427852.200000003,7128,NTS,A,6
6,1,prac,2,C,circle.png,0,m,Thu Apr 17 2025 10:10:05 GMT-0500 (Central Daylight Time),434411.200000003,2000,O,z,705,5,1,3493.3000000044703,430917.8999999985,7128,NTS,A,7
3,1,prac,2,C,triangle.png,0,z,Thu Apr 17 2025 10:10:05 GMT-0500 (Central Daylight Time),437327.200000003,1500,O,m,618,3,1,2910.9000000059605,434416.299999997,7128,NTS,A,8
4,1,prac,2,C,circle.png,0,z,Thu Apr 17 2025 10:10:05 GMT-0500 (Central Daylight Time),440036.700000003,1000,O,m,906,4,1,2704.3000000044703,437332.3999999985,7128,NTS,A,9
2,1,prac,2,C,triangle.png,0,m,Thu Apr 17 2025 10:10:05 GMT-0500 (Central Daylight Time),443941.6000000015,1600,O,None,1515,2,1,3895.0,440046.6000000015,7128,NTS,A,10
6,2,prac,2,C,circle.png,1,m,Thu Apr 17 2025 10:10:05 GMT-0500 (Central Daylight Time),447657.5,2000,O,m,924,5,1,3710.89999999851,443946.6000000015,7128,NTS,A,11
9,3,prac,2,C,circle.png,1,m,Thu Apr 17 2025 10:10:05 GMT-0500 (Central Daylight Time),451072.8999999985,1900,O,m,732,8,1,3409.60000000149,447663.299999997,7128,NTS,A,12
8,1,test,1,C,circle.png,1,m,Thu Apr 17 2025 10:10:05 GMT-0500 (Central Daylight Time),477714.3999999985,1200,O,m,599,15,1,1812.6000000014901,475901.799999997,7128,NTS,A,1
3,2,test,1,C,circle.png,1,z,Thu Apr 17 2025 10:10:05 GMT-0500 (Central Daylight Time),480247.200000003,1600,O,z,903,19,1,2528.60000000149,477718.6000000015,7128,NTS,A,2
8,2,test,1,C,triangle.png,0,m,Thu Apr 17 2025 10:10:05 GMT-0500 (Central Daylight Time),483379.299999997,1600,O,None,1515,7,1,3128.1999999955297,480251.1000000015,7128,NTS,A,3
1,3,test,1,C,triangle.png,1,z,Thu Apr 17 2025 10:10:05 GMT-0500 (Central Daylight Time),486645.0,1900,O,z,1338,17,1,3261.89999999851,483383.1000000015,7128,NTS,A,4
2,4,test,1,C,triangle.png,1,m,Thu Apr 17 2025 10:10:05 GMT-0500 (Central Daylight Time),489827.200000003,2000,O,m,1164,2,1,3178.0,486649.200000003,7128,NTS,A,5
6,5,test,1,C,circle.png,1,m,Thu Apr 17 2025 10:10:05 GMT-0500 (Central Daylight Time),492693.0,1900,O,m,946,5,1,2861.89999999851,489831.1000000015,7128,NTS,A,6
4,5,test,1,C,triangle.png,0,m,Thu Apr 17 2025 10:10:05 GMT-0500 (Central Daylight Time),495725.5,1500,O,None,1516,12,1,3028.7000000029802,492696.799999997,7128,NTS,A,7
4,5,test,1,C,triangle.png,0,m,Thu Apr 17 2025 10:10:05 GMT-0500 (Central Daylight Time),498757.700000003,1500,O,None,1516,20,1,3028.3000000044703,495729.3999999985,7128,NTS,A,8
8,6,test,1,C,triangle.png,1,m,Thu Apr 17 2025 10:10:05 GMT-0500 (Central Daylight Time),501290.299999997,1600,O,m,900,23,1,2528.6999999955297,498761.6000000015,7128,NTS,A,9
2,7,test,1,C,circle.png,1,z,Thu Apr 17 2025 10:10:05 GMT-0500 (Central Daylight Time),503972.700000003,1700,O,z,955,18,1,2678.2000000029802,501294.5,7128,NTS,A,10
2,8,test,1,C,circle.png,1,z,Thu Apr 17 2025 10:10:05 GMT-0500 (Central Daylight Time),506338.799999997,1700,O,z,641,10,1,2362.0999999940395,503976.700000003,7128,NTS,A,11
3,8,test,1,C,triangle.png,0,z,Thu Apr 17 2025 10:10:05 GMT-0500 (Central Daylight Time),509071.3999999985,1200,O,None,1516,3,1,2728.60000000149,506342.799999997,7128,NTS,A,12
7,9,test,1,C,triangle.png,1,z,Thu Apr 17 2025 10:10:05 GMT-0500 (Central Daylight Time),511687.0,1700,O,z,886,22,1,2611.89999999851,509075.1000000015,7128,NTS,A,13
9,9,test,1,C,circle.png,0,m,Thu Apr 17 2025 10:10:05 GMT-0500 (Central Daylight Time),514719.3999999985,1500,O,None,1515,24,1,3028.0,511691.3999999985,7128,NTS,A,14
6,10,test,1,C,circle.png,1,m,Thu Apr 17 2025 10:10:05 GMT-0500 (Central Daylight Time),517501.799999997,1900,O,m,854,21,1,2776.7999999970198,514725.0,7128,NTS,A,15
4,11,test,1,C,circle.png,1,z,Thu Apr 17 2025 10:10:05 GMT-0500 (Central Daylight Time),519701.1000000015,1400,O,z,771,4,1,2195.3000000044703,517505.799999997,7128,NTS,A,16
6,12,test,1,C,triangle.png,1,m,Thu Apr 17 2025 10:10:05 GMT-0500 (Central Daylight Time),522183.799999997,1000,O,m,1452,13,1,2478.6999999955297,519705.1000000015,7128,NTS,A,17
1,13,test,1,C,triangle.png,1,z,Thu Apr 17 2025 10:10:05 GMT-0500 (Central Daylight Time),525182.799999997,1900,O,z,1070,9,1,2994.7999999970198,522188.0,7128,NTS,A,18
9,13,test,1,C,triangle.png,0,z,Thu Apr 17 2025 10:10:05 GMT-0500 (Central Daylight Time),527398.799999997,1400,O,m,794,16,1,2212.0999999940395,525186.700000003,7128,NTS,A,19
9,14,test,1,C,circle.png,1,m,Thu Apr 17 2025 10:10:05 GMT-0500 (Central Daylight Time),529731.299999997,1500,O,m,807,8,1,2328.5999999940395,527402.700000003,7128,NTS,A,20
7,15,test,1,C,circle.png,1,m,Thu Apr 17 2025 10:10:05 GMT-0500 (Central Daylight Time),532563.8999999985,2000,O,m,814,14,1,2828.7999999970198,529735.1000000015,7128,NTS,A,21
3,16,test,1,C,circle.png,1,z,Thu Apr 17 2025 10:10:05 GMT-0500 (Central Daylight Time),535562.799999997,1600,O,z,1386,11,1,2995.0999999940395,532567.700000003,7128,NTS,A,22
1,17,test,1,C,circle.png,1,z,Thu Apr 17 2025 10:10:05 GMT-0500 (Central Daylight Time),537629.1000000015,1000,O,z,1038,1,1,2062.8000000044703,535566.299999997,7128,NTS,A,23
7,17,test,1,C,triangle.png,0,z,Thu Apr 17 2025 10:10:05 GMT-0500 (Central Daylight Time),540294.6000000015,1700,O,m,944,6,1,2661.60000000149,537633.0,7128,NTS,A,24
1,1,test,2,C,triangle.png,1,z,Thu Apr 17 2025 10:10:05 GMT-0500 (Central Daylight Time),549825.200000003,1900,O,z,1376,9,1,3295.4000000059605,546529.799999997,7128,NTS,A,1
6,2,test,2,C,triangle.png,1,m,Thu Apr 17 2025 10:10:05 GMT-0500 (Central Daylight Time),551591.299999997,1000,O,m,744,21,1,1761.6999999955297,549829.6000000015,7128,NTS,A,2
9,3,test,2,C,circle.png,1,m,Thu Apr 17 2025 10:10:05 GMT-0500 (Central Daylight Time),554490.200000003,1500,O,m,1366,8,1,2894.9000000059605,551595.299999997,7128,NTS,A,3
4,4,test,2,C,circle.png,1,z,Thu Apr 17 2025 10:10:05 GMT-0500 (Central Daylight Time),556656.5,1400,O,z,744,4,1,2162.0,554494.5,7128,NTS,A,4
7,4,test,2,C,circle.png,0,m,Thu Apr 17 2025 10:10:05 GMT-0500 (Central Daylight Time),559788.6000000015,2000,O,z,1105,22,1,3128.5,556660.1000000015,7128,NTS,A,5
2,4,test,2,C,triangle.png,0,m,Thu Apr 17 2025 10:10:05 GMT-0500 (Central Daylight Time),562870.8999999985,2000,O,z,1053,2,1,3078.2999999970198,559792.6000000015,7128,NTS,A,6
6,4,test,2,C,triangle.png,0,m,Thu Apr 17 2025 10:10:05 GMT-0500 (Central Daylight Time),565286.8999999985,1000,O,z,1386,13,1,2411.7999999970198,562875.1000000015,7128,NTS,A,7
7,4,test,2,C,triangle.png,0,z,Thu Apr 17 2025 10:10:05 GMT-0500 (Central Daylight Time),568002.8999999985,1700,O,m,998,6,1,2710.89999999851,565292.0,7128,NTS,A,8
1,5,test,2,C,circle.png,1,z,Thu Apr 17 2025 10:10:05 GMT-0500 (Central Daylight Time),569952.200000003,1000,O,z,918,1,1,1945.3000000044703,568006.8999999985,7128,NTS,A,9
8,6,test,2,C,circle.png,1,m,Thu Apr 17 2025 10:10:05 GMT-0500 (Central Daylight Time),572618.1000000015,1200,O,m,1433,23,1,2661.89999999851,569956.200000003,7128,NTS,A,10
2,7,test,2,C,circle.png,1,z,Thu Apr 17 2025 10:10:05 GMT-0500 (Central Daylight Time),575183.799999997,1700,O,z,836,18,1,2562.1999999955297,572621.6000000015,7128,NTS,A,11
1,8,test,2,C,triangle.png,1,z,Thu Apr 17 2025 10:10:05 GMT-0500 (Central Daylight Time),578082.700000003,1900,O,z,967,17,1,2892.10000000149,575190.6000000015,7128,NTS,A,12
3,8,test,2,C,circle.png,0,z,Thu Apr 17 2025 10:10:05 GMT-0500 (Central Daylight Time),581244.8999999985,1600,O,None,1546,19,1,3158.5,578086.3999999985,7128,NTS,A,13
9,8,test,2,C,triangle.png,0,z,Thu Apr 17 2025 10:10:05 GMT-0500 (Central Daylight Time),583348.1000000015,1400,O,m,673,16,1,2098.60000000149,581249.5,7128,NTS,A,14
4,8,test,2,C,triangle.png,0,m,Thu Apr 17 2025 10:10:05 GMT-0500 (Central Daylight Time),586363.5,1500,O,z,1490,20,1,3011.60000000149,583351.8999999985,7128,NTS,A,15
3,9,test,2,C,triangle.png,1,z,Thu Apr 17 2025 10:10:05 GMT-0500 (Central Daylight Time),588462.799999997,1200,O,z,878,3,1,2095.1999999955297,586367.6000000015,7128,NTS,A,16
8,10,test,2,C,circle.png,1,m,Thu Apr 17 2025 10:10:05 GMT-0500 (Central Daylight Time),590612.200000003,1200,O,m,930,15,1,2145.7000000029802,588466.5,7128,NTS,A,17
8,11,test,2,C,triangle.png,1,m,Thu Apr 17 2025 10:10:05 GMT-0500 (Central Daylight Time),593461.299999997,1600,O,m,1230,7,1,2845.1999999955297,590616.1000000015,7128,NTS,A,18
7,12,test,2,C,circle.png,1,m,Thu Apr 17 2025 10:10:05 GMT-0500 (Central Daylight Time),596643.700000003,2000,O,m,1164,14,1,3178.2000000029802,593465.5,7128,NTS,A,19
6,12,test,2,C,circle.png,0,m,Thu Apr 17 2025 10:10:05 GMT-0500 (Central Daylight Time),600075.8999999985,1900,O,None,1516,5,1,3428.5,596647.3999999985,7128,NTS,A,20
2,13,test,2,C,circle.png,1,z,Thu Apr 17 2025 10:10:05 GMT-0500 (Central Daylight Time),602741.700000003,1700,O,z,938,10,1,2659.4000000059605,600082.299999997,7128,NTS,A,21
3,13,test,2,C,circle.png,0,z,Thu Apr 17 2025 10:10:05 GMT-0500 (Central Daylight Time),605124.299999997,1600,O,m,764,11,1,2378.5,602745.799999997,7128,NTS,A,22
4,13,test,2,C,triangle.png,0,m,Thu Apr 17 2025 10:10:05 GMT-0500 (Central Daylight Time),607890.0,1500,O,z,1234,12,1,2761.7999999970198,605128.200000003,7128,NTS,A,23
9,13,test,2,C,triangle.png,0,z,Thu Apr 17 2025 10:10:05 GMT-0500 (Central Daylight Time),610306.0,1400,O,m,991,24,1,2411.89999999851,607894.1000000015,7128,NTS,A,24
8,1,test,3,C,triangle.png,1,m,Thu Apr 17 2025 10:10:05 GMT-0500 (Central Daylight Time),621952.5,1600,O,m,1368,7,1,2994.7999999970198,618957.700000003,7128,NTS,A,1
9,2,test,3,C,circle.png,1,m,Thu Apr 17 2025 10:10:05 GMT-0500 (Central Daylight Time),624668.200000003,1500,O,m,1189,24,1,2710.10000000149,621958.1000000015,7128,NTS,A,2
6,2,test,3,C,triangle.png,0,m,Thu Apr 17 2025 10:10:05 GMT-0500 (Central Daylight Time),627200.799999997,1000,O,None,1516,13,1,2528.6999999955297,624672.1000000015,7128,NTS,A,3
7,2,test,3,C,triangle.png,0,z,Thu Apr 17 2025 10:10:05 GMT-0500 (Central Daylight Time),630266.5,1700,O,m,1341,6,1,3061.7999999970198,627204.700000003,7128,NTS,A,4
4,3,test,3,C,circle.png,1,z,Thu Apr 17 2025 10:10:05 GMT-0500 (Central Daylight Time),632665.700000003,1400,O,z,975,4,1,2395.3000000044703,630270.3999999985,7128,NTS,A,5
6,4,test,3,C,circle.png,1,m,Thu Apr 17 2025 10:10:05 GMT-0500 (Central Daylight Time),635398.1000000015,1900,O,m,812,5,1,2728.39999999851,632669.700000003,7128,NTS,A,6
2,5,test,3,C,triangle.png,1,m,Thu Apr 17 2025 10:10:05 GMT-0500 (Central Daylight Time),638897.3999999985,2000,O,m,1467,18,1,3495.1999999955297,635402.200000003,7128,NTS,A,7
3,5,test,3,C,circle.png,0,z,Thu Apr 17 2025 10:10:05 GMT-0500 (Central Daylight Time),642029.5,1600,O,None,1515,11,1,3128.2000000029802,638901.299999997,7128,NTS,A,8
2,5,test,3,C,triangle.png,0,m,Thu Apr 17 2025 10:10:05 GMT-0500 (Central Daylight Time),645561.8999999985,2000,O,None,1516,2,1,3528.89999999851,642033.0,7128,NTS,A,9
8,6,test,3,C,triangle.png,1,m,Thu Apr 17 2025 10:10:05 GMT-0500 (Central Daylight Time),648344.1000000015,1600,O,m,1152,23,1,2778.39999999851,645565.700000003,7128,NTS,A,10
3,7,test,3,C,triangle.png,1,z,Thu Apr 17 2025 10:10:05 GMT-0500 (Central Daylight Time),650460.299999997,1200,O,z,897,3,1,2112.2999999970198,648348.0,7128,NTS,A,11
3,8,test,3,C,triangle.png,1,z,Thu Apr 17 2025 10:10:05 GMT-0500 (Central Daylight Time),652376.3999999985,1200,O,z,579,19,1,1912.5,650463.8999999985,7128,NTS,A,12
7,8,test,3,C,circle.png,0,m,Thu Apr 17 2025 10:10:05 GMT-0500 (Central Daylight Time),655325.3999999985,2000,O,z,921,14,1,2944.60000000149,652380.799999997,7128,NTS,A,13
1,9,test,3,C,circle.png,1,z,Thu Apr 17 2025 10:10:05 GMT-0500 (Central Daylight Time),657208.200000003,1000,O,z,860,1,1,1878.8000000044703,655329.3999999985,7128,NTS,A,14
1,10,test,3,C,triangle.png,1,z,Thu Apr 17 2025 10:10:05 GMT-0500 (Central Daylight Time),659823.8999999985,1900,O,z,685,9,1,2610.39999999851,657213.5,7128,NTS,A,15
8,11,test,3,C,circle.png,1,m,Thu Apr 17 2025 10:10:05 GMT-0500 (Central Daylight Time),661706.700000003,1200,O,m,658,15,1,1878.7000000029802,659828.0,7128,NTS,A,16
2,11,test,3,C,circle.png,0,z,Thu Apr 17 2025 10:10:05 GMT-0500 (Central Daylight Time),664938.8999999985,1700,O,None,1516,10,1,3228.10000000149,661710.799999997,7128,NTS,A,17
4,12,test,3,C,circle.png,1,z,Thu Apr 17 2025 10:10:05 GMT-0500 (Central Daylight Time),667205.0,1400,O,z,838,20,1,2262.7000000029802,664942.299999997,7128,NTS,A,18
9,13,test,3,C,circle.png,1,m,Thu Apr 17 2025 10:10:05 GMT-0500 (Central Daylight Time),669320.8999999985,1500,O,m,592,8,1,2111.60000000149,667209.299999997,7128,NTS,A,19
4,14,test,3,C,triangle.png,1,m,Thu Apr 17 2025 10:10:05 GMT-0500 (Central Daylight Time),672120.1000000015,1500,O,m,1277,12,1,2794.3000000044703,669325.799999997,7128,NTS,A,20
7,14,test,3,C,triangle.png,0,z,Thu Apr 17 2025 10:10:05 GMT-0500 (Central Daylight Time),675202.200000003,1700,O,m,1350,22,1,3076.8000000044703,672125.3999999985,7128,NTS,A,21
1,15,test,3,C,circle.png,1,z,Thu Apr 17 2025 10:10:05 GMT-0500 (Central Daylight Time),677451.700000003,1000,O,z,1223,17,1,2245.4000000059605,675206.299999997,7128,NTS,A,22
9,15,test,3,C,triangle.png,0,z,Thu Apr 17 2025 10:10:05 GMT-0500 (Central Daylight Time),679734.299999997,1400,O,m,854,16,1,2278.89999999851,677455.3999999985,7128,NTS,A,23
6,16,test,3,C,circle.png,1,m,Thu Apr 17 2025 10:10:05 GMT-0500 (Central Daylight Time),682750.0,1900,O,m,1095,21,1,3011.7000000029802,679738.299999997,7128,NTS,A,24
1,0,test,4,C,triangle.png,0,z,Thu Apr 17 2025 10:10:05 GMT-0500 (Central Daylight Time),689564.700000003,1900,O,None,1516,9,1,3429.10000000149,686135.6000000015,7128,NTS,A,1
1,1,test,4,C,circle.png,1,z,Thu Apr 17 2025 10:10:05 GMT-0500 (Central Daylight Time),691463.8999999985,1000,O,z,869,1,1,1893.1000000014901,689570.799999997,7128,NTS,A,2
6,2,test,4,C,circle.png,1,m,Thu Apr 17 2025 10:10:05 GMT-0500 (Central Daylight Time),694446.200000003,1900,O,m,1062,5,1,2977.60000000149,691468.6000000015,7128,NTS,A,3
9,3,test,4,C,circle.png,1,m,Thu Apr 17 2025 10:10:05 GMT-0500 (Central Daylight Time),697245.3999999985,1500,O,m,1271,8,1,2793.10000000149,694452.299999997,7128,NTS,A,4
6,4,test,4,C,circle.png,1,m,Thu Apr 17 2025 10:10:05 GMT-0500 (Central Daylight Time),699861.3999999985,1900,O,m,697,21,1,2611.6999999955297,697249.700000003,7128,NTS,A,5
6,5,test,4,C,triangle.png,1,m,Thu Apr 17 2025 10:10:05 GMT-0500 (Central Daylight Time),702327.200000003,1000,O,m,1444,13,1,2461.5,699865.700000003,7128,NTS,A,6
4,6,test,4,C,triangle.png,1,m,Thu Apr 17 2025 10:10:05 GMT-0500 (Central Daylight Time),704909.700000003,1500,O,m,1054,12,1,2576.8000000044703,702332.8999999985,7128,NTS,A,7
2,6,test,4,C,triangle.png,0,m,Thu Apr 17 2025 10:10:05 GMT-0500 (Central Daylight Time),708325.299999997,2000,O,z,1396,18,1,3411.2999999970198,704914.0,7128,NTS,A,8
3,6,test,4,C,circle.png,0,z,Thu Apr 17 2025 10:10:05 GMT-0500 (Central Daylight Time),711457.799999997,1600,O,None,1516,11,1,3128.39999999851,708329.3999999985,7128,NTS,A,9
8,7,test,4,C,circle.png,1,m,Thu Apr 17 2025 10:10:05 GMT-0500 (Central Daylight Time),713573.700000003,1200,O,m,893,15,1,2111.4000000059605,711462.299999997,7128,NTS,A,10
7,8,test,4,C,circle.png,1,m,Thu Apr 17 2025 10:10:05 GMT-0500 (Central Daylight Time),716722.700000003,2000,O,m,1124,14,1,3144.60000000149,713578.1000000015,7128,NTS,A,11
9,9,test,4,C,triangle.png,1,z,Thu Apr 17 2025 10:10:05 GMT-0500 (Central Daylight Time),719538.3999999985,1400,O,z,1382,16,1,2810.6999999955297,716727.700000003,7128,NTS,A,12
7,10,test,4,C,triangle.png,1,z,Thu Apr 17 2025 10:10:05 GMT-0500 (Central Daylight Time),722450.1000000015,1700,O,z,1195,6,1,2907.3000000044703,719542.799999997,7128,NTS,A,13
7,11,test,4,C,triangle.png,1,z,Thu Apr 17 2025 10:10:05 GMT-0500 (Central Daylight Time),724953.5,1700,O,z,767,22,1,2499.39999999851,722454.1000000015,7128,NTS,A,14
9,12,test,4,C,circle.png,1,m,Thu Apr 17 2025 10:10:05 GMT-0500 (Central Daylight Time),727636.0,1500,O,m,1164,24,1,2678.2000000029802,724957.799999997,7128,NTS,A,15
4,13,test,4,C,circle.png,1,z,Thu Apr 17 2025 10:10:05 GMT-0500 (Central Daylight Time),730018.5,1400,O,z,957,4,1,2378.7999999970198,727639.700000003,7128,NTS,A,16
1,14,test,4,C,circle.png,1,z,Thu Apr 17 2025 10:10:05 GMT-0500 (Central Daylight Time),732151.0,1000,O,z,1103,17,1,2128.39999999851,730022.6000000015,7128,NTS,A,17
3,14,test,4,C,triangle.png,0,z,Thu Apr 17 2025 10:10:05 GMT-0500 (Central Daylight Time),734883.700000003,1200,O,None,1516,3,1,2728.4000000059605,732155.299999997,7128,NTS,A,18
8,15,test,4,C,triangle.png,1,m,Thu Apr 17 2025 10:10:05 GMT-0500 (Central Daylight Time),737966.200000003,1600,O,m,1454,23,1,3078.2000000029802,734888.0,7128,NTS,A,19
3,15,test,4,C,triangle.png,0,z,Thu Apr 17 2025 10:10:05 GMT-0500 (Central Daylight Time),740698.3999999985,1200,O,None,1515,19,1,2727.89999999851,737970.5,7128,NTS,A,20
2,15,test,4,C,triangle.png,0,m,Thu Apr 17 2025 10:10:05 GMT-0500 (Central Daylight Time),744230.700000003,2000,O,None,1516,2,1,3528.5,740702.200000003,7128,NTS,A,21
4,15,test,4,C,circle.png,0,z,Thu Apr 17 2025 10:10:05 GMT-0500 (Central Daylight Time),747146.5,1400,O,m,1483,20,1,2912.10000000149,744234.3999999985,7128,NTS,A,22
8,15,test,4,C,triangle.png,0,m,Thu Apr 17 2025 10:10:05 GMT-0500 (Central Daylight Time),750278.8999999985,1600,O,None,1516,7,1,3128.39999999851,747150.5,7128,NTS,A,23
2,16,test,4,C,circle.png,1,z,Thu Apr 17 2025 10:10:05 GMT-0500 (Central Daylight Time),753327.8999999985,1700,O,z,1328,10,1,3044.39999999851,750283.5,7128,NTS,A,24
