acc_sum,block,block_c,change,condition,correct,correct_response,datetime,endtime,face,project,response,response_time,row_sel,session_number,start_end,starttime,subject_id,task,task_vers,trial
0,prac,1,,1-Back,,,Wed Mar 12 2025 15:58:53 GMT-0500 (Central Daylight Time),,012_o_f_d_a.png,I,space,5404,1,3,,,8000,VNB,C,0
1,prac,1,0.0,1-Back,1,m,Wed Mar 12 2025 15:58:53 GMT-0500 (Central Daylight Time),135226.0,022_y_f_n_a.png,I,m,1227,2,3,2122.9000000003725,133103.09999999963,8000,VNB,C,1
2,prac,1,0.0,1-Back,1,m,Wed Mar 12 2025 15:58:53 GMT-0500 (Central Daylight Time),137225.0,014_m_m_h_a.png,I,m,1109,3,3,1992.3000000002794,135232.69999999972,8000,VNB,C,2
3,prac,1,0.0,1-Back,1,m,Wed Mar 12 2025 15:58:53 GMT-0500 (Central Daylight Time),139207.69999999972,025_y_m_d_a.png,I,m,1105,4,3,1975.8999999999069,137231.7999999998,8000,VNB,C,3
4,prac,1,0.0,1-Back,1,m,Wed Mar 12 2025 15:58:53 GMT-0500 (Central Daylight Time),141140.2999999998,012_o_f_n_a.png,I,m,1031,5,3,1926.2999999998137,139214.0,8000,VNB,C,4
5,prac,1,1.0,1-Back,1,z,Wed Mar 12 2025 15:58:53 GMT-0500 (Central Daylight Time),143406.5,025_y_m_n_a.png,I,z,1389,6,3,2259.2000000001863,141147.2999999998,8000,VNB,C,5
6,prac,1,0.0,1-Back,1,m,Wed Mar 12 2025 15:58:53 GMT-0500 (Central Daylight Time),145589.0,015_o_m_h_a.png,I,m,1282,7,3,2175.3000000002794,143413.69999999972,8000,VNB,C,6
6,prac,1,0.0,1-Back,0,m,Wed Mar 12 2025 15:58:53 GMT-0500 (Central Daylight Time),147338.59999999963,019_m_f_d_a.png,I,z,849,8,3,1742.5,145596.09999999963,8000,VNB,C,7
7,prac,1,1.0,1-Back,1,z,Wed Mar 12 2025 15:58:53 GMT-0500 (Central Daylight Time),149721.0,022_y_f_d_a.png,I,z,1479,9,3,2375.0,147346.0,8000,VNB,C,8
8,prac,1,0.0,1-Back,1,m,Wed Mar 12 2025 15:58:53 GMT-0500 (Central Daylight Time),151453.8999999999,014_m_m_n_a.png,I,m,852,10,3,1724.8999999999069,149729.0,8000,VNB,C,9
9,prac,1,0.0,1-Back,1,m,Wed Mar 12 2025 15:58:53 GMT-0500 (Central Daylight Time),153253.09999999963,012_o_f_h_a.png,I,m,907,11,3,1793.7999999998137,151459.2999999998,8000,VNB,C,10
10,prac,1,0.0,1-Back,1,m,Wed Mar 12 2025 15:58:53 GMT-0500 (Central Daylight Time),155053.69999999972,025_y_m_d_a.png,I,m,922,12,3,1793.2999999998137,153260.3999999999,8000,VNB,C,11
0,test,1,0.0,1-Back,,,Wed Mar 12 2025 15:58:53 GMT-0500 (Central Daylight Time),155053.69999999972,022_y_f_d_a.png,I,space,9394,1,3,1793.2999999998137,153260.3999999999,8000,VNB,C,0
1,test,1,0.0,1-Back,1,m,Wed Mar 12 2025 15:58:53 GMT-0500 (Central Daylight Time),177279.19999999972,019_m_f_n_a.png,I,m,919,2,3,1944.6000000000931,175334.59999999963,8000,VNB,C,1
2,test,1,0.0,1-Back,1,m,Wed Mar 12 2025 15:58:53 GMT-0500 (Central Daylight Time),179145.5,015_o_m_h_a.png,I,m,834,3,3,1862.2000000001863,177283.2999999998,8000,VNB,C,2
3,test,1,1.0,1-Back,1,z,Wed Mar 12 2025 15:58:53 GMT-0500 (Central Daylight Time),181111.2999999998,014_m_m_h_a.png,I,z,944,4,3,1961.1000000000931,179150.19999999972,8000,VNB,C,3
4,test,1,0.0,1-Back,1,m,Wed Mar 12 2025 15:58:53 GMT-0500 (Central Daylight Time),182894.09999999963,012_o_f_n_a.png,I,m,768,5,3,1778.3999999999069,181115.69999999972,8000,VNB,C,4
5,test,1,0.0,1-Back,1,m,Wed Mar 12 2025 15:58:53 GMT-0500 (Central Daylight Time),184709.8999999999,025_y_m_d_a.png,I,m,787,6,3,1811.0,182898.8999999999,8000,VNB,C,5
6,test,1,1.0,1-Back,1,z,Wed Mar 12 2025 15:58:53 GMT-0500 (Central Daylight Time),186642.8999999999,019_m_f_d_a.png,I,z,916,7,3,1929.1000000000931,184713.7999999998,8000,VNB,C,6
7,test,1,0.0,1-Back,1,m,Wed Mar 12 2025 15:58:53 GMT-0500 (Central Daylight Time),188375.59999999963,022_y_f_h_a.png,I,m,703,8,3,1728.8999999999069,186646.69999999972,8000,VNB,C,7
8,test,1,0.0,1-Back,1,m,Wed Mar 12 2025 15:58:53 GMT-0500 (Central Daylight Time),190241.69999999972,015_o_m_n_a.png,I,m,843,9,3,1862.0,188379.69999999972,8000,VNB,C,8
9,test,1,0.0,1-Back,1,m,Wed Mar 12 2025 15:58:53 GMT-0500 (Central Daylight Time),192224.5,025_y_m_h_a.png,I,m,952,10,3,1979.5,190245.0,8000,VNB,C,9
10,test,1,0.0,1-Back,1,m,Wed Mar 12 2025 15:58:53 GMT-0500 (Central Daylight Time),194107.0,015_o_m_d_a.png,I,m,865,11,3,1877.9000000003725,192229.09999999963,8000,VNB,C,10
11,test,1,1.0,1-Back,1,z,Wed Mar 12 2025 15:58:53 GMT-0500 (Central Daylight Time),195923.19999999972,012_o_f_d_a.png,I,z,799,12,3,1812.7999999998137,194110.3999999999,8000,VNB,C,11
12,test,1,0.0,1-Back,1,m,Wed Mar 12 2025 15:58:53 GMT-0500 (Central Daylight Time),198006.0,014_m_m_n_a.png,I,m,1055,13,3,2079.4000000003725,195926.59999999963,8000,VNB,C,12
13,test,1,1.0,1-Back,1,z,Wed Mar 12 2025 15:58:53 GMT-0500 (Central Daylight Time),199922.09999999963,022_y_f_n_a.png,I,z,892,14,3,1911.3999999999069,198010.69999999972,8000,VNB,C,13
14,test,1,0.0,1-Back,1,m,Wed Mar 12 2025 15:58:53 GMT-0500 (Central Daylight Time),201771.69999999972,019_m_f_h_a.png,I,m,824,15,3,1845.0,199926.69999999972,8000,VNB,C,14
15,test,1,0.0,1-Back,1,m,Wed Mar 12 2025 15:58:53 GMT-0500 (Central Daylight Time),203737.69999999972,014_m_m_d_a.png,I,m,934,16,3,1961.5,201776.19999999972,8000,VNB,C,15
16,test,1,0.0,1-Back,1,m,Wed Mar 12 2025 15:58:53 GMT-0500 (Central Daylight Time),205753.2999999998,025_y_m_n_a.png,I,m,984,17,3,2011.8999999999069,203741.3999999999,8000,VNB,C,16
17,test,1,0.0,1-Back,1,m,Wed Mar 12 2025 15:58:53 GMT-0500 (Central Daylight Time),207652.8999999999,012_o_f_h_a.png,I,m,873,18,3,1892.8999999999069,205760.0,8000,VNB,C,17
0,test,2,0.0,1-Back,,,Wed Mar 12 2025 15:58:53 GMT-0500 (Central Daylight Time),207652.8999999999,025_y_m_n_a.png,I,space,1693,1,3,1892.8999999999069,205760.0,8000,VNB,C,0
1,test,2,0.0,1-Back,1,m,Wed Mar 12 2025 15:58:53 GMT-0500 (Central Daylight Time),213267.7999999998,022_y_f_h_a.png,I,m,874,2,3,1894.7000000001863,211373.09999999963,8000,VNB,C,1
2,test,2,1.0,1-Back,1,m,Wed Mar 12 2025 15:58:53 GMT-0500 (Central Daylight Time),215200.69999999972,015_o_m_n_a.png,I,m,909,3,3,1929.5,213271.19999999972,8000,VNB,C,2
3,test,2,0.0,1-Back,1,m,Wed Mar 12 2025 15:58:53 GMT-0500 (Central Daylight Time),217133.5,019_m_f_d_a.png,I,m,906,4,3,1928.5,215205.0,8000,VNB,C,3
4,test,2,0.0,1-Back,1,z,Wed Mar 12 2025 15:58:53 GMT-0500 (Central Daylight Time),218899.3999999999,014_m_m_d_a.png,I,z,749,5,3,1761.2000000001863,217138.19999999972,8000,VNB,C,4
5,test,2,0.0,1-Back,1,m,Wed Mar 12 2025 15:58:53 GMT-0500 (Central Daylight Time),220715.3999999999,025_y_m_h_a.png,I,m,799,6,3,1811.7000000001863,218903.69999999972,8000,VNB,C,5
6,test,2,1.0,1-Back,1,z,Wed Mar 12 2025 15:58:53 GMT-0500 (Central Daylight Time),222698.2999999998,012_o_f_h_a.png,I,z,950,7,3,1979.8999999999069,220718.3999999999,8000,VNB,C,6
7,test,2,0.0,1-Back,1,m,Wed Mar 12 2025 15:58:53 GMT-0500 (Central Daylight Time),224497.69999999972,019_m_f_n_a.png,I,m,768,8,3,1794.8999999999069,222702.7999999998,8000,VNB,C,7
8,test,2,0.0,1-Back,1,m,Wed Mar 12 2025 15:58:53 GMT-0500 (Central Daylight Time),226397.0,022_y_f_d_a.png,I,m,872,9,3,1895.6000000000931,224501.3999999999,8000,VNB,C,8
9,test,2,0.0,1-Back,1,m,Wed Mar 12 2025 15:58:53 GMT-0500 (Central Daylight Time),228213.3999999999,014_m_m_n_a.png,I,m,789,10,3,1812.8000000002794,226400.59999999963,8000,VNB,C,9
10,test,2,1.0,1-Back,1,m,Wed Mar 12 2025 15:58:53 GMT-0500 (Central Daylight Time),230095.7999999998,019_m_f_h_a.png,I,m,860,11,3,1878.1000000000931,228217.69999999972,8000,VNB,C,10
11,test,2,0.0,1-Back,1,z,Wed Mar 12 2025 15:58:53 GMT-0500 (Central Daylight Time),231912.0,015_o_m_h_a.png,I,z,786,12,3,1812.9000000003725,230099.09999999963,8000,VNB,C,11
12,test,2,0.0,1-Back,1,m,Wed Mar 12 2025 15:58:53 GMT-0500 (Central Daylight Time),233661.5,025_y_m_d_a.png,I,m,722,13,3,1745.3000000002794,231916.19999999972,8000,VNB,C,12
13,test,2,0.0,1-Back,1,m,Wed Mar 12 2025 15:58:53 GMT-0500 (Central Daylight Time),235893.7999999998,012_o_f_n_a.png,I,m,1212,14,3,2227.7000000001863,233666.09999999963,8000,VNB,C,13
14,test,2,0.0,1-Back,1,z,Wed Mar 12 2025 15:58:53 GMT-0500 (Central Daylight Time),237726.8999999999,022_y_f_n_a.png,I,z,811,15,3,1828.8999999999069,235898.0,8000,VNB,C,14
15,test,2,1.0,1-Back,1,m,Wed Mar 12 2025 15:58:53 GMT-0500 (Central Daylight Time),239476.3999999999,014_m_m_h_a.png,I,m,722,16,3,1744.8000000002794,237731.59999999963,8000,VNB,C,15
16,test,2,0.0,1-Back,1,m,Wed Mar 12 2025 15:58:53 GMT-0500 (Central Daylight Time),241559.0,012_o_f_d_a.png,I,m,1062,17,3,2078.9000000003725,239480.09999999963,8000,VNB,C,16
17,test,2,1.0,1-Back,1,z,Wed Mar 12 2025 15:58:53 GMT-0500 (Central Daylight Time),243408.69999999972,015_o_m_d_a.png,I,z,827,18,3,1846.2999999998137,241562.3999999999,8000,VNB,C,17
0,test,3,1.0,1-Back,,,Wed Mar 12 2025 15:58:53 GMT-0500 (Central Daylight Time),243408.69999999972,012_o_f_h_a.png,I,space,1546,1,3,1846.2999999998137,241562.3999999999,8000,VNB,C,0
1,test,3,0.0,1-Back,1,m,Wed Mar 12 2025 15:58:53 GMT-0500 (Central Daylight Time),248823.59999999963,019_m_f_d_a.png,I,m,728,2,3,1746.1999999997206,247077.3999999999,8000,VNB,C,1
2,test,3,1.0,1-Back,1,m,Wed Mar 12 2025 15:58:53 GMT-0500 (Central Daylight Time),250772.7999999998,014_m_m_n_a.png,I,m,923,3,3,1944.8999999999069,248827.8999999999,8000,VNB,C,2
3,test,3,0.0,1-Back,1,z,Wed Mar 12 2025 15:58:53 GMT-0500 (Central Daylight Time),252622.19999999972,012_o_f_n_a.png,I,z,828,4,3,1844.8999999999069,250777.2999999998,8000,VNB,C,3
4,test,3,1.0,1-Back,1,m,Wed Mar 12 2025 15:58:53 GMT-0500 (Central Daylight Time),254604.8999999999,015_o_m_d_a.png,I,m,956,5,3,1979.0,252625.8999999999,8000,VNB,C,4
5,test,3,0.0,1-Back,1,m,Wed Mar 12 2025 15:58:53 GMT-0500 (Central Daylight Time),256387.69999999972,022_y_f_h_a.png,I,m,765,6,3,1779.1000000000931,254608.59999999963,8000,VNB,C,5
6,test,3,0.0,1-Back,1,z,Wed Mar 12 2025 15:58:53 GMT-0500 (Central Daylight Time),258153.69999999972,025_y_m_h_a.png,I,z,742,7,3,1763.0,256390.69999999972,8000,VNB,C,6
7,test,3,0.0,1-Back,1,m,Wed Mar 12 2025 15:58:53 GMT-0500 (Central Daylight Time),259870.19999999972,019_m_f_n_a.png,I,m,696,8,3,1711.8999999999069,258158.2999999998,8000,VNB,C,7
8,test,3,0.0,1-Back,1,m,Wed Mar 12 2025 15:58:53 GMT-0500 (Central Daylight Time),261619.2999999998,022_y_f_d_a.png,I,m,732,9,3,1745.0,259874.2999999998,8000,VNB,C,8
9,test,3,1.0,1-Back,1,m,Wed Mar 12 2025 15:58:53 GMT-0500 (Central Daylight Time),263619.0,015_o_m_n_a.png,I,m,983,10,3,1995.6000000000931,261623.3999999999,8000,VNB,C,9
10,test,3,0.0,1-Back,1,m,Wed Mar 12 2025 15:58:53 GMT-0500 (Central Daylight Time),265568.0999999996,014_m_m_h_a.png,I,m,927,11,3,1944.0999999996275,263624.0,8000,VNB,C,10
11,test,3,0.0,1-Back,1,z,Wed Mar 12 2025 15:58:53 GMT-0500 (Central Daylight Time),267534.2999999998,019_m_f_h_a.png,I,z,938,12,3,1961.8999999999069,265572.3999999999,8000,VNB,C,11
12,test,3,1.0,1-Back,1,m,Wed Mar 12 2025 15:58:53 GMT-0500 (Central Daylight Time),269316.8999999999,012_o_f_d_a.png,I,m,764,13,3,1779.3999999999069,267537.5,8000,VNB,C,12
12,test,3,0.0,1-Back,0,z,Wed Mar 12 2025 15:58:53 GMT-0500 (Central Daylight Time),271333.7999999998,014_m_m_d_a.png,I,m,989,14,3,2012.2999999998137,269321.5,8000,VNB,C,13
13,test,3,0.0,1-Back,1,m,Wed Mar 12 2025 15:58:53 GMT-0500 (Central Daylight Time),273432.5,025_y_m_n_a.png,I,m,1069,15,3,2094.3000000002794,271338.1999999997,8000,VNB,C,14
14,test,3,1.0,1-Back,1,m,Wed Mar 12 2025 15:58:53 GMT-0500 (Central Daylight Time),275198.0999999996,015_o_m_h_a.png,I,m,737,16,3,1761.3999999999069,273436.6999999997,8000,VNB,C,15
15,test,3,0.0,1-Back,1,m,Wed Mar 12 2025 15:58:53 GMT-0500 (Central Daylight Time),277031.5,025_y_m_d_a.png,I,m,726,17,3,1829.2000000001863,275202.2999999998,8000,VNB,C,16
16,test,3,1.0,1-Back,1,m,Wed Mar 12 2025 15:58:53 GMT-0500 (Central Daylight Time),279130.7999999998,022_y_f_n_a.png,I,m,1066,18,3,2095.0,277035.7999999998,8000,VNB,C,17
0,test,4,1.0,1-Back,,,Wed Mar 12 2025 15:58:53 GMT-0500 (Central Daylight Time),279130.7999999998,014_m_m_d_a.png,I,space,1119,1,3,2095.0,277035.7999999998,8000,VNB,C,0
1,test,4,0.0,1-Back,1,z,Wed Mar 12 2025 15:58:53 GMT-0500 (Central Daylight Time),284379.0,015_o_m_d_a.png,I,z,1083,2,3,2095.4000000003725,282283.5999999996,8000,VNB,C,1
2,test,4,0.0,1-Back,1,m,Wed Mar 12 2025 15:58:53 GMT-0500 (Central Daylight Time),286195.0999999996,025_y_m_h_a.png,I,m,783,3,3,1812.0999999996275,284383.0,8000,VNB,C,2
3,test,4,0.0,1-Back,1,m,Wed Mar 12 2025 15:58:53 GMT-0500 (Central Daylight Time),288227.7999999998,019_m_f_n_a.png,I,m,1006,4,3,2029.2999999998137,286198.5,8000,VNB,C,3
4,test,4,1.0,1-Back,1,m,Wed Mar 12 2025 15:58:53 GMT-0500 (Central Daylight Time),290377.0,012_o_f_h_a.png,I,m,1127,5,3,2146.0,288231.0,8000,VNB,C,4
5,test,4,0.0,1-Back,1,m,Wed Mar 12 2025 15:58:53 GMT-0500 (Central Daylight Time),292159.8999999999,014_m_m_n_a.png,I,m,753,6,3,1778.5,290381.3999999999,8000,VNB,C,5
6,test,4,0.0,1-Back,1,m,Wed Mar 12 2025 15:58:53 GMT-0500 (Central Daylight Time),294209.2999999998,025_y_m_d_a.png,I,m,1018,7,3,2045.1000000000931,292164.1999999997,8000,VNB,C,6
7,test,4,1.0,1-Back,1,z,Wed Mar 12 2025 15:58:53 GMT-0500 (Central Daylight Time),296008.5999999996,022_y_f_d_a.png,I,z,777,8,3,1796.0,294212.5999999996,8000,VNB,C,7
8,test,4,0.0,1-Back,1,m,Wed Mar 12 2025 15:58:53 GMT-0500 (Central Daylight Time),297791.3999999999,019_m_f_h_a.png,I,m,753,9,3,1778.3000000002794,296013.0999999996,8000,VNB,C,8
9,test,4,0.0,1-Back,1,z,Wed Mar 12 2025 15:58:53 GMT-0500 (Central Daylight Time),299907.2999999998,015_o_m_h_a.png,I,z,1089,10,3,2110.899999999907,297796.3999999999,8000,VNB,C,9
10,test,4,1.0,1-Back,1,m,Wed Mar 12 2025 15:58:53 GMT-0500 (Central Daylight Time),301756.7999999998,012_o_f_n_a.png,I,m,823,11,3,1840.7999999998137,299916.0,8000,VNB,C,10
11,test,4,0.0,1-Back,1,m,Wed Mar 12 2025 15:58:53 GMT-0500 (Central Daylight Time),303606.5,019_m_f_d_a.png,I,m,821,12,3,1846.3000000002794,301760.1999999997,8000,VNB,C,11
12,test,4,0.0,1-Back,1,m,Wed Mar 12 2025 15:58:53 GMT-0500 (Central Daylight Time),305489.0999999996,022_y_f_n_a.png,I,m,860,13,3,1878.5,303610.5999999996,8000,VNB,C,12
13,test,4,0.0,1-Back,1,m,Wed Mar 12 2025 15:58:53 GMT-0500 (Central Daylight Time),307588.3999999999,012_o_f_d_a.png,I,m,1073,14,3,2095.5,305492.8999999999,8000,VNB,C,13
14,test,4,0.0,1-Back,1,m,Wed Mar 12 2025 15:58:53 GMT-0500 (Central Daylight Time),309487.7999999998,022_y_f_h_a.png,I,m,870,15,3,1894.7999999998137,307593.0,8000,VNB,C,14
15,test,4,1.0,1-Back,1,z,Wed Mar 12 2025 15:58:53 GMT-0500 (Central Daylight Time),311220.5999999996,014_m_m_h_a.png,I,z,706,16,3,1728.5999999996275,309492.0,8000,VNB,C,15
16,test,4,0.0,1-Back,1,m,Wed Mar 12 2025 15:58:53 GMT-0500 (Central Daylight Time),312986.6999999997,015_o_m_n_a.png,I,m,742,17,3,1761.6999999997206,311225.0,8000,VNB,C,16
17,test,4,1.0,1-Back,1,z,Wed Mar 12 2025 15:58:53 GMT-0500 (Central Daylight Time),314802.8999999999,025_y_m_n_a.png,I,z,791,18,3,1812.1000000000931,312990.7999999998,8000,VNB,C,17
0,test,5,1.0,1-Back,,,Wed Mar 12 2025 15:58:53 GMT-0500 (Central Daylight Time),314802.8999999999,015_o_m_n_a.png,I,space,1303,1,3,1812.1000000000931,312990.7999999998,8000,VNB,C,0
1,test,5,1.0,1-Back,1,m,Wed Mar 12 2025 15:58:53 GMT-0500 (Central Daylight Time),321000.6999999997,012_o_f_h_a.png,I,m,1843,2,3,2861.2999999998137,318139.3999999999,8000,VNB,C,1
2,test,5,0.0,1-Back,1,m,Wed Mar 12 2025 15:58:53 GMT-0500 (Central Daylight Time),322850.5,025_y_m_d_a.png,I,m,816,3,3,1846.2000000001863,321004.2999999998,8000,VNB,C,2
3,test,5,0.0,1-Back,1,z,Wed Mar 12 2025 15:58:53 GMT-0500 (Central Daylight Time),324666.5,015_o_m_d_a.png,I,z,783,4,3,1812.2000000001863,322854.2999999998,8000,VNB,C,3
4,test,5,0.0,1-Back,1,m,Wed Mar 12 2025 15:58:53 GMT-0500 (Central Daylight Time),326349.2999999998,019_m_f_h_a.png,I,m,656,5,3,1678.2999999998137,324671.0,8000,VNB,C,4
5,test,5,0.0,1-Back,1,m,Wed Mar 12 2025 15:58:53 GMT-0500 (Central Daylight Time),328131.8999999999,022_y_f_n_a.png,I,m,757,6,3,1779.2000000001863,326352.6999999997,8000,VNB,C,5
6,test,5,1.0,1-Back,1,z,Wed Mar 12 2025 15:58:53 GMT-0500 (Central Daylight Time),330414.7999999998,012_o_f_n_a.png,I,z,1262,7,3,2278.399999999907,328136.3999999999,8000,VNB,C,6
7,test,5,0.0,1-Back,1,m,Wed Mar 12 2025 15:58:53 GMT-0500 (Central Daylight Time),332147.2999999998,019_m_f_d_a.png,I,m,707,8,3,1728.5,330418.7999999998,8000,VNB,C,7
8,test,5,0.0,1-Back,1,m,Wed Mar 12 2025 15:58:53 GMT-0500 (Central Daylight Time),333863.5999999996,025_y_m_h_a.png,I,m,695,9,3,1712.1999999997206,332151.3999999999,8000,VNB,C,8
9,test,5,0.0,1-Back,1,m,Wed Mar 12 2025 15:58:53 GMT-0500 (Central Daylight Time),335829.5999999996,022_y_f_d_a.png,I,m,947,10,3,1961.2999999998137,333868.2999999998,8000,VNB,C,9
10,test,5,0.0,1-Back,1,m,Wed Mar 12 2025 15:58:53 GMT-0500 (Central Daylight Time),337579.1999999997,014_m_m_n_a.png,I,m,725,11,3,1745.2999999998137,335833.8999999999,8000,VNB,C,10
11,test,5,1.0,1-Back,1,z,Wed Mar 12 2025 15:58:53 GMT-0500 (Central Daylight Time),339561.6999999997,019_m_f_n_a.png,I,z,959,12,3,1979.1999999997206,337582.5,8000,VNB,C,11
12,test,5,0.0,1-Back,1,m,Wed Mar 12 2025 15:58:53 GMT-0500 (Central Daylight Time),341311.2999999998,015_o_m_h_a.png,I,m,728,13,3,1745.1000000000931,339566.1999999997,8000,VNB,C,12
13,test,5,0.0,1-Back,1,z,Wed Mar 12 2025 15:58:53 GMT-0500 (Central Daylight Time),343260.5999999996,014_m_m_h_a.png,I,z,931,14,3,1945.1999999997206,341315.3999999999,8000,VNB,C,13
14,test,5,1.0,1-Back,1,m,Wed Mar 12 2025 15:58:53 GMT-0500 (Central Daylight Time),344976.8999999999,012_o_f_d_a.png,I,m,685,15,3,1713.2000000001863,343263.6999999997,8000,VNB,C,14
15,test,5,0.0,1-Back,1,m,Wed Mar 12 2025 15:58:53 GMT-0500 (Central Daylight Time),346902.7999999998,025_y_m_n_a.png,I,m,909,16,3,1921.5,344981.2999999998,8000,VNB,C,15
16,test,5,0.0,1-Back,1,m,Wed Mar 12 2025 15:58:53 GMT-0500 (Central Daylight Time),348625.3999999999,022_y_f_h_a.png,I,m,700,17,3,1718.8999999999069,346906.5,8000,VNB,C,16
17,test,5,0.0,1-Back,1,m,Wed Mar 12 2025 15:58:53 GMT-0500 (Central Daylight Time),350441.5999999996,014_m_m_d_a.png,I,m,784,18,3,1812.1999999997206,348629.3999999999,8000,VNB,C,17
0,prac,1,0.0,2-Back,,,Wed Mar 12 2025 15:58:53 GMT-0500 (Central Daylight Time),350441.5999999996,019_m_f_n_a.png,I,space,5764,1,3,1812.1999999997206,348629.3999999999,8000,VNB,C,0
0,prac,1,0.0,2-Back,,,Wed Mar 12 2025 15:58:53 GMT-0500 (Central Daylight Time),350441.5999999996,012_o_f_h_a.png,I,space,5764,2,3,1812.1999999997206,348629.3999999999,8000,VNB,C,0
1,prac,1,0.0,2-Back,1,m,Wed Mar 12 2025 15:58:53 GMT-0500 (Central Daylight Time),453376.0,015_o_m_d_a.png,I,m,1613,3,3,2508.5,450867.5,8000,VNB,C,1
2,prac,1,1.0,2-Back,1,z,Wed Mar 12 2025 15:58:53 GMT-0500 (Central Daylight Time),455875.5,014_m_m_h_a.png,I,z,1611,4,3,2493.2000000001863,453382.2999999998,8000,VNB,C,2
3,prac,1,0.0,2-Back,1,m,Wed Mar 12 2025 15:58:53 GMT-0500 (Central Daylight Time),458525.8999999999,022_y_f_n_a.png,I,m,1750,5,3,2642.899999999907,455883.0,8000,VNB,C,3
3,prac,1,1.0,2-Back,0,z,Wed Mar 12 2025 15:58:53 GMT-0500 (Central Daylight Time),461390.3999999999,015_o_m_h_a.png,I,m,1957,6,3,2858.7000000001863,458531.6999999997,8000,VNB,C,4
4,prac,1,1.0,2-Back,1,z,Wed Mar 12 2025 15:58:53 GMT-0500 (Central Daylight Time),463690.7999999998,025_y_m_n_a.png,I,z,1439,7,3,2295.100000000093,461395.6999999997,8000,VNB,C,5
5,prac,1,0.0,2-Back,1,m,Wed Mar 12 2025 15:58:53 GMT-0500 (Central Daylight Time),466505.5999999996,019_m_f_d_a.png,I,m,1908,8,3,2808.0999999996275,463697.5,8000,VNB,C,6
6,prac,1,0.0,2-Back,1,m,Wed Mar 12 2025 15:58:53 GMT-0500 (Central Daylight Time),468921.3999999999,012_o_f_d_a.png,I,m,1509,9,3,2408.899999999907,466512.5,8000,VNB,C,7
7,prac,1,0.0,2-Back,1,m,Wed Mar 12 2025 15:58:53 GMT-0500 (Central Daylight Time),471087.6999999997,014_m_m_h_a.png,I,m,1379,10,3,2160.6999999997206,468927.0,8000,VNB,C,8
8,prac,1,1.0,2-Back,1,z,Wed Mar 12 2025 15:58:53 GMT-0500 (Central Daylight Time),473336.7999999998,022_y_f_d_a.png,I,z,1347,11,3,2242.399999999907,471094.3999999999,8000,VNB,C,9
9,prac,1,0.0,2-Back,1,m,Wed Mar 12 2025 15:58:53 GMT-0500 (Central Daylight Time),475386.0999999996,015_o_m_n_a.png,I,m,1152,12,3,2042.6999999997206,473343.3999999999,8000,VNB,C,10
0,test,1,0.0,2-Back,,,Wed Mar 12 2025 15:58:53 GMT-0500 (Central Daylight Time),475386.0999999996,025_y_m_h_a.png,I,space,9893,1,3,2042.6999999997206,473343.3999999999,8000,VNB,C,0
0,test,1,0.0,2-Back,,,Wed Mar 12 2025 15:58:53 GMT-0500 (Central Daylight Time),475386.0999999996,012_o_f_n_a.png,I,space,9893,2,3,2042.6999999997206,473343.3999999999,8000,VNB,C,0
1,test,1,0.0,2-Back,1,z,Wed Mar 12 2025 15:58:53 GMT-0500 (Central Daylight Time),498645.5,015_o_m_h_a.png,I,z,962,3,3,1978.3000000002794,496667.1999999997,8000,VNB,C,1
2,test,1,0.0,2-Back,1,m,Wed Mar 12 2025 15:58:53 GMT-0500 (Central Daylight Time),501061.3999999999,019_m_f_d_a.png,I,m,1397,4,3,2412.5,498648.8999999999,8000,VNB,C,2
2,test,1,1.0,2-Back,0,m,Wed Mar 12 2025 15:58:53 GMT-0500 (Central Daylight Time),503293.8999999999,025_y_m_n_a.png,I,z,1213,5,3,2229.5,501064.3999999999,8000,VNB,C,3
3,test,1,0.0,2-Back,1,z,Wed Mar 12 2025 15:58:53 GMT-0500 (Central Daylight Time),506043.3999999999,022_y_f_d_a.png,I,z,1716,6,3,2745.7000000001863,503297.6999999997,8000,VNB,C,4
3,test,1,0.0,2-Back,0,m,Wed Mar 12 2025 15:58:53 GMT-0500 (Central Daylight Time),508642.2999999998,014_m_m_h_a.png,I,z,1567,7,3,2595.0,506047.2999999998,8000,VNB,C,5
3,test,1,1.0,2-Back,0,m,Wed Mar 12 2025 15:58:53 GMT-0500 (Central Daylight Time),511686.7999999998,022_y_f_n_a.png,I,None,2028,8,3,3041.2999999998137,508645.5,8000,VNB,C,6
3,test,1,0.0,2-Back,0,z,Wed Mar 12 2025 15:58:53 GMT-0500 (Central Daylight Time),513690.7999999998,012_o_f_h_a.png,I,m,967,9,3,1999.2000000001863,511691.5999999996,8000,VNB,C,7
4,test,1,0.0,2-Back,1,m,Wed Mar 12 2025 15:58:53 GMT-0500 (Central Daylight Time),515873.3999999999,015_o_m_d_a.png,I,m,1159,10,3,2179.3000000002794,513694.0999999996,8000,VNB,C,8
5,test,1,1.0,2-Back,1,m,Wed Mar 12 2025 15:58:53 GMT-0500 (Central Daylight Time),518339.1999999997,014_m_m_d_a.png,I,m,1449,11,3,2461.899999999907,515877.2999999998,8000,VNB,C,9
6,test,1,0.0,2-Back,1,m,Wed Mar 12 2025 15:58:53 GMT-0500 (Central Daylight Time),520238.6999999997,019_m_f_n_a.png,I,m,871,12,3,1895.8999999999069,518342.7999999998,8000,VNB,C,10
7,test,1,0.0,2-Back,1,m,Wed Mar 12 2025 15:58:53 GMT-0500 (Central Daylight Time),522354.7999999998,022_y_f_h_a.png,I,m,1092,13,3,2112.399999999907,520242.3999999999,8000,VNB,C,11
8,test,1,0.0,2-Back,1,z,Wed Mar 12 2025 15:58:53 GMT-0500 (Central Daylight Time),524603.8999999999,014_m_m_n_a.png,I,z,1223,14,3,2245.899999999907,522358.0,8000,VNB,C,12
9,test,1,0.0,2-Back,1,m,Wed Mar 12 2025 15:58:53 GMT-0500 (Central Daylight Time),526636.6999999997,025_y_m_d_a.png,I,m,1006,15,3,2029.0,524607.6999999997,8000,VNB,C,13
10,test,1,1.0,2-Back,1,m,Wed Mar 12 2025 15:58:53 GMT-0500 (Central Daylight Time),528936.0,019_m_f_h_a.png,I,m,1270,16,3,2295.4000000003725,526640.5999999996,8000,VNB,C,14
11,test,1,0.0,2-Back,1,z,Wed Mar 12 2025 15:58:53 GMT-0500 (Central Daylight Time),531368.5,012_o_f_d_a.png,I,z,1410,17,3,2427.9000000003725,528940.5999999996,8000,VNB,C,15
12,test,1,0.0,2-Back,1,m,Wed Mar 12 2025 15:58:53 GMT-0500 (Central Daylight Time),534101.0,015_o_m_n_a.png,I,m,1705,18,3,2728.3000000002794,531372.6999999997,8000,VNB,C,16
0,test,2,0.0,2-Back,,,Wed Mar 12 2025 15:58:53 GMT-0500 (Central Daylight Time),534101.0,014_m_m_h_a.png,I,space,1293,1,3,2728.3000000002794,531372.6999999997,8000,VNB,C,0
0,test,2,0.0,2-Back,,,Wed Mar 12 2025 15:58:53 GMT-0500 (Central Daylight Time),534101.0,022_y_f_n_a.png,I,space,1293,2,3,2728.3000000002794,531372.6999999997,8000,VNB,C,0
1,test,2,1.0,2-Back,1,z,Wed Mar 12 2025 15:58:53 GMT-0500 (Central Daylight Time),542931.5,012_o_f_h_a.png,I,z,1248,3,3,2261.100000000093,540670.3999999999,8000,VNB,C,1
2,test,2,0.0,2-Back,1,m,Wed Mar 12 2025 15:58:53 GMT-0500 (Central Daylight Time),545064.0999999996,015_o_m_d_a.png,I,m,1102,4,3,2128.899999999907,542935.1999999997,8000,VNB,C,2
3,test,2,0.0,2-Back,1,m,Wed Mar 12 2025 15:58:53 GMT-0500 (Central Daylight Time),547281.3999999999,019_m_f_d_a.png,I,m,1194,5,3,2213.100000000093,545068.2999999998,8000,VNB,C,3
4,test,2,0.0,2-Back,1,m,Wed Mar 12 2025 15:58:53 GMT-0500 (Central Daylight Time),549762.8999999999,025_y_m_h_a.png,I,m,1450,6,3,2477.3000000002794,547285.5999999996,8000,VNB,C,4
5,test,2,0.0,2-Back,1,m,Wed Mar 12 2025 15:58:53 GMT-0500 (Central Daylight Time),552028.8999999999,012_o_f_n_a.png,I,m,1247,7,3,2262.600000000093,549766.2999999998,8000,VNB,C,5
6,test,2,1.0,2-Back,1,z,Wed Mar 12 2025 15:58:53 GMT-0500 (Central Daylight Time),554344.7999999998,015_o_m_h_a.png,I,z,1285,8,3,2312.2999999998137,552032.5,8000,VNB,C,6
7,test,2,0.0,2-Back,1,m,Wed Mar 12 2025 15:58:53 GMT-0500 (Central Daylight Time),556394.1999999997,022_y_f_d_a.png,I,m,1026,9,3,2045.6000000000931,554348.5999999996,8000,VNB,C,7
8,test,2,0.0,2-Back,1,m,Wed Mar 12 2025 15:58:53 GMT-0500 (Central Daylight Time),558793.6999999997,025_y_m_d_a.png,I,m,1376,10,3,2395.6999999997206,556398.0,8000,VNB,C,8
8,test,2,0.0,2-Back,0,m,Wed Mar 12 2025 15:58:53 GMT-0500 (Central Daylight Time),560759.3999999999,014_m_m_n_a.png,I,z,945,11,3,1961.8000000002794,558797.5999999996,8000,VNB,C,9
9,test,2,0.0,2-Back,1,m,Wed Mar 12 2025 15:58:53 GMT-0500 (Central Daylight Time),563508.3999999999,019_m_f_h_a.png,I,m,1723,12,3,2746.0,560762.3999999999,8000,VNB,C,10
9,test,2,1.0,2-Back,0,z,Wed Mar 12 2025 15:58:53 GMT-0500 (Central Daylight Time),565491.0999999996,015_o_m_n_a.png,I,m,958,13,3,1978.6999999997206,563512.3999999999,8000,VNB,C,11
9,test,2,0.0,2-Back,0,m,Wed Mar 12 2025 15:58:53 GMT-0500 (Central Daylight Time),567823.7999999998,012_o_f_d_a.png,I,z,1303,14,3,2328.899999999907,565494.8999999999,8000,VNB,C,12
10,test,2,0.0,2-Back,1,m,Wed Mar 12 2025 15:58:53 GMT-0500 (Central Daylight Time),570623.0,022_y_f_h_a.png,I,m,1771,15,3,2795.8000000002794,567827.1999999997,8000,VNB,C,13
10,test,2,0.0,2-Back,0,z,Wed Mar 12 2025 15:58:53 GMT-0500 (Central Daylight Time),572656.8999999999,014_m_m_d_a.png,I,m,1003,16,3,2029.8999999999069,570627.0,8000,VNB,C,14
11,test,2,0.0,2-Back,1,m,Wed Mar 12 2025 15:58:53 GMT-0500 (Central Daylight Time),574488.2999999998,025_y_m_n_a.png,I,m,803,17,3,1827.2000000001863,572661.0999999996,8000,VNB,C,15
12,test,2,1.0,2-Back,1,m,Wed Mar 12 2025 15:58:53 GMT-0500 (Central Daylight Time),576721.0,019_m_f_n_a.png,I,m,1210,18,3,2228.7000000001863,574492.2999999998,8000,VNB,C,16
0,test,3,1.0,2-Back,,,Wed Mar 12 2025 15:58:53 GMT-0500 (Central Daylight Time),576721.0,015_o_m_n_a.png,I,space,1081,1,3,2228.7000000001863,574492.2999999998,8000,VNB,C,0
0,test,3,1.0,2-Back,,,Wed Mar 12 2025 15:58:53 GMT-0500 (Central Daylight Time),576721.0,012_o_f_d_a.png,I,space,1081,2,3,2228.7000000001863,574492.2999999998,8000,VNB,C,0
1,test,3,0.0,2-Back,1,m,Wed Mar 12 2025 15:58:53 GMT-0500 (Central Daylight Time),585001.7999999998,022_y_f_h_a.png,I,m,892,3,3,1912.1000000000931,583089.6999999997,8000,VNB,C,1
2,test,3,0.0,2-Back,1,z,Wed Mar 12 2025 15:58:53 GMT-0500 (Central Daylight Time),587584.2999999998,019_m_f_d_a.png,I,z,1560,4,3,2578.5,585005.7999999998,8000,VNB,C,2
3,test,3,1.0,2-Back,1,m,Wed Mar 12 2025 15:58:53 GMT-0500 (Central Daylight Time),590350.0999999996,025_y_m_n_a.png,I,m,1738,5,3,2762.0,587588.0999999996,8000,VNB,C,3
4,test,3,0.0,2-Back,1,m,Wed Mar 12 2025 15:58:53 GMT-0500 (Central Daylight Time),592816.0,015_o_m_h_a.png,I,m,1444,6,3,2462.2000000001863,590353.7999999998,8000,VNB,C,4
5,test,3,0.0,2-Back,1,z,Wed Mar 12 2025 15:58:53 GMT-0500 (Central Daylight Time),594948.7999999998,022_y_f_n_a.png,I,z,1106,7,3,2128.7999999998137,592820.0,8000,VNB,C,5
6,test,3,1.0,2-Back,1,m,Wed Mar 12 2025 15:58:53 GMT-0500 (Central Daylight Time),597031.2999999998,014_m_m_d_a.png,I,m,1061,8,3,2078.600000000093,594952.6999999997,8000,VNB,C,6
7,test,3,0.0,2-Back,1,m,Wed Mar 12 2025 15:58:53 GMT-0500 (Central Daylight Time),599380.5999999996,025_y_m_d_a.png,I,m,1331,9,3,2345.399999999907,597035.1999999997,8000,VNB,C,7
8,test,3,0.0,2-Back,1,m,Wed Mar 12 2025 15:58:53 GMT-0500 (Central Daylight Time),601363.5,012_o_f_h_a.png,I,m,950,10,3,1979.7000000001863,599383.7999999998,8000,VNB,C,8
9,test,3,1.0,2-Back,1,m,Wed Mar 12 2025 15:58:53 GMT-0500 (Central Daylight Time),603512.6999999997,019_m_f_n_a.png,I,m,1119,11,3,2146.1999999997206,601366.5,8000,VNB,C,9
10,test,3,1.0,2-Back,1,z,Wed Mar 12 2025 15:58:53 GMT-0500 (Central Daylight Time),605889.5999999996,014_m_m_h_a.png,I,z,1360,12,3,2373.6999999997206,603515.8999999999,8000,VNB,C,10
11,test,3,0.0,2-Back,1,m,Wed Mar 12 2025 15:58:53 GMT-0500 (Central Daylight Time),608177.8999999999,022_y_f_d_a.png,I,m,1267,13,3,2284.600000000093,605893.2999999998,8000,VNB,C,11
12,test,3,0.0,2-Back,1,m,Wed Mar 12 2025 15:58:53 GMT-0500 (Central Daylight Time),610443.5,012_o_f_n_a.png,I,m,1248,14,3,2262.4000000003725,608181.0999999996,8000,VNB,C,12
13,test,3,0.0,2-Back,1,z,Wed Mar 12 2025 15:58:53 GMT-0500 (Central Daylight Time),612609.7999999998,015_o_m_d_a.png,I,z,1134,15,3,2162.4000000003725,610447.3999999994,8000,VNB,C,13
14,test,3,1.0,2-Back,1,m,Wed Mar 12 2025 15:58:53 GMT-0500 (Central Daylight Time),614709.0999999996,019_m_f_h_a.png,I,m,1072,16,3,2095.2999999998137,612613.7999999998,8000,VNB,C,14
15,test,3,0.0,2-Back,1,m,Wed Mar 12 2025 15:58:53 GMT-0500 (Central Daylight Time),616958.5,014_m_m_n_a.png,I,m,1229,17,3,2245.5,614713.0,8000,VNB,C,15
16,test,3,0.0,2-Back,1,z,Wed Mar 12 2025 15:58:53 GMT-0500 (Central Daylight Time),619074.5999999996,025_y_m_h_a.png,I,z,1092,18,3,2111.899999999441,616962.7000000002,8000,VNB,C,16
0,test,4,0.0,2-Back,,,Wed Mar 12 2025 15:58:53 GMT-0500 (Central Daylight Time),619074.5999999996,019_m_f_n_a.png,I,space,1400,1,3,2111.899999999441,616962.7000000002,8000,VNB,C,0
0,test,4,0.0,2-Back,,,Wed Mar 12 2025 15:58:53 GMT-0500 (Central Daylight Time),619074.5999999996,015_o_m_n_a.png,I,space,1400,2,3,2111.899999999441,616962.7000000002,8000,VNB,C,0
1,test,4,1.0,2-Back,1,m,Wed Mar 12 2025 15:58:53 GMT-0500 (Central Daylight Time),627488.5,025_y_m_h_a.png,I,m,693,3,3,1712.2999999998137,625776.2000000002,8000,VNB,C,1
2,test,4,1.0,2-Back,1,m,Wed Mar 12 2025 15:58:53 GMT-0500 (Central Daylight Time),629455.0,012_o_f_d_a.png,I,m,946,4,3,1962.0,627493.0,8000,VNB,C,2
3,test,4,0.0,2-Back,1,z,Wed Mar 12 2025 15:58:53 GMT-0500 (Central Daylight Time),631887.0,015_o_m_h_a.png,I,z,1404,5,3,2427.7999999998137,629459.2000000002,8000,VNB,C,3
4,test,4,0.0,2-Back,1,m,Wed Mar 12 2025 15:58:53 GMT-0500 (Central Daylight Time),633870.0,014_m_m_n_a.png,I,m,955,6,3,1979.0,631891.0,8000,VNB,C,4
5,test,4,0.0,2-Back,1,m,Wed Mar 12 2025 15:58:53 GMT-0500 (Central Daylight Time),636502.3999999994,019_m_f_d_a.png,I,m,1612,7,3,2628.899999999441,633873.5,8000,VNB,C,5
6,test,4,0.0,2-Back,1,z,Wed Mar 12 2025 15:58:53 GMT-0500 (Central Daylight Time),638784.5,022_y_f_n_a.png,I,z,1252,8,3,2279.0,636505.5,8000,VNB,C,6
7,test,4,1.0,2-Back,1,m,Wed Mar 12 2025 15:58:53 GMT-0500 (Central Daylight Time),640767.7999999998,012_o_f_h_a.png,I,m,953,9,3,1979.7000000001863,638788.0999999996,8000,VNB,C,7
8,test,4,0.0,2-Back,1,m,Wed Mar 12 2025 15:58:53 GMT-0500 (Central Daylight Time),642900.2000000002,014_m_m_h_a.png,I,m,1107,10,3,2128.300000000745,640771.8999999994,8000,VNB,C,8
9,test,4,0.0,2-Back,1,m,Wed Mar 12 2025 15:58:53 GMT-0500 (Central Daylight Time),644683.0999999996,022_y_f_d_a.png,I,m,758,11,3,1778.8999999994412,642904.2000000002,8000,VNB,C,9
10,test,4,0.0,2-Back,1,m,Wed Mar 12 2025 15:58:53 GMT-0500 (Central Daylight Time),646482.7000000002,025_y_m_n_a.png,I,m,775,12,3,1795.6000000005588,644687.0999999996,8000,VNB,C,10
11,test,4,0.0,2-Back,1,z,Wed Mar 12 2025 15:58:53 GMT-0500 (Central Daylight Time),648582.2999999998,015_o_m_d_a.png,I,z,1072,13,3,2095.7999999998137,646486.5,8000,VNB,C,11
12,test,4,1.0,2-Back,1,m,Wed Mar 12 2025 15:58:53 GMT-0500 (Central Daylight Time),650531.2999999998,019_m_f_h_a.png,I,m,924,14,3,1944.5999999996275,648586.7000000002,8000,VNB,C,12
13,test,4,1.0,2-Back,1,m,Wed Mar 12 2025 15:58:53 GMT-0500 (Central Daylight Time),652795.8999999994,022_y_f_h_a.png,I,m,1103,15,3,2261.399999999441,650534.5,8000,VNB,C,13
14,test,4,0.0,2-Back,1,m,Wed Mar 12 2025 15:58:53 GMT-0500 (Central Daylight Time),654763.2999999998,012_o_f_n_a.png,I,m,941,16,3,1964.2000000001863,652799.0999999996,8000,VNB,C,14
15,test,4,0.0,2-Back,1,m,Wed Mar 12 2025 15:58:53 GMT-0500 (Central Daylight Time),656779.2999999998,025_y_m_d_a.png,I,m,991,17,3,2012.7999999998137,654766.5,8000,VNB,C,15
16,test,4,1.0,2-Back,1,m,Wed Mar 12 2025 15:58:53 GMT-0500 (Central Daylight Time),659262.2000000002,014_m_m_d_a.png,I,m,1455,18,3,2479.600000000559,656782.5999999996,8000,VNB,C,16
0,test,5,1.0,2-Back,,,Wed Mar 12 2025 15:58:53 GMT-0500 (Central Daylight Time),659262.2000000002,022_y_f_d_a.png,I,space,1684,1,3,2479.600000000559,656782.5999999996,8000,VNB,C,0
0,test,5,1.0,2-Back,,,Wed Mar 12 2025 15:58:53 GMT-0500 (Central Daylight Time),659262.2000000002,012_o_f_h_a.png,I,space,1684,2,3,2479.600000000559,656782.5999999996,8000,VNB,C,0
1,test,5,1.0,2-Back,1,z,Wed Mar 12 2025 15:58:53 GMT-0500 (Central Daylight Time),668459.0,015_o_m_d_a.png,I,z,1208,3,3,2229.4000000003725,666229.5999999996,8000,VNB,C,1
2,test,5,1.0,2-Back,1,m,Wed Mar 12 2025 15:58:53 GMT-0500 (Central Daylight Time),670491.7000000002,019_m_f_n_a.png,I,m,1007,4,3,2028.6000000005588,668463.0999999996,8000,VNB,C,2
3,test,5,0.0,2-Back,1,m,Wed Mar 12 2025 15:58:53 GMT-0500 (Central Daylight Time),672857.7999999998,014_m_m_h_a.png,I,m,1334,5,3,2362.7000000001863,670495.0999999996,8000,VNB,C,3
4,test,5,0.0,2-Back,1,z,Wed Mar 12 2025 15:58:53 GMT-0500 (Central Daylight Time),675373.5999999996,022_y_f_n_a.png,I,z,1496,6,3,2511.7999999998137,672861.7999999998,8000,VNB,C,4
5,test,5,0.0,2-Back,1,m,Wed Mar 12 2025 15:58:53 GMT-0500 (Central Daylight Time),677556.0,012_o_f_d_a.png,I,m,1084,7,3,2177.7000000001863,675378.2999999998,8000,VNB,C,5
6,test,5,0.0,2-Back,1,m,Wed Mar 12 2025 15:58:53 GMT-0500 (Central Daylight Time),679588.8999999994,015_o_m_h_a.png,I,m,1005,8,3,2028.199999999255,677560.7000000002,8000,VNB,C,6
6,test,5,1.0,2-Back,0,z,Wed Mar 12 2025 15:58:53 GMT-0500 (Central Daylight Time),681871.7000000002,019_m_f_d_a.png,I,m,1252,9,3,2278.9000000003725,679592.7999999998,8000,VNB,C,7
7,test,5,0.0,2-Back,1,m,Wed Mar 12 2025 15:58:53 GMT-0500 (Central Daylight Time),683987.5,025_y_m_n_a.png,I,m,1099,10,3,2112.100000000559,681875.3999999994,8000,VNB,C,8
8,test,5,0.0,2-Back,1,m,Wed Mar 12 2025 15:58:53 GMT-0500 (Central Daylight Time),686053.7000000002,014_m_m_n_a.png,I,m,1039,11,3,2062.300000000745,683991.3999999994,8000,VNB,C,9
9,test,5,0.0,2-Back,1,m,Wed Mar 12 2025 15:58:53 GMT-0500 (Central Daylight Time),687936.0999999996,022_y_f_h_a.png,I,m,859,12,3,1878.5,686057.5999999996,8000,VNB,C,10
10,test,5,0.0,2-Back,1,m,Wed Mar 12 2025 15:58:53 GMT-0500 (Central Daylight Time),689819.0999999996,025_y_m_d_a.png,I,m,858,13,3,1878.2999999998137,687940.7999999998,8000,VNB,C,11
10,test,5,1.0,2-Back,0,z,Wed Mar 12 2025 15:58:53 GMT-0500 (Central Daylight Time),692185.0,019_m_f_h_a.png,I,m,1335,14,3,2362.100000000559,689822.8999999994,8000,VNB,C,12
11,test,5,0.0,2-Back,1,m,Wed Mar 12 2025 15:58:53 GMT-0500 (Central Daylight Time),694284.3999999994,015_o_m_n_a.png,I,m,1073,15,3,2095.5999999996275,692188.7999999998,8000,VNB,C,13
12,test,5,0.0,2-Back,1,m,Wed Mar 12 2025 15:58:53 GMT-0500 (Central Daylight Time),696267.2000000002,014_m_m_d_a.png,I,m,950,16,3,1979.0,694288.2000000002,8000,VNB,C,14
12,test,5,0.0,2-Back,0,z,Wed Mar 12 2025 15:58:53 GMT-0500 (Central Daylight Time),698866.2999999998,012_o_f_n_a.png,I,m,1567,17,3,2595.5,696270.7999999998,8000,VNB,C,15
13,test,5,1.0,2-Back,1,m,Wed Mar 12 2025 15:58:53 GMT-0500 (Central Daylight Time),701331.8999999994,025_y_m_h_a.png,I,m,1451,18,3,2462.399999999441,698869.5,8000,VNB,C,16
