acc_sum,block,block_c,change,condition,correct,correct_response,datetime,endtime,face,project,response,response_time,row_sel,session_number,start_end,starttime,subject_id,task,task_vers,trial
0,prac,1,,1-Back,,,Wed Sep 18 2024 09:11:48 GMT-0500 (Central Daylight Time),,005_o_f_d_a.png,I,space,12211,1,1,,,8000,VNB,B,0
0,prac,1,0.0,1-Back,0,m,Wed Sep 18 2024 09:11:48 GMT-0500 (Central Daylight Time),144374.69999999925,020_y_f_n_a.png,I,None,2013,2,1,2872.199999999255,141502.5,8000,VNB,B,1
1,prac,1,0.0,1-Back,1,m,Wed Sep 18 2024 09:11:48 GMT-0500 (Central Daylight Time),146824.0,007_m_m_h_a.png,I,m,1551,3,1,2443.400000002235,144380.59999999776,8000,VNB,B,2
2,prac,1,0.0,1-Back,1,m,Wed Sep 18 2024 09:11:48 GMT-0500 (Central Daylight Time),148590.09999999776,016_y_m_d_a.png,I,m,869,4,1,1759.800000000745,146830.29999999702,8000,VNB,B,3
3,prac,1,0.0,1-Back,1,m,Wed Sep 18 2024 09:11:48 GMT-0500 (Central Daylight Time),150539.59999999776,005_o_f_n_a.png,I,m,1070,5,1,1943.8999999985099,148595.69999999925,8000,VNB,B,4
4,prac,1,1.0,1-Back,1,z,Wed Sep 18 2024 09:11:48 GMT-0500 (Central Daylight Time),152656.59999999776,016_y_m_n_a.png,I,z,1224,6,1,2111.599999997765,150545.0,8000,VNB,B,5
5,prac,1,0.0,1-Back,1,m,Wed Sep 18 2024 09:11:48 GMT-0500 (Central Daylight Time),155038.0,004_o_m_h_a.png,I,m,1516,7,1,2375.2000000029802,152662.79999999702,8000,VNB,B,6
6,prac,1,0.0,1-Back,1,m,Wed Sep 18 2024 09:11:48 GMT-0500 (Central Daylight Time),157087.5,011_m_f_d_a.png,I,m,1157,8,1,2043.7000000029802,155043.79999999702,8000,VNB,B,7
6,prac,1,1.0,1-Back,0,z,Wed Sep 18 2024 09:11:48 GMT-0500 (Central Daylight Time),159369.8999999985,020_y_f_d_a.png,I,m,1415,9,1,2277.199999999255,157092.69999999925,8000,VNB,B,8
7,prac,1,0.0,1-Back,1,m,Wed Sep 18 2024 09:11:48 GMT-0500 (Central Daylight Time),161336.19999999925,007_m_m_n_a.png,I,m,1071,10,1,1958.4000000022352,159377.79999999702,8000,VNB,B,9
8,prac,1,0.0,1-Back,1,m,Wed Sep 18 2024 09:11:48 GMT-0500 (Central Daylight Time),163235.5,005_o_f_h_a.png,I,m,1012,11,1,1894.300000000745,161341.19999999925,8000,VNB,B,10
9,prac,1,0.0,1-Back,1,m,Wed Sep 18 2024 09:11:48 GMT-0500 (Central Daylight Time),165185.29999999702,016_y_m_d_a.png,I,m,1054,12,1,1944.2999999970198,163241.0,8000,VNB,B,11
0,test,1,0.0,1-Back,,,Wed Sep 18 2024 09:11:48 GMT-0500 (Central Daylight Time),165185.29999999702,020_y_f_d_a.png,I,space,14585,1,1,1944.2999999970198,163241.0,8000,VNB,B,0
1,test,1,0.0,1-Back,1,m,Wed Sep 18 2024 09:11:48 GMT-0500 (Central Daylight Time),192593.0,011_m_f_n_a.png,I,m,1392,2,1,2411.800000000745,190181.19999999925,8000,VNB,B,1
2,test,1,0.0,1-Back,1,m,Wed Sep 18 2024 09:11:48 GMT-0500 (Central Daylight Time),194725.59999999776,004_o_m_h_a.png,I,m,1105,3,1,2128.699999999255,192596.8999999985,8000,VNB,B,2
3,test,1,1.0,1-Back,1,z,Wed Sep 18 2024 09:11:48 GMT-0500 (Central Daylight Time),196724.8999999985,007_m_m_h_a.png,I,z,973,4,1,1995.1000000014901,194729.79999999702,8000,VNB,B,3
4,test,1,0.0,1-Back,1,m,Wed Sep 18 2024 09:11:48 GMT-0500 (Central Daylight Time),198507.5,005_o_f_n_a.png,I,m,765,5,1,1778.7000000029802,196728.79999999702,8000,VNB,B,4
5,test,1,0.0,1-Back,1,m,Wed Sep 18 2024 09:11:48 GMT-0500 (Central Daylight Time),200340.79999999702,016_y_m_d_a.png,I,m,806,6,1,1830.199999999255,198510.59999999776,8000,VNB,B,5
5,test,1,1.0,1-Back,0,z,Wed Sep 18 2024 09:11:48 GMT-0500 (Central Daylight Time),202423.09999999776,011_m_f_d_a.png,I,m,1062,7,1,2078.0,200345.09999999776,8000,VNB,B,6
5,test,1,0.0,1-Back,0,m,Wed Sep 18 2024 09:11:48 GMT-0500 (Central Daylight Time),204372.59999999776,020_y_f_h_a.png,I,z,923,8,1,1945.699999999255,202426.8999999985,8000,VNB,B,7
6,test,1,0.0,1-Back,1,m,Wed Sep 18 2024 09:11:48 GMT-0500 (Central Daylight Time),206221.8999999985,004_o_m_n_a.png,I,m,822,9,1,1845.0,204376.8999999985,8000,VNB,B,8
7,test,1,0.0,1-Back,1,m,Wed Sep 18 2024 09:11:48 GMT-0500 (Central Daylight Time),208121.3999999985,016_y_m_h_a.png,I,m,868,10,1,1895.699999999255,206225.69999999925,8000,VNB,B,9
8,test,1,0.0,1-Back,1,m,Wed Sep 18 2024 09:11:48 GMT-0500 (Central Daylight Time),209803.8999999985,004_o_m_d_a.png,I,m,665,11,1,1678.699999999255,208125.19999999925,8000,VNB,B,10
9,test,1,1.0,1-Back,1,z,Wed Sep 18 2024 09:11:48 GMT-0500 (Central Daylight Time),211836.79999999702,005_o_f_d_a.png,I,z,997,12,1,2029.699999999255,209807.09999999776,8000,VNB,B,11
10,test,1,0.0,1-Back,1,m,Wed Sep 18 2024 09:11:48 GMT-0500 (Central Daylight Time),213836.19999999925,007_m_m_n_a.png,I,m,965,13,1,1995.5,211840.69999999925,8000,VNB,B,12
11,test,1,1.0,1-Back,1,z,Wed Sep 18 2024 09:11:48 GMT-0500 (Central Daylight Time),216168.8999999985,020_y_f_n_a.png,I,z,1293,14,1,2329.300000000745,213839.59999999776,8000,VNB,B,13
12,test,1,0.0,1-Back,1,m,Wed Sep 18 2024 09:11:48 GMT-0500 (Central Daylight Time),217918.19999999925,011_m_f_h_a.png,I,m,713,15,1,1745.6000000014901,216172.59999999776,8000,VNB,B,14
13,test,1,0.0,1-Back,1,m,Wed Sep 18 2024 09:11:48 GMT-0500 (Central Daylight Time),219851.0,007_m_m_d_a.png,I,m,891,16,1,1928.7000000029802,217922.29999999702,8000,VNB,B,15
14,test,1,0.0,1-Back,1,m,Wed Sep 18 2024 09:11:48 GMT-0500 (Central Daylight Time),221917.09999999776,016_y_m_n_a.png,I,m,1023,17,1,2061.89999999851,219855.19999999925,8000,VNB,B,16
15,test,1,0.0,1-Back,1,m,Wed Sep 18 2024 09:11:48 GMT-0500 (Central Daylight Time),223766.29999999702,005_o_f_h_a.png,I,m,805,18,1,1846.0,221920.29999999702,8000,VNB,B,17
0,test,2,0.0,1-Back,,,Wed Sep 18 2024 09:11:48 GMT-0500 (Central Daylight Time),223766.29999999702,016_y_m_n_a.png,I,space,1940,1,1,1846.0,221920.29999999702,8000,VNB,B,0
1,test,2,0.0,1-Back,1,m,Wed Sep 18 2024 09:11:48 GMT-0500 (Central Daylight Time),229964.59999999776,020_y_f_h_a.png,I,m,1214,2,1,2228.699999999255,227735.8999999985,8000,VNB,B,1
2,test,2,1.0,1-Back,1,m,Wed Sep 18 2024 09:11:48 GMT-0500 (Central Daylight Time),231963.8999999985,004_o_m_n_a.png,I,m,974,3,1,1995.3999999985099,229968.5,8000,VNB,B,2
3,test,2,0.0,1-Back,1,m,Wed Sep 18 2024 09:11:48 GMT-0500 (Central Daylight Time),233663.29999999702,011_m_f_d_a.png,I,m,669,4,1,1695.0999999977648,231968.19999999925,8000,VNB,B,3
4,test,2,0.0,1-Back,1,z,Wed Sep 18 2024 09:11:48 GMT-0500 (Central Daylight Time),235729.5,007_m_m_d_a.png,I,z,1018,5,1,2062.400000002235,233667.09999999776,8000,VNB,B,4
5,test,2,0.0,1-Back,1,m,Wed Sep 18 2024 09:11:48 GMT-0500 (Central Daylight Time),237695.69999999925,016_y_m_h_a.png,I,m,928,6,1,1962.5,235733.19999999925,8000,VNB,B,5
6,test,2,1.0,1-Back,1,z,Wed Sep 18 2024 09:11:48 GMT-0500 (Central Daylight Time),240073.0,005_o_f_h_a.png,I,z,1180,7,1,2373.300000000745,237699.69999999925,8000,VNB,B,6
7,test,2,0.0,1-Back,1,m,Wed Sep 18 2024 09:11:48 GMT-0500 (Central Daylight Time),241994.0,011_m_f_n_a.png,I,m,851,8,1,1916.4000000022352,240077.59999999776,8000,VNB,B,7
8,test,2,0.0,1-Back,1,m,Wed Sep 18 2024 09:11:48 GMT-0500 (Central Daylight Time),243960.09999999776,020_y_f_d_a.png,I,m,928,9,1,1962.199999999255,241997.8999999985,8000,VNB,B,8
9,test,2,0.0,1-Back,1,m,Wed Sep 18 2024 09:11:48 GMT-0500 (Central Daylight Time),245976.09999999776,007_m_m_n_a.png,I,m,970,10,1,2012.0999999977648,243964.0,8000,VNB,B,9
10,test,2,1.0,1-Back,1,m,Wed Sep 18 2024 09:11:48 GMT-0500 (Central Daylight Time),247743.19999999925,011_m_f_h_a.png,I,m,729,11,1,1763.1000000014901,245980.09999999776,8000,VNB,B,10
11,test,2,0.0,1-Back,1,z,Wed Sep 18 2024 09:11:48 GMT-0500 (Central Daylight Time),249708.3999999985,004_o_m_h_a.png,I,z,931,12,1,1961.199999999255,247747.19999999925,8000,VNB,B,11
12,test,2,0.0,1-Back,1,m,Wed Sep 18 2024 09:11:48 GMT-0500 (Central Daylight Time),251574.3999999985,016_y_m_d_a.png,I,m,829,13,1,1862.8999999985099,249711.5,8000,VNB,B,12
13,test,2,0.0,1-Back,1,m,Wed Sep 18 2024 09:11:48 GMT-0500 (Central Daylight Time),253573.8999999985,005_o_f_n_a.png,I,m,955,14,1,1995.6000000014901,251578.29999999702,8000,VNB,B,13
14,test,2,0.0,1-Back,1,z,Wed Sep 18 2024 09:11:48 GMT-0500 (Central Daylight Time),255723.29999999702,020_y_f_n_a.png,I,z,1116,15,1,2145.39999999851,253577.8999999985,8000,VNB,B,14
15,test,2,1.0,1-Back,1,m,Wed Sep 18 2024 09:11:48 GMT-0500 (Central Daylight Time),257922.3999999985,007_m_m_h_a.png,I,m,1158,16,1,2195.0,255727.3999999985,8000,VNB,B,15
16,test,2,0.0,1-Back,1,m,Wed Sep 18 2024 09:11:48 GMT-0500 (Central Daylight Time),259888.59999999776,005_o_f_d_a.png,I,m,902,17,1,1962.300000000745,257926.29999999702,8000,VNB,B,16
17,test,2,1.0,1-Back,1,z,Wed Sep 18 2024 09:11:48 GMT-0500 (Central Daylight Time),261904.5,004_o_m_d_a.png,I,z,961,18,1,2012.800000000745,259891.69999999925,8000,VNB,B,17
0,test,3,1.0,1-Back,,,Wed Sep 18 2024 09:11:48 GMT-0500 (Central Daylight Time),261904.5,005_o_f_h_a.png,I,space,2313,1,1,2012.800000000745,259891.69999999925,8000,VNB,B,0
1,test,3,0.0,1-Back,1,m,Wed Sep 18 2024 09:11:48 GMT-0500 (Central Daylight Time),268185.8999999985,011_m_f_d_a.png,I,m,800,2,1,1844.8999999985099,266341.0,8000,VNB,B,1
2,test,3,1.0,1-Back,1,m,Wed Sep 18 2024 09:11:48 GMT-0500 (Central Daylight Time),269868.69999999925,007_m_m_n_a.png,I,m,648,3,1,1679.199999999255,268189.5,8000,VNB,B,2
3,test,3,0.0,1-Back,1,z,Wed Sep 18 2024 09:11:48 GMT-0500 (Central Daylight Time),271818.09999999776,005_o_f_n_a.png,I,z,901,4,1,1945.5,269872.59999999776,8000,VNB,B,3
4,test,3,1.0,1-Back,1,m,Wed Sep 18 2024 09:11:48 GMT-0500 (Central Daylight Time),273750.8999999985,004_o_m_d_a.png,I,m,895,5,1,1928.8999999985099,271822.0,8000,VNB,B,4
5,test,3,0.0,1-Back,1,m,Wed Sep 18 2024 09:11:48 GMT-0500 (Central Daylight Time),275750.09999999776,020_y_f_h_a.png,I,m,962,6,1,1995.5,273754.59999999776,8000,VNB,B,5
6,test,3,0.0,1-Back,1,z,Wed Sep 18 2024 09:11:48 GMT-0500 (Central Daylight Time),277649.799999997,016_y_m_h_a.png,I,z,851,7,1,1895.7999999970198,275754.0,8000,VNB,B,6
7,test,3,0.0,1-Back,1,m,Wed Sep 18 2024 09:11:48 GMT-0500 (Central Daylight Time),279515.69999999925,011_m_f_n_a.png,I,m,824,8,1,1862.6000000014901,277653.09999999776,8000,VNB,B,7
8,test,3,0.0,1-Back,1,m,Wed Sep 18 2024 09:11:48 GMT-0500 (Central Daylight Time),281448.3999999985,020_y_f_d_a.png,I,m,886,9,1,1928.8999999985099,279519.5,8000,VNB,B,8
9,test,3,1.0,1-Back,1,m,Wed Sep 18 2024 09:11:48 GMT-0500 (Central Daylight Time),283281.09999999776,004_o_m_n_a.png,I,m,786,10,1,1829.5,281451.59999999776,8000,VNB,B,9
10,test,3,0.0,1-Back,1,m,Wed Sep 18 2024 09:11:48 GMT-0500 (Central Daylight Time),285247.19999999925,007_m_m_h_a.png,I,m,920,11,1,1961.0,283286.19999999925,8000,VNB,B,10
11,test,3,0.0,1-Back,1,z,Wed Sep 18 2024 09:11:48 GMT-0500 (Central Daylight Time),287246.299999997,011_m_f_h_a.png,I,z,937,12,1,1995.3999999985099,285250.8999999985,8000,VNB,B,11
12,test,3,1.0,1-Back,1,m,Wed Sep 18 2024 09:11:48 GMT-0500 (Central Daylight Time),289262.799999997,005_o_f_d_a.png,I,m,988,13,1,2012.3999999985099,287250.3999999985,8000,VNB,B,12
13,test,3,0.0,1-Back,1,z,Wed Sep 18 2024 09:11:48 GMT-0500 (Central Daylight Time),291478.799999997,007_m_m_d_a.png,I,z,1156,14,1,2212.199999999255,289266.59999999776,8000,VNB,B,13
14,test,3,0.0,1-Back,1,m,Wed Sep 18 2024 09:11:48 GMT-0500 (Central Daylight Time),293328.0,016_y_m_n_a.png,I,m,803,15,1,1845.800000000745,291482.19999999925,8000,VNB,B,14
15,test,3,1.0,1-Back,1,m,Wed Sep 18 2024 09:11:48 GMT-0500 (Central Daylight Time),295360.799999997,004_o_m_h_a.png,I,m,1009,16,1,2029.199999999255,293331.59999999776,8000,VNB,B,15
16,test,3,0.0,1-Back,1,m,Wed Sep 18 2024 09:11:48 GMT-0500 (Central Daylight Time),297293.299999997,016_y_m_d_a.png,I,m,889,17,1,1928.5999999977648,295364.69999999925,8000,VNB,B,16
17,test,3,1.0,1-Back,1,m,Wed Sep 18 2024 09:11:48 GMT-0500 (Central Daylight Time),299293.09999999776,020_y_f_n_a.png,I,m,956,18,1,1996.199999999255,297296.8999999985,8000,VNB,B,17
0,test,4,1.0,1-Back,,,Wed Sep 18 2024 09:11:48 GMT-0500 (Central Daylight Time),299293.09999999776,007_m_m_d_a.png,I,space,1901,1,1,1996.199999999255,297296.8999999985,8000,VNB,B,0
1,test,4,0.0,1-Back,1,z,Wed Sep 18 2024 09:11:48 GMT-0500 (Central Daylight Time),305507.299999997,004_o_m_d_a.png,I,z,1265,2,1,2278.599999997765,303228.69999999925,8000,VNB,B,1
2,test,4,0.0,1-Back,1,m,Wed Sep 18 2024 09:11:48 GMT-0500 (Central Daylight Time),307307.0,016_y_m_h_a.png,I,m,775,3,1,1796.4000000022352,305510.59999999776,8000,VNB,B,2
3,test,4,0.0,1-Back,1,m,Wed Sep 18 2024 09:11:48 GMT-0500 (Central Daylight Time),309123.09999999776,011_m_f_n_a.png,I,m,791,4,1,1812.8999999985099,307310.19999999925,8000,VNB,B,3
4,test,4,1.0,1-Back,1,m,Wed Sep 18 2024 09:11:48 GMT-0500 (Central Daylight Time),310872.5,005_o_f_h_a.png,I,m,718,5,1,1745.6000000014901,309126.8999999985,8000,VNB,B,4
5,test,4,0.0,1-Back,1,m,Wed Sep 18 2024 09:11:48 GMT-0500 (Central Daylight Time),312738.69999999925,007_m_m_n_a.png,I,m,842,6,1,1861.9000000022352,310876.799999997,8000,VNB,B,5
6,test,4,0.0,1-Back,1,m,Wed Sep 18 2024 09:11:48 GMT-0500 (Central Daylight Time),314621.5,016_y_m_d_a.png,I,m,864,7,1,1879.7000000029802,312741.799999997,8000,VNB,B,6
7,test,4,1.0,1-Back,1,z,Wed Sep 18 2024 09:11:48 GMT-0500 (Central Daylight Time),316587.69999999925,020_y_f_d_a.png,I,z,933,8,1,1962.300000000745,314625.3999999985,8000,VNB,B,7
8,test,4,0.0,1-Back,1,m,Wed Sep 18 2024 09:11:48 GMT-0500 (Central Daylight Time),318503.3999999985,011_m_f_h_a.png,I,m,895,9,1,1911.800000000745,316591.59999999776,8000,VNB,B,8
9,test,4,0.0,1-Back,1,z,Wed Sep 18 2024 09:11:48 GMT-0500 (Central Daylight Time),320536.09999999776,004_o_m_h_a.png,I,z,970,10,1,2028.0999999977648,318508.0,8000,VNB,B,9
10,test,4,1.0,1-Back,1,m,Wed Sep 18 2024 09:11:48 GMT-0500 (Central Daylight Time),322568.8999999985,005_o_f_n_a.png,I,m,985,11,1,2027.3999999985099,320541.5,8000,VNB,B,10
11,test,4,0.0,1-Back,1,m,Wed Sep 18 2024 09:11:48 GMT-0500 (Central Daylight Time),324518.299999997,011_m_f_d_a.png,I,m,913,12,1,1945.5999999977648,322572.69999999925,8000,VNB,B,11
12,test,4,0.0,1-Back,1,m,Wed Sep 18 2024 09:11:48 GMT-0500 (Central Daylight Time),326500.8999999985,020_y_f_n_a.png,I,m,947,13,1,1978.800000000745,324522.09999999776,8000,VNB,B,12
13,test,4,0.0,1-Back,1,m,Wed Sep 18 2024 09:11:48 GMT-0500 (Central Daylight Time),328450.09999999776,005_o_f_d_a.png,I,m,901,14,1,1945.0999999977648,326505.0,8000,VNB,B,13
14,test,4,0.0,1-Back,1,m,Wed Sep 18 2024 09:11:48 GMT-0500 (Central Daylight Time),330316.3999999985,020_y_f_h_a.png,I,m,822,15,1,1863.199999999255,328453.19999999925,8000,VNB,B,14
15,test,4,1.0,1-Back,1,z,Wed Sep 18 2024 09:11:48 GMT-0500 (Central Daylight Time),332132.799999997,007_m_m_h_a.png,I,z,773,16,1,1812.7999999970198,330320.0,8000,VNB,B,15
16,test,4,0.0,1-Back,1,m,Wed Sep 18 2024 09:11:48 GMT-0500 (Central Daylight Time),334110.19999999925,004_o_m_n_a.png,I,m,805,17,1,1974.4000000022352,332135.799999997,8000,VNB,B,16
17,test,4,1.0,1-Back,1,z,Wed Sep 18 2024 09:11:48 GMT-0500 (Central Daylight Time),336281.19999999925,016_y_m_n_a.png,I,z,993,18,1,2166.800000000745,334114.3999999985,8000,VNB,B,17
0,test,5,1.0,1-Back,,,Wed Sep 18 2024 09:11:48 GMT-0500 (Central Daylight Time),336281.19999999925,004_o_m_n_a.png,I,space,2273,1,1,2166.800000000745,334114.3999999985,8000,VNB,B,0
1,test,5,1.0,1-Back,1,m,Wed Sep 18 2024 09:11:48 GMT-0500 (Central Daylight Time),342396.09999999776,005_o_f_h_a.png,I,m,790,2,1,1812.800000000745,340583.299999997,8000,VNB,B,1
2,test,5,0.0,1-Back,1,m,Wed Sep 18 2024 09:11:48 GMT-0500 (Central Daylight Time),344145.0,016_y_m_d_a.png,I,m,726,3,1,1745.0,342400.0,8000,VNB,B,2
3,test,5,0.0,1-Back,1,z,Wed Sep 18 2024 09:11:48 GMT-0500 (Central Daylight Time),345978.19999999925,004_o_m_d_a.png,I,z,784,4,1,1829.5,344148.69999999925,8000,VNB,B,3
4,test,5,0.0,1-Back,1,m,Wed Sep 18 2024 09:11:48 GMT-0500 (Central Daylight Time),347844.5,011_m_f_h_a.png,I,m,824,5,1,1861.9000000022352,345982.59999999776,8000,VNB,B,4
5,test,5,0.0,1-Back,1,m,Wed Sep 18 2024 09:11:48 GMT-0500 (Central Daylight Time),349810.5,020_y_f_n_a.png,I,m,934,6,1,1962.7000000029802,347847.799999997,8000,VNB,B,5
6,test,5,1.0,1-Back,1,z,Wed Sep 18 2024 09:11:48 GMT-0500 (Central Daylight Time),351826.19999999925,005_o_f_n_a.png,I,z,967,7,1,2012.1000000014901,349814.09999999776,8000,VNB,B,6
7,test,5,0.0,1-Back,1,m,Wed Sep 18 2024 09:11:48 GMT-0500 (Central Daylight Time),353642.5,011_m_f_d_a.png,I,m,767,8,1,1813.300000000745,351829.19999999925,8000,VNB,B,7
8,test,5,0.0,1-Back,1,m,Wed Sep 18 2024 09:11:48 GMT-0500 (Central Daylight Time),355575.19999999925,016_y_m_h_a.png,I,m,895,9,1,1928.800000000745,353646.3999999985,8000,VNB,B,8
9,test,5,0.0,1-Back,1,m,Wed Sep 18 2024 09:11:48 GMT-0500 (Central Daylight Time),357622.8999999985,020_y_f_d_a.png,I,m,1015,10,1,2044.300000000745,355578.59999999776,8000,VNB,B,9
10,test,5,0.0,1-Back,1,m,Wed Sep 18 2024 09:11:48 GMT-0500 (Central Daylight Time),359558.59999999776,007_m_m_n_a.png,I,m,872,11,1,1932.0,357626.59999999776,8000,VNB,B,10
11,test,5,1.0,1-Back,1,z,Wed Sep 18 2024 09:11:48 GMT-0500 (Central Daylight Time),361440.19999999925,011_m_f_n_a.png,I,z,836,12,1,1877.300000000745,359562.8999999985,8000,VNB,B,11
12,test,5,0.0,1-Back,1,m,Wed Sep 18 2024 09:11:48 GMT-0500 (Central Daylight Time),363323.0,004_o_m_h_a.png,I,m,842,13,1,1879.1000000014901,361443.8999999985,8000,VNB,B,12
13,test,5,0.0,1-Back,1,z,Wed Sep 18 2024 09:11:48 GMT-0500 (Central Daylight Time),365288.8999999985,007_m_m_h_a.png,I,z,919,14,1,1962.800000000745,363326.09999999776,8000,VNB,B,13
14,test,5,1.0,1-Back,1,m,Wed Sep 18 2024 09:11:48 GMT-0500 (Central Daylight Time),367155.0,005_o_f_d_a.png,I,m,833,15,1,1862.4000000022352,365292.59999999776,8000,VNB,B,14
15,test,5,0.0,1-Back,1,m,Wed Sep 18 2024 09:11:48 GMT-0500 (Central Daylight Time),369470.8999999985,016_y_m_n_a.png,I,m,1271,16,1,2312.0,367158.8999999985,8000,VNB,B,15
16,test,5,0.0,1-Back,1,m,Wed Sep 18 2024 09:11:48 GMT-0500 (Central Daylight Time),371270.299999997,020_y_f_h_a.png,I,m,763,17,1,1795.699999999255,369474.59999999776,8000,VNB,B,16
17,test,5,0.0,1-Back,1,m,Wed Sep 18 2024 09:11:48 GMT-0500 (Central Daylight Time),373119.69999999925,007_m_m_d_a.png,I,m,804,18,1,1846.1000000014901,371273.59999999776,8000,VNB,B,17
0,prac,1,0.0,2-Back,,,Wed Sep 18 2024 09:11:48 GMT-0500 (Central Daylight Time),373119.69999999925,011_m_f_n_a.png,I,space,6017,1,1,1846.1000000014901,371273.59999999776,8000,VNB,B,0
0,prac,1,0.0,2-Back,,,Wed Sep 18 2024 09:11:48 GMT-0500 (Central Daylight Time),373119.69999999925,005_o_f_h_a.png,I,space,6017,2,1,1846.1000000014901,371273.59999999776,8000,VNB,B,0
1,prac,1,0.0,2-Back,1,m,Wed Sep 18 2024 09:11:48 GMT-0500 (Central Daylight Time),542633.5,004_o_m_d_a.png,I,m,1549,3,1,2410.60000000149,540222.8999999985,8000,VNB,B,1
1,prac,1,1.0,2-Back,0,z,Wed Sep 18 2024 09:11:48 GMT-0500 (Central Daylight Time),545532.3999999985,007_m_m_h_a.png,I,None,2012,4,1,2893.5,542638.8999999985,8000,VNB,B,2
1,prac,1,0.0,2-Back,0,m,Wed Sep 18 2024 09:11:48 GMT-0500 (Central Daylight Time),548265.0,020_y_f_n_a.png,I,z,1853,5,1,2727.2000000029802,545537.799999997,8000,VNB,B,3
1,prac,1,1.0,2-Back,0,z,Wed Sep 18 2024 09:11:48 GMT-0500 (Central Daylight Time),551130.799999997,004_o_m_h_a.png,I,None,2005,6,1,2860.60000000149,548270.1999999955,8000,VNB,B,4
1,prac,1,1.0,2-Back,0,z,Wed Sep 18 2024 09:11:48 GMT-0500 (Central Daylight Time),553163.3999999985,016_y_m_n_a.png,I,m,1144,7,1,2027.1000000014901,551136.299999997,8000,VNB,B,5
2,prac,1,0.0,2-Back,1,m,Wed Sep 18 2024 09:11:48 GMT-0500 (Central Daylight Time),554979.5,011_m_f_d_a.png,I,m,928,8,1,1810.8999999985099,553168.6000000015,8000,VNB,B,6
3,prac,1,0.0,2-Back,1,m,Wed Sep 18 2024 09:11:48 GMT-0500 (Central Daylight Time),557278.799999997,005_o_f_d_a.png,I,m,1415,9,1,2293.89999999851,554984.8999999985,8000,VNB,B,7
3,prac,1,0.0,2-Back,0,m,Wed Sep 18 2024 09:11:48 GMT-0500 (Central Daylight Time),560061.0,007_m_m_h_a.png,I,None,2010,10,1,2776.60000000149,557284.3999999985,8000,VNB,B,8
3,prac,1,1.0,2-Back,0,z,Wed Sep 18 2024 09:11:48 GMT-0500 (Central Daylight Time),561910.6000000015,020_y_f_d_a.png,I,m,972,11,1,1843.4000000059605,560067.1999999955,8000,VNB,B,9
4,prac,1,0.0,2-Back,1,m,Wed Sep 18 2024 09:11:48 GMT-0500 (Central Daylight Time),563393.8999999985,004_o_m_n_a.png,I,m,607,12,1,1477.7999999970198,561916.1000000015,8000,VNB,B,10
0,prac,2,0.0,2-Back,,,Wed Sep 18 2024 09:11:48 GMT-0500 (Central Daylight Time),563393.8999999985,011_m_f_n_a.png,I,a,5413,1,1,1477.7999999970198,561916.1000000015,8000,VNB,B,0
0,prac,2,0.0,2-Back,,,Wed Sep 18 2024 09:11:48 GMT-0500 (Central Daylight Time),563393.8999999985,005_o_f_h_a.png,I,a,5413,2,1,1477.7999999970198,561916.1000000015,8000,VNB,B,0
0,prac,2,0.0,2-Back,0,m,Wed Sep 18 2024 09:11:48 GMT-0500 (Central Daylight Time),576939.299999997,004_o_m_d_a.png,I,None,2005,3,1,2859.7999999970198,574079.5,8000,VNB,B,1
0,prac,2,1.0,2-Back,0,z,Wed Sep 18 2024 09:11:48 GMT-0500 (Central Daylight Time),579721.6000000015,007_m_m_h_a.png,I,None,2009,4,1,2776.3000000044703,576945.299999997,8000,VNB,B,2
1,prac,2,0.0,2-Back,1,m,Wed Sep 18 2024 09:11:48 GMT-0500 (Central Daylight Time),581304.5,020_y_f_n_a.png,I,m,711,5,1,1577.2000000029802,579727.299999997,8000,VNB,B,3
1,prac,2,1.0,2-Back,0,z,Wed Sep 18 2024 09:11:48 GMT-0500 (Central Daylight Time),583354.1999999955,004_o_m_h_a.png,I,m,1190,6,1,2044.6999999955297,581309.5,8000,VNB,B,4
1,prac,2,1.0,2-Back,0,z,Wed Sep 18 2024 09:11:48 GMT-0500 (Central Daylight Time),586253.1999999955,016_y_m_n_a.png,I,None,2015,7,1,2893.7999999970198,583359.3999999985,8000,VNB,B,5
2,prac,2,0.0,2-Back,1,m,Wed Sep 18 2024 09:11:48 GMT-0500 (Central Daylight Time),588186.799999997,011_m_f_d_a.png,I,m,1061,8,1,1928.5,586258.299999997,8000,VNB,B,6
2,prac,2,0.0,2-Back,0,m,Wed Sep 18 2024 09:11:48 GMT-0500 (Central Daylight Time),590618.5,005_o_f_d_a.png,I,z,1540,9,1,2425.8000000044703,588192.6999999955,8000,VNB,B,7
3,prac,2,0.0,2-Back,1,m,Wed Sep 18 2024 09:11:48 GMT-0500 (Central Daylight Time),592184.5,007_m_m_h_a.png,I,m,779,10,1,1560.5,590624.0,8000,VNB,B,8
3,prac,2,1.0,2-Back,0,z,Wed Sep 18 2024 09:11:48 GMT-0500 (Central Daylight Time),594150.5,020_y_f_d_a.png,I,m,1089,11,1,1960.8000000044703,592189.6999999955,8000,VNB,B,9
3,prac,2,0.0,2-Back,0,m,Wed Sep 18 2024 09:11:48 GMT-0500 (Central Daylight Time),597016.1999999955,004_o_m_n_a.png,I,None,2007,12,1,2860.39999999851,594155.799999997,8000,VNB,B,10
0,test,1,0.0,2-Back,,,Wed Sep 18 2024 09:11:48 GMT-0500 (Central Daylight Time),597016.1999999955,016_y_m_h_a.png,I,space,10378,1,1,2860.39999999851,594155.799999997,8000,VNB,B,0
0,test,1,0.0,2-Back,,,Wed Sep 18 2024 09:11:48 GMT-0500 (Central Daylight Time),597016.1999999955,005_o_f_n_a.png,I,space,10378,2,1,2860.39999999851,594155.799999997,8000,VNB,B,0
1,test,1,0.0,2-Back,1,z,Wed Sep 18 2024 09:11:48 GMT-0500 (Central Daylight Time),644568.1000000015,004_o_m_h_a.png,I,z,1061,3,1,2078.9000000059605,642489.1999999955,8000,VNB,B,1
1,test,1,0.0,2-Back,0,m,Wed Sep 18 2024 09:11:48 GMT-0500 (Central Daylight Time),647600.5,011_m_f_d_a.png,I,None,2015,4,1,3028.89999999851,644571.6000000015,8000,VNB,B,2
2,test,1,1.0,2-Back,1,m,Wed Sep 18 2024 09:11:48 GMT-0500 (Central Daylight Time),649649.799999997,016_y_m_n_a.png,I,m,1026,5,1,2045.5,647604.299999997,8000,VNB,B,3
2,test,1,0.0,2-Back,0,z,Wed Sep 18 2024 09:11:48 GMT-0500 (Central Daylight Time),652682.3999999985,020_y_f_d_a.png,I,None,2015,6,1,3028.7000000029802,649653.6999999955,8000,VNB,B,4
3,test,1,0.0,2-Back,1,m,Wed Sep 18 2024 09:11:48 GMT-0500 (Central Daylight Time),654381.6999999955,007_m_m_h_a.png,I,m,672,7,1,1695.2999999970198,652686.3999999985,8000,VNB,B,5
4,test,1,1.0,2-Back,1,m,Wed Sep 18 2024 09:11:48 GMT-0500 (Central Daylight Time),656381.0,020_y_f_n_a.png,I,m,973,8,1,1996.3999999985099,654384.6000000015,8000,VNB,B,6
5,test,1,0.0,2-Back,1,z,Wed Sep 18 2024 09:11:48 GMT-0500 (Central Daylight Time),659063.5,005_o_f_h_a.png,I,z,1661,9,1,2679.2000000029802,656384.299999997,8000,VNB,B,7
6,test,1,0.0,2-Back,1,m,Wed Sep 18 2024 09:11:48 GMT-0500 (Central Daylight Time),661729.299999997,004_o_m_d_a.png,I,m,1635,10,1,2661.7999999970198,659067.5,8000,VNB,B,8
7,test,1,1.0,2-Back,1,m,Wed Sep 18 2024 09:11:48 GMT-0500 (Central Daylight Time),664445.1000000015,007_m_m_d_a.png,I,m,1696,11,1,2712.3000000044703,661732.799999997,8000,VNB,B,9
8,test,1,0.0,2-Back,1,m,Wed Sep 18 2024 09:11:48 GMT-0500 (Central Daylight Time),666544.3999999985,011_m_f_n_a.png,I,m,1069,12,1,2095.7000000029802,664448.6999999955,8000,VNB,B,10
9,test,1,0.0,2-Back,1,m,Wed Sep 18 2024 09:11:48 GMT-0500 (Central Daylight Time),669044.6999999955,020_y_f_h_a.png,I,m,1482,13,1,2496.39999999851,666548.299999997,8000,VNB,B,11
10,test,1,0.0,2-Back,1,z,Wed Sep 18 2024 09:11:48 GMT-0500 (Central Daylight Time),671126.299999997,007_m_m_n_a.png,I,z,1055,14,1,2078.2999999970198,669048.0,8000,VNB,B,12
10,test,1,0.0,2-Back,0,m,Wed Sep 18 2024 09:11:48 GMT-0500 (Central Daylight Time),674159.3999999985,016_y_m_d_a.png,I,None,2016,15,1,3029.2999999970198,671130.1000000015,8000,VNB,B,13
11,test,1,1.0,2-Back,1,m,Wed Sep 18 2024 09:11:48 GMT-0500 (Central Daylight Time),676591.299999997,011_m_f_h_a.png,I,m,1411,16,1,2428.2999999970198,674163.0,8000,VNB,B,14
12,test,1,0.0,2-Back,1,z,Wed Sep 18 2024 09:11:48 GMT-0500 (Central Daylight Time),678907.299999997,005_o_f_d_a.png,I,z,1291,17,1,2312.1999999955297,676595.1000000015,8000,VNB,B,15
13,test,1,0.0,2-Back,1,m,Wed Sep 18 2024 09:11:48 GMT-0500 (Central Daylight Time),681889.6999999955,004_o_m_n_a.png,I,m,1959,18,1,2979.2999999970198,678910.3999999985,8000,VNB,B,16
0,test,2,0.0,2-Back,,,Wed Sep 18 2024 09:11:48 GMT-0500 (Central Daylight Time),681889.6999999955,007_m_m_h_a.png,I,space,4672,1,1,2979.2999999970198,678910.3999999985,8000,VNB,B,0
0,test,2,0.0,2-Back,,,Wed Sep 18 2024 09:11:48 GMT-0500 (Central Daylight Time),681889.6999999955,020_y_f_n_a.png,I,space,4672,2,1,2979.2999999970198,678910.3999999985,8000,VNB,B,0
1,test,2,1.0,2-Back,1,z,Wed Sep 18 2024 09:11:48 GMT-0500 (Central Daylight Time),693852.299999997,005_o_f_h_a.png,I,z,1014,3,1,2028.5,691823.799999997,8000,VNB,B,1
2,test,2,0.0,2-Back,1,m,Wed Sep 18 2024 09:11:48 GMT-0500 (Central Daylight Time),695952.1999999955,004_o_m_d_a.png,I,m,1070,4,1,2097.0,693855.1999999955,8000,VNB,B,2
3,test,2,0.0,2-Back,1,m,Wed Sep 18 2024 09:11:48 GMT-0500 (Central Daylight Time),698201.1999999955,011_m_f_d_a.png,I,m,1227,5,1,2245.39999999851,695955.799999997,8000,VNB,B,3
4,test,2,0.0,2-Back,1,m,Wed Sep 18 2024 09:11:48 GMT-0500 (Central Daylight Time),700134.0,016_y_m_h_a.png,I,m,913,6,1,1929.6000000014901,698204.3999999985,8000,VNB,B,4
5,test,2,0.0,2-Back,1,m,Wed Sep 18 2024 09:11:48 GMT-0500 (Central Daylight Time),702566.3999999985,005_o_f_n_a.png,I,m,1404,7,1,2428.7000000029802,700137.6999999955,8000,VNB,B,5
6,test,2,1.0,2-Back,1,z,Wed Sep 18 2024 09:11:48 GMT-0500 (Central Daylight Time),704532.6999999955,004_o_m_h_a.png,I,z,948,8,1,1962.7999999970198,702569.8999999985,8000,VNB,B,6
7,test,2,0.0,2-Back,1,m,Wed Sep 18 2024 09:11:48 GMT-0500 (Central Daylight Time),706965.3999999985,020_y_f_d_a.png,I,m,1406,9,1,2429.0,704536.3999999985,8000,VNB,B,7
8,test,2,0.0,2-Back,1,m,Wed Sep 18 2024 09:11:48 GMT-0500 (Central Daylight Time),709447.6999999955,016_y_m_d_a.png,I,m,1453,10,1,2478.5,706969.1999999955,8000,VNB,B,8
8,test,2,0.0,2-Back,0,m,Wed Sep 18 2024 09:11:48 GMT-0500 (Central Daylight Time),711513.6999999955,007_m_m_n_a.png,I,z,907,11,1,2062.0999999940395,709451.6000000015,8000,VNB,B,9
9,test,2,0.0,2-Back,1,m,Wed Sep 18 2024 09:11:48 GMT-0500 (Central Daylight Time),714229.3999999985,011_m_f_h_a.png,I,m,1697,12,1,2712.60000000149,711516.799999997,8000,VNB,B,10
9,test,2,1.0,2-Back,0,z,Wed Sep 18 2024 09:11:48 GMT-0500 (Central Daylight Time),716929.8999999985,004_o_m_n_a.png,I,m,1669,13,1,2696.60000000149,714233.299999997,8000,VNB,B,11
10,test,2,0.0,2-Back,1,m,Wed Sep 18 2024 09:11:48 GMT-0500 (Central Daylight Time),719044.6999999955,005_o_f_d_a.png,I,m,1090,14,1,2110.6999999955297,716934.0,8000,VNB,B,12
11,test,2,0.0,2-Back,1,m,Wed Sep 18 2024 09:11:48 GMT-0500 (Central Daylight Time),721677.1999999955,020_y_f_h_a.png,I,m,1606,15,1,2629.0,719048.1999999955,8000,VNB,B,13
11,test,2,0.0,2-Back,0,z,Wed Sep 18 2024 09:11:48 GMT-0500 (Central Daylight Time),723510.1000000015,007_m_m_d_a.png,I,m,813,16,1,1828.9000000059605,721681.1999999955,8000,VNB,B,14
12,test,2,0.0,2-Back,1,m,Wed Sep 18 2024 09:11:48 GMT-0500 (Central Daylight Time),725309.299999997,016_y_m_n_a.png,I,m,779,17,1,1795.7999999970198,723513.5,8000,VNB,B,15
13,test,2,1.0,2-Back,1,m,Wed Sep 18 2024 09:11:48 GMT-0500 (Central Daylight Time),727708.5,011_m_f_n_a.png,I,m,1381,18,1,2395.60000000149,725312.8999999985,8000,VNB,B,16
0,test,3,1.0,2-Back,,,Wed Sep 18 2024 09:11:48 GMT-0500 (Central Daylight Time),727708.5,004_o_m_n_a.png,I,space,2454,1,1,2395.60000000149,725312.8999999985,8000,VNB,B,0
0,test,3,1.0,2-Back,,,Wed Sep 18 2024 09:11:48 GMT-0500 (Central Daylight Time),727708.5,005_o_f_d_a.png,I,space,2454,2,1,2395.60000000149,725312.8999999985,8000,VNB,B,0
1,test,3,0.0,2-Back,1,m,Wed Sep 18 2024 09:11:48 GMT-0500 (Central Daylight Time),737405.6000000015,020_y_f_h_a.png,I,m,980,3,1,1995.1000000014901,735410.5,8000,VNB,B,1
1,test,3,0.0,2-Back,0,z,Wed Sep 18 2024 09:11:48 GMT-0500 (Central Daylight Time),740438.1999999955,011_m_f_d_a.png,I,None,2016,4,1,3028.89999999851,737409.299999997,8000,VNB,B,2
2,test,3,1.0,2-Back,1,m,Wed Sep 18 2024 09:11:48 GMT-0500 (Central Daylight Time),742387.3999999985,016_y_m_n_a.png,I,m,932,5,1,1945.7000000029802,740441.6999999955,8000,VNB,B,3
3,test,3,0.0,2-Back,1,m,Wed Sep 18 2024 09:11:48 GMT-0500 (Central Daylight Time),745186.3999999985,004_o_m_h_a.png,I,m,1767,6,1,2795.39999999851,742391.0,8000,VNB,B,4
3,test,3,0.0,2-Back,0,z,Wed Sep 18 2024 09:11:48 GMT-0500 (Central Daylight Time),747385.799999997,020_y_f_n_a.png,I,m,1176,7,1,2196.2999999970198,745189.5,8000,VNB,B,5
4,test,3,1.0,2-Back,1,m,Wed Sep 18 2024 09:11:48 GMT-0500 (Central Daylight Time),749885.1000000015,007_m_m_d_a.png,I,m,1480,8,1,2495.7000000029802,747389.3999999985,8000,VNB,B,6
5,test,3,0.0,2-Back,1,m,Wed Sep 18 2024 09:11:48 GMT-0500 (Central Daylight Time),752384.299999997,016_y_m_d_a.png,I,m,1477,9,1,2495.1999999955297,749889.1000000015,8000,VNB,B,7
6,test,3,0.0,2-Back,1,m,Wed Sep 18 2024 09:11:48 GMT-0500 (Central Daylight Time),754317.1999999955,005_o_f_h_a.png,I,m,890,10,1,1929.3999999985099,752387.799999997,8000,VNB,B,8
7,test,3,1.0,2-Back,1,m,Wed Sep 18 2024 09:11:48 GMT-0500 (Central Daylight Time),756249.6999999955,011_m_f_n_a.png,I,m,901,11,1,1929.2999999970198,754320.3999999985,8000,VNB,B,9
7,test,3,1.0,2-Back,0,z,Wed Sep 18 2024 09:11:48 GMT-0500 (Central Daylight Time),758265.6999999955,007_m_m_h_a.png,I,m,976,12,1,2012.8999999985099,756252.799999997,8000,VNB,B,10
8,test,3,0.0,2-Back,1,m,Wed Sep 18 2024 09:11:48 GMT-0500 (Central Daylight Time),760048.6999999955,020_y_f_d_a.png,I,m,736,13,1,1779.3999999985099,758269.299999997,8000,VNB,B,11
9,test,3,0.0,2-Back,1,m,Wed Sep 18 2024 09:11:48 GMT-0500 (Central Daylight Time),762314.6000000015,005_o_f_n_a.png,I,m,1217,14,1,2262.0,760052.6000000015,8000,VNB,B,12
9,test,3,0.0,2-Back,0,z,Wed Sep 18 2024 09:11:48 GMT-0500 (Central Daylight Time),764580.6000000015,004_o_m_d_a.png,I,m,1223,15,1,2262.4000000059605,762318.1999999955,8000,VNB,B,13
10,test,3,1.0,2-Back,1,m,Wed Sep 18 2024 09:11:48 GMT-0500 (Central Daylight Time),766779.799999997,011_m_f_h_a.png,I,m,1174,16,1,2196.1999999955297,764583.6000000015,8000,VNB,B,14
11,test,3,0.0,2-Back,1,m,Wed Sep 18 2024 09:11:48 GMT-0500 (Central Daylight Time),769746.0,007_m_m_n_a.png,I,m,1926,17,1,2962.5,766783.5,8000,VNB,B,15
11,test,3,0.0,2-Back,0,z,Wed Sep 18 2024 09:11:48 GMT-0500 (Central Daylight Time),772011.299999997,016_y_m_h_a.png,I,m,1232,18,1,2261.7999999970198,769749.5,8000,VNB,B,16
0,test,4,0.0,2-Back,,,Wed Sep 18 2024 09:11:48 GMT-0500 (Central Daylight Time),772011.299999997,011_m_f_n_a.png,I,space,3111,1,1,2261.7999999970198,769749.5,8000,VNB,B,0
0,test,4,0.0,2-Back,,,Wed Sep 18 2024 09:11:48 GMT-0500 (Central Daylight Time),772011.299999997,004_o_m_n_a.png,I,space,3111,2,1,2261.7999999970198,769749.5,8000,VNB,B,0
1,test,4,1.0,2-Back,1,m,Wed Sep 18 2024 09:11:48 GMT-0500 (Central Daylight Time),782274.8999999985,016_y_m_h_a.png,I,m,888,3,1,1912.6000000014901,780362.299999997,8000,VNB,B,1
2,test,4,1.0,2-Back,1,m,Wed Sep 18 2024 09:11:48 GMT-0500 (Central Daylight Time),785074.1999999955,005_o_f_d_a.png,I,m,1775,4,1,2795.6999999955297,782278.5,8000,VNB,B,2
2,test,4,0.0,2-Back,0,z,Wed Sep 18 2024 09:11:48 GMT-0500 (Central Daylight Time),787506.3999999985,004_o_m_h_a.png,I,m,1408,5,1,2428.7000000029802,785077.6999999955,8000,VNB,B,3
3,test,4,0.0,2-Back,1,m,Wed Sep 18 2024 09:11:48 GMT-0500 (Central Daylight Time),790272.1999999955,007_m_m_n_a.png,I,m,1744,6,1,2762.39999999851,787509.799999997,8000,VNB,B,4
4,test,4,0.0,2-Back,1,m,Wed Sep 18 2024 09:11:48 GMT-0500 (Central Daylight Time),792188.5,011_m_f_d_a.png,I,m,890,7,1,1912.5,790276.0,8000,VNB,B,5
5,test,4,0.0,2-Back,1,z,Wed Sep 18 2024 09:11:48 GMT-0500 (Central Daylight Time),794287.8999999985,020_y_f_n_a.png,I,z,1078,8,1,2096.0,792191.8999999985,8000,VNB,B,6
6,test,4,1.0,2-Back,1,m,Wed Sep 18 2024 09:11:48 GMT-0500 (Central Daylight Time),796403.799999997,005_o_f_h_a.png,I,m,1083,9,1,2112.1999999955297,794291.6000000015,8000,VNB,B,7
7,test,4,0.0,2-Back,1,m,Wed Sep 18 2024 09:11:48 GMT-0500 (Central Daylight Time),798719.6000000015,007_m_m_h_a.png,I,m,1295,10,1,2311.9000000059605,796407.6999999955,8000,VNB,B,8
8,test,4,0.0,2-Back,1,m,Wed Sep 18 2024 09:11:48 GMT-0500 (Central Daylight Time),800602.5,020_y_f_d_a.png,I,m,851,11,1,1879.3000000044703,798723.1999999955,8000,VNB,B,9
9,test,4,0.0,2-Back,1,m,Wed Sep 18 2024 09:11:48 GMT-0500 (Central Daylight Time),802568.6000000015,016_y_m_n_a.png,I,m,944,12,1,1962.5,800606.1000000015,8000,VNB,B,10
9,test,4,0.0,2-Back,0,z,Wed Sep 18 2024 09:11:48 GMT-0500 (Central Daylight Time),804896.5,004_o_m_d_a.png,I,m,1165,13,1,2324.39999999851,802572.1000000015,8000,VNB,B,11
10,test,4,1.0,2-Back,1,m,Wed Sep 18 2024 09:11:48 GMT-0500 (Central Daylight Time),807083.6999999955,011_m_f_h_a.png,I,m,1157,14,1,2183.5,804900.1999999955,8000,VNB,B,12
11,test,4,1.0,2-Back,1,m,Wed Sep 18 2024 09:11:48 GMT-0500 (Central Daylight Time),809516.1999999955,020_y_f_h_a.png,I,m,1415,15,1,2428.89999999851,807087.299999997,8000,VNB,B,13
12,test,4,0.0,2-Back,1,m,Wed Sep 18 2024 09:11:48 GMT-0500 (Central Daylight Time),811399.1999999955,005_o_f_n_a.png,I,m,862,16,1,1879.3999999985099,809519.799999997,8000,VNB,B,14
13,test,4,0.0,2-Back,1,m,Wed Sep 18 2024 09:11:48 GMT-0500 (Central Daylight Time),813465.1999999955,016_y_m_d_a.png,I,m,1043,17,1,2062.1999999955297,811403.0,8000,VNB,B,15
14,test,4,1.0,2-Back,1,m,Wed Sep 18 2024 09:11:48 GMT-0500 (Central Daylight Time),815414.6000000015,007_m_m_d_a.png,I,m,929,18,1,1945.9000000059605,813468.6999999955,8000,VNB,B,16
0,test,5,1.0,2-Back,,,Wed Sep 18 2024 09:11:48 GMT-0500 (Central Daylight Time),815414.6000000015,020_y_f_d_a.png,I,space,2363,1,1,1945.9000000059605,813468.6999999955,8000,VNB,B,0
0,test,5,1.0,2-Back,,,Wed Sep 18 2024 09:11:48 GMT-0500 (Central Daylight Time),815414.6000000015,005_o_f_h_a.png,I,space,2363,2,1,1945.9000000059605,813468.6999999955,8000,VNB,B,0
0,test,5,1.0,2-Back,0,z,Wed Sep 18 2024 09:11:48 GMT-0500 (Central Daylight Time),825061.0,004_o_m_d_a.png,I,m,1013,3,1,2028.7000000029802,823032.299999997,8000,VNB,B,1
1,test,5,1.0,2-Back,1,m,Wed Sep 18 2024 09:11:48 GMT-0500 (Central Daylight Time),826961.0,011_m_f_n_a.png,I,m,869,4,1,1896.3000000044703,825064.6999999955,8000,VNB,B,2
2,test,5,0.0,2-Back,1,m,Wed Sep 18 2024 09:11:48 GMT-0500 (Central Daylight Time),829210.1999999955,007_m_m_h_a.png,I,m,1226,5,1,2246.1999999955297,826964.0,8000,VNB,B,3
2,test,5,0.0,2-Back,0,z,Wed Sep 18 2024 09:11:48 GMT-0500 (Central Daylight Time),831442.799999997,020_y_f_n_a.png,I,m,1208,6,1,2229.10000000149,829213.6999999955,8000,VNB,B,4
3,test,5,0.0,2-Back,1,m,Wed Sep 18 2024 09:11:48 GMT-0500 (Central Daylight Time),833675.3999999985,005_o_f_d_a.png,I,m,1208,7,1,2228.7999999970198,831446.6000000015,8000,VNB,B,5
4,test,5,0.0,2-Back,1,m,Wed Sep 18 2024 09:11:48 GMT-0500 (Central Daylight Time),835608.299999997,004_o_m_h_a.png,I,m,903,8,1,1929.3999999985099,833678.8999999985,8000,VNB,B,6
4,test,5,1.0,2-Back,0,z,Wed Sep 18 2024 09:11:48 GMT-0500 (Central Daylight Time),837674.1999999955,011_m_f_d_a.png,I,m,1042,9,1,2062.39999999851,835611.799999997,8000,VNB,B,7
5,test,5,0.0,2-Back,1,m,Wed Sep 18 2024 09:11:48 GMT-0500 (Central Daylight Time),839591.1999999955,016_y_m_n_a.png,I,m,888,10,1,1913.2999999970198,837677.8999999985,8000,VNB,B,8
6,test,5,0.0,2-Back,1,m,Wed Sep 18 2024 09:11:48 GMT-0500 (Central Daylight Time),841906.0,007_m_m_n_a.png,I,m,1284,11,1,2310.8000000044703,839595.1999999955,8000,VNB,B,9
7,test,5,0.0,2-Back,1,m,Wed Sep 18 2024 09:11:48 GMT-0500 (Central Daylight Time),844090.0,020_y_f_h_a.png,I,m,1160,12,1,2180.89999999851,841909.1000000015,8000,VNB,B,10
8,test,5,0.0,2-Back,1,m,Wed Sep 18 2024 09:11:48 GMT-0500 (Central Daylight Time),846804.6999999955,016_y_m_d_a.png,I,m,1698,13,1,2711.0,844093.6999999955,8000,VNB,B,11
8,test,5,1.0,2-Back,0,z,Wed Sep 18 2024 09:11:48 GMT-0500 (Central Daylight Time),849137.5,011_m_f_h_a.png,I,m,1310,14,1,2329.3000000044703,846808.1999999955,8000,VNB,B,12
9,test,5,0.0,2-Back,1,m,Wed Sep 18 2024 09:11:48 GMT-0500 (Central Daylight Time),851469.799999997,004_o_m_n_a.png,I,m,1313,15,1,2328.6999999955297,849141.1000000015,8000,VNB,B,13
10,test,5,0.0,2-Back,1,m,Wed Sep 18 2024 09:11:48 GMT-0500 (Central Daylight Time),853602.6000000015,007_m_m_d_a.png,I,m,1100,16,1,2128.8000000044703,851473.799999997,8000,VNB,B,14
10,test,5,0.0,2-Back,0,z,Wed Sep 18 2024 09:11:48 GMT-0500 (Central Daylight Time),856385.1000000015,005_o_f_n_a.png,I,m,1752,17,1,2779.5,853605.6000000015,8000,VNB,B,15
11,test,5,1.0,2-Back,1,m,Wed Sep 18 2024 09:11:48 GMT-0500 (Central Daylight Time),858567.5,016_y_m_h_a.png,I,m,1162,18,1,2178.7000000029802,856388.799999997,8000,VNB,B,16
