acc_sum,block,block_c,change,condition,correct,correct_response,datetime,endtime,face,project,response,response_time,row_sel,session_number,start_end,starttime,subject_id,task,task_vers,trial
0,prac,1,,1-Back,,,Wed Nov 20 2024 14:09:13 GMT-0600 (Central Standard Time),,124_o_f_d_a.png,I,space,14004,1,2,,,8000,VNB,A,0
1,prac,1,0.0,1-Back,1,m,Wed Nov 20 2024 14:09:13 GMT-0600 (Central Standard Time),137718.3999999985,071_y_f_n_a.png,I,m,1623,2,2,2423.1999999955297,135295.20000000298,8000,VNB,A,1
2,prac,1,0.0,1-Back,1,m,Wed Nov 20 2024 14:09:13 GMT-0600 (Central Standard Time),139518.0,165_m_m_h_a.png,I,m,984,3,2,1791.1000000014901,137726.8999999985,8000,VNB,A,2
3,prac,1,0.0,1-Back,1,m,Wed Nov 20 2024 14:09:13 GMT-0600 (Central Standard Time),141317.5,109_y_m_d_a.png,I,m,982,4,2,1791.7999999970198,139525.70000000298,8000,VNB,A,3
4,prac,1,0.0,1-Back,1,m,Wed Nov 20 2024 14:09:13 GMT-0600 (Central Standard Time),143017.79999999702,124_o_f_n_a.png,I,m,852,5,2,1692.0999999940395,141325.70000000298,8000,VNB,A,4
5,prac,1,1.0,1-Back,1,z,Wed Nov 20 2024 14:09:13 GMT-0600 (Central Standard Time),144832.70000000298,109_y_m_n_a.png,I,z,1001,6,2,1807.0,143025.70000000298,8000,VNB,A,5
6,prac,1,0.0,1-Back,1,m,Wed Nov 20 2024 14:09:13 GMT-0600 (Central Standard Time),146465.6000000015,039_o_m_h_a.png,I,m,832,7,2,1624.3000000044703,144841.29999999702,8000,VNB,A,6
6,prac,1,0.0,1-Back,0,m,Wed Nov 20 2024 14:09:13 GMT-0600 (Central Standard Time),148198.5,139_m_f_d_a.png,I,z,914,8,2,1724.0,146474.5,8000,VNB,A,7
7,prac,1,1.0,1-Back,1,z,Wed Nov 20 2024 14:09:13 GMT-0600 (Central Standard Time),150047.70000000298,071_y_f_d_a.png,I,z,1035,9,2,1841.1000000014901,148206.6000000015,8000,VNB,A,8
8,prac,1,0.0,1-Back,1,m,Wed Nov 20 2024 14:09:13 GMT-0600 (Central Standard Time),151830.5,165_m_m_n_a.png,I,m,977,10,2,1775.2999999970198,150055.20000000298,8000,VNB,A,9
9,prac,1,0.0,1-Back,1,m,Wed Nov 20 2024 14:09:13 GMT-0600 (Central Standard Time),153579.79999999702,124_o_f_h_a.png,I,m,927,11,2,1740.5999999940395,151839.20000000298,8000,VNB,A,10
10,prac,1,0.0,1-Back,1,m,Wed Nov 20 2024 14:09:13 GMT-0600 (Central Standard Time),155179.6000000015,109_y_m_d_a.png,I,m,814,12,2,1591.5,153588.1000000015,8000,VNB,A,11
0,test,1,0.0,1-Back,,,Wed Nov 20 2024 14:09:13 GMT-0600 (Central Standard Time),155179.6000000015,071_y_f_d_a.png,I,space,14265,1,2,1591.5,153588.1000000015,8000,VNB,A,0
1,test,1,0.0,1-Back,1,m,Wed Nov 20 2024 14:09:13 GMT-0600 (Central Standard Time),182371.0,139_m_f_n_a.png,I,m,1140,2,2,2164.5,180206.5,8000,VNB,A,1
2,test,1,0.0,1-Back,1,m,Wed Nov 20 2024 14:09:13 GMT-0600 (Central Standard Time),184220.5,039_o_m_h_a.png,I,m,823,3,2,1841.3999999985099,182379.1000000015,8000,VNB,A,2
3,test,1,1.0,1-Back,1,z,Wed Nov 20 2024 14:09:13 GMT-0600 (Central Standard Time),186053.1000000015,165_m_m_h_a.png,I,z,813,4,2,1825.6000000014901,184227.5,8000,VNB,A,3
4,test,1,0.0,1-Back,1,m,Wed Nov 20 2024 14:09:13 GMT-0600 (Central Standard Time),187802.6000000015,124_o_f_n_a.png,I,m,716,5,2,1742.0,186060.6000000015,8000,VNB,A,4
4,test,1,0.0,1-Back,0,m,Wed Nov 20 2024 14:09:13 GMT-0600 (Central Standard Time),189851.8999999985,109_y_m_d_a.png,I,z,1023,6,2,2042.2999999970198,187809.6000000015,8000,VNB,A,5
5,test,1,1.0,1-Back,1,z,Wed Nov 20 2024 14:09:13 GMT-0600 (Central Standard Time),191684.6000000015,139_m_f_d_a.png,I,z,805,7,2,1825.2000000029802,189859.3999999985,8000,VNB,A,6
6,test,1,0.0,1-Back,1,m,Wed Nov 20 2024 14:09:13 GMT-0600 (Central Standard Time),193384.1000000015,071_y_f_h_a.png,I,m,669,8,2,1692.5,191691.6000000015,8000,VNB,A,7
7,test,1,0.0,1-Back,1,m,Wed Nov 20 2024 14:09:13 GMT-0600 (Central Standard Time),195266.6000000015,039_o_m_n_a.png,I,m,865,9,2,1875.1000000014901,193391.5,8000,VNB,A,8
8,test,1,0.0,1-Back,1,m,Wed Nov 20 2024 14:09:13 GMT-0600 (Central Standard Time),197199.5,109_y_m_h_a.png,I,m,910,10,2,1925.7999999970198,195273.70000000298,8000,VNB,A,9
9,test,1,0.0,1-Back,1,m,Wed Nov 20 2024 14:09:13 GMT-0600 (Central Standard Time),198965.70000000298,039_o_m_d_a.png,I,m,746,11,2,1758.8000000044703,197206.8999999985,8000,VNB,A,10
10,test,1,1.0,1-Back,1,z,Wed Nov 20 2024 14:09:13 GMT-0600 (Central Standard Time),200748.70000000298,124_o_f_d_a.png,I,z,755,12,2,1776.4000000059605,198972.29999999702,8000,VNB,A,11
11,test,1,0.0,1-Back,1,m,Wed Nov 20 2024 14:09:13 GMT-0600 (Central Standard Time),202514.3999999985,165_m_m_n_a.png,I,m,734,13,2,1759.1999999955297,200755.20000000298,8000,VNB,A,12
12,test,1,1.0,1-Back,1,z,Wed Nov 20 2024 14:09:13 GMT-0600 (Central Standard Time),204380.70000000298,071_y_f_n_a.png,I,z,847,14,2,1859.5,202521.20000000298,8000,VNB,A,13
13,test,1,0.0,1-Back,1,m,Wed Nov 20 2024 14:09:13 GMT-0600 (Central Standard Time),206197.79999999702,139_m_f_h_a.png,I,m,797,15,2,1810.6999999955297,204387.1000000015,8000,VNB,A,14
14,test,1,0.0,1-Back,1,m,Wed Nov 20 2024 14:09:13 GMT-0600 (Central Standard Time),208179.3999999985,165_m_m_d_a.png,I,m,964,16,2,1975.0,206204.3999999985,8000,VNB,A,15
15,test,1,0.0,1-Back,1,m,Wed Nov 20 2024 14:09:13 GMT-0600 (Central Standard Time),209995.6000000015,109_y_m_n_a.png,I,m,798,17,2,1809.6000000014901,208186.0,8000,VNB,A,16
16,test,1,0.0,1-Back,1,m,Wed Nov 20 2024 14:09:13 GMT-0600 (Central Standard Time),211895.0,124_o_f_h_a.png,I,m,878,18,2,1892.2999999970198,210002.70000000298,8000,VNB,A,17
0,test,2,0.0,1-Back,,,Wed Nov 20 2024 14:09:13 GMT-0600 (Central Standard Time),211895.0,109_y_m_n_a.png,I,space,2074,1,2,1892.2999999970198,210002.70000000298,8000,VNB,A,0
1,test,2,0.0,1-Back,1,m,Wed Nov 20 2024 14:09:13 GMT-0600 (Central Standard Time),217976.5,071_y_f_h_a.png,I,m,952,2,2,1975.7999999970198,216000.70000000298,8000,VNB,A,1
2,test,2,1.0,1-Back,1,m,Wed Nov 20 2024 14:09:13 GMT-0600 (Central Standard Time),219843.6000000015,039_o_m_n_a.png,I,m,841,3,2,1860.3999999985099,217983.20000000298,8000,VNB,A,2
3,test,2,0.0,1-Back,1,m,Wed Nov 20 2024 14:09:13 GMT-0600 (Central Standard Time),222008.70000000298,139_m_f_d_a.png,I,m,1143,4,2,2157.60000000149,219851.1000000015,8000,VNB,A,3
4,test,2,0.0,1-Back,1,z,Wed Nov 20 2024 14:09:13 GMT-0600 (Central Standard Time),223707.8999999985,165_m_m_d_a.png,I,z,681,5,2,1691.8999999985099,222016.0,8000,VNB,A,4
5,test,2,0.0,1-Back,1,m,Wed Nov 20 2024 14:09:13 GMT-0600 (Central Standard Time),225590.3999999985,109_y_m_h_a.png,I,m,853,6,2,1875.1000000014901,223715.29999999702,8000,VNB,A,5
6,test,2,1.0,1-Back,1,z,Wed Nov 20 2024 14:09:13 GMT-0600 (Central Standard Time),227573.29999999702,124_o_f_h_a.png,I,z,955,7,2,1975.1999999955297,225598.1000000015,8000,VNB,A,6
7,test,2,0.0,1-Back,1,m,Wed Nov 20 2024 14:09:13 GMT-0600 (Central Standard Time),229422.79999999702,139_m_f_n_a.png,I,m,820,8,2,1842.5999999940395,227580.20000000298,8000,VNB,A,7
8,test,2,0.0,1-Back,1,m,Wed Nov 20 2024 14:09:13 GMT-0600 (Central Standard Time),231389.20000000298,071_y_f_d_a.png,I,m,938,9,2,1958.7000000029802,229430.5,8000,VNB,A,8
9,test,2,0.0,1-Back,1,m,Wed Nov 20 2024 14:09:13 GMT-0600 (Central Standard Time),233355.1000000015,165_m_m_n_a.png,I,m,940,10,2,1958.3999999985099,231396.70000000298,8000,VNB,A,9
10,test,2,1.0,1-Back,1,m,Wed Nov 20 2024 14:09:13 GMT-0600 (Central Standard Time),235187.6000000015,139_m_f_h_a.png,I,m,806,11,2,1825.5,233362.1000000015,8000,VNB,A,10
11,test,2,0.0,1-Back,1,z,Wed Nov 20 2024 14:09:13 GMT-0600 (Central Standard Time),236970.70000000298,039_o_m_h_a.png,I,z,750,12,2,1775.6000000014901,235195.1000000015,8000,VNB,A,11
12,test,2,0.0,1-Back,1,m,Wed Nov 20 2024 14:09:13 GMT-0600 (Central Standard Time),238736.5,109_y_m_d_a.png,I,m,743,13,2,1758.2999999970198,236978.20000000298,8000,VNB,A,12
13,test,2,0.0,1-Back,1,m,Wed Nov 20 2024 14:09:13 GMT-0600 (Central Standard Time),240702.5,124_o_f_n_a.png,I,m,945,14,2,1958.6000000014901,238743.8999999985,8000,VNB,A,13
14,test,2,0.0,1-Back,1,z,Wed Nov 20 2024 14:09:13 GMT-0600 (Central Standard Time),242835.29999999702,071_y_f_n_a.png,I,z,1107,15,2,2125.5999999940395,240709.70000000298,8000,VNB,A,14
15,test,2,1.0,1-Back,1,m,Wed Nov 20 2024 14:09:13 GMT-0600 (Central Standard Time),244701.3999999985,165_m_m_h_a.png,I,m,838,16,2,1859.0,242842.3999999985,8000,VNB,A,15
16,test,2,0.0,1-Back,1,m,Wed Nov 20 2024 14:09:13 GMT-0600 (Central Standard Time),246567.29999999702,124_o_f_d_a.png,I,m,836,17,2,1858.3999999985099,244708.8999999985,8000,VNB,A,16
17,test,2,1.0,1-Back,1,z,Wed Nov 20 2024 14:09:13 GMT-0600 (Central Standard Time),248350.20000000298,039_o_m_d_a.png,I,z,754,18,2,1775.2000000029802,246575.0,8000,VNB,A,17
0,test,3,1.0,1-Back,,,Wed Nov 20 2024 14:09:13 GMT-0600 (Central Standard Time),248350.20000000298,124_o_f_h_a.png,I,space,2019,1,2,1775.2000000029802,246575.0,8000,VNB,A,0
1,test,3,0.0,1-Back,1,m,Wed Nov 20 2024 14:09:13 GMT-0600 (Central Standard Time),254231.5,139_m_f_d_a.png,I,m,769,2,2,1792.0,252439.5,8000,VNB,A,1
2,test,3,1.0,1-Back,1,m,Wed Nov 20 2024 14:09:13 GMT-0600 (Central Standard Time),256114.6000000015,165_m_m_n_a.png,I,m,865,3,2,1875.0,254239.6000000015,8000,VNB,A,2
3,test,3,0.0,1-Back,1,z,Wed Nov 20 2024 14:09:13 GMT-0600 (Central Standard Time),258030.5,124_o_f_n_a.png,I,z,895,4,2,1909.0,256121.5,8000,VNB,A,3
4,test,3,1.0,1-Back,1,m,Wed Nov 20 2024 14:09:13 GMT-0600 (Central Standard Time),259964.29999999702,039_o_m_d_a.png,I,m,915,5,2,1926.7999999970198,258037.5,8000,VNB,A,4
5,test,3,0.0,1-Back,1,m,Wed Nov 20 2024 14:09:13 GMT-0600 (Central Standard Time),261862.6000000015,071_y_f_h_a.png,I,m,870,6,2,1891.5,259971.1000000015,8000,VNB,A,5
6,test,3,0.0,1-Back,1,z,Wed Nov 20 2024 14:09:13 GMT-0600 (Central Standard Time),263578.6000000015,109_y_m_h_a.png,I,z,699,7,2,1709.3000000044703,261869.29999999702,8000,VNB,A,6
7,test,3,0.0,1-Back,1,m,Wed Nov 20 2024 14:09:13 GMT-0600 (Central Standard Time),265328.200000003,139_m_f_n_a.png,I,m,719,8,2,1743.0,263585.200000003,8000,VNB,A,7
8,test,3,0.0,1-Back,1,m,Wed Nov 20 2024 14:09:13 GMT-0600 (Central Standard Time),267277.5,071_y_f_d_a.png,I,m,921,9,2,1942.2000000029802,265335.299999997,8000,VNB,A,8
9,test,3,1.0,1-Back,1,m,Wed Nov 20 2024 14:09:13 GMT-0600 (Central Standard Time),269577.0,039_o_m_n_a.png,I,m,1268,10,2,2291.7999999970198,267285.200000003,8000,VNB,A,9
10,test,3,0.0,1-Back,1,m,Wed Nov 20 2024 14:09:13 GMT-0600 (Central Standard Time),271442.799999997,165_m_m_h_a.png,I,m,848,11,2,1857.5999999940395,269585.200000003,8000,VNB,A,10
11,test,3,0.0,1-Back,1,z,Wed Nov 20 2024 14:09:13 GMT-0600 (Central Standard Time),273310.200000003,139_m_f_h_a.png,I,z,838,12,2,1860.3000000044703,271449.8999999985,8000,VNB,A,11
12,test,3,1.0,1-Back,1,m,Wed Nov 20 2024 14:09:13 GMT-0600 (Central Standard Time),275158.5,124_o_f_d_a.png,I,m,792,13,2,1841.2999999970198,273317.200000003,8000,VNB,A,12
13,test,3,0.0,1-Back,1,z,Wed Nov 20 2024 14:09:13 GMT-0600 (Central Standard Time),277191.299999997,165_m_m_d_a.png,I,z,1011,14,2,2025.8999999985099,275165.3999999985,8000,VNB,A,13
14,test,3,0.0,1-Back,1,m,Wed Nov 20 2024 14:09:13 GMT-0600 (Central Standard Time),279007.5,109_y_m_n_a.png,I,m,794,15,2,1808.8999999985099,277198.6000000015,8000,VNB,A,14
15,test,3,1.0,1-Back,1,m,Wed Nov 20 2024 14:09:13 GMT-0600 (Central Standard Time),280923.1000000015,039_o_m_h_a.png,I,m,898,16,2,1908.5,279014.6000000015,8000,VNB,A,15
16,test,3,0.0,1-Back,1,m,Wed Nov 20 2024 14:09:13 GMT-0600 (Central Standard Time),282906.1000000015,109_y_m_d_a.png,I,m,950,17,2,1975.3999999985099,280930.700000003,8000,VNB,A,16
17,test,3,1.0,1-Back,1,m,Wed Nov 20 2024 14:09:13 GMT-0600 (Central Standard Time),284922.299999997,071_y_f_n_a.png,I,m,991,18,2,2008.8999999985099,282913.3999999985,8000,VNB,A,17
0,test,4,1.0,1-Back,,,Wed Nov 20 2024 14:09:13 GMT-0600 (Central Standard Time),284922.299999997,165_m_m_d_a.png,I,space,1527,1,2,2008.8999999985099,282913.3999999985,8000,VNB,A,0
0,test,4,0.0,1-Back,0,z,Wed Nov 20 2024 14:09:13 GMT-0600 (Central Standard Time),290936.8999999985,039_o_m_d_a.png,I,m,1426,2,2,2442.1999999955297,288494.700000003,8000,VNB,A,1
1,test,4,0.0,1-Back,1,m,Wed Nov 20 2024 14:09:13 GMT-0600 (Central Standard Time),292886.299999997,109_y_m_h_a.png,I,m,929,3,2,1942.3999999985099,290943.8999999985,8000,VNB,A,2
2,test,4,0.0,1-Back,1,m,Wed Nov 20 2024 14:09:13 GMT-0600 (Central Standard Time),294919.1000000015,139_m_f_n_a.png,I,m,1003,4,2,2025.8000000044703,292893.299999997,8000,VNB,A,3
3,test,4,1.0,1-Back,1,m,Wed Nov 20 2024 14:09:13 GMT-0600 (Central Standard Time),296801.799999997,124_o_f_h_a.png,I,m,858,5,2,1875.8999999985099,294925.8999999985,8000,VNB,A,4
4,test,4,0.0,1-Back,1,m,Wed Nov 20 2024 14:09:13 GMT-0600 (Central Standard Time),298817.8999999985,165_m_m_n_a.png,I,m,879,6,2,2008.8999999985099,296809.0,8000,VNB,A,5
5,test,4,0.0,1-Back,1,m,Wed Nov 20 2024 14:09:13 GMT-0600 (Central Standard Time),300866.8999999985,109_y_m_d_a.png,I,m,1031,7,2,2042.6000000014901,298824.299999997,8000,VNB,A,6
6,test,4,1.0,1-Back,1,z,Wed Nov 20 2024 14:09:13 GMT-0600 (Central Standard Time),302666.5,071_y_f_d_a.png,I,z,782,8,2,1792.7999999970198,300873.700000003,8000,VNB,A,7
7,test,4,0.0,1-Back,1,m,Wed Nov 20 2024 14:09:13 GMT-0600 (Central Standard Time),304332.6000000015,139_m_f_h_a.png,I,m,647,9,2,1659.1000000014901,302673.5,8000,VNB,A,8
8,test,4,0.0,1-Back,1,z,Wed Nov 20 2024 14:09:13 GMT-0600 (Central Standard Time),306482.0,039_o_m_h_a.png,I,z,1117,10,2,2142.2999999970198,304339.700000003,8000,VNB,A,9
9,test,4,1.0,1-Back,1,m,Wed Nov 20 2024 14:09:13 GMT-0600 (Central Standard Time),308514.5,124_o_f_n_a.png,I,m,1007,11,2,2024.3999999985099,306490.1000000015,8000,VNB,A,10
10,test,4,0.0,1-Back,1,m,Wed Nov 20 2024 14:09:13 GMT-0600 (Central Standard Time),310530.8999999985,139_m_f_d_a.png,I,m,984,12,2,2009.7999999970198,308521.1000000015,8000,VNB,A,11
11,test,4,0.0,1-Back,1,m,Wed Nov 20 2024 14:09:13 GMT-0600 (Central Standard Time),312563.200000003,071_y_f_n_a.png,I,m,1014,13,2,2025.4000000059605,310537.799999997,8000,VNB,A,12
12,test,4,0.0,1-Back,1,m,Wed Nov 20 2024 14:09:13 GMT-0600 (Central Standard Time),314496.200000003,124_o_f_d_a.png,I,m,902,14,2,1925.6000000014901,312570.6000000015,8000,VNB,A,13
13,test,4,0.0,1-Back,1,m,Wed Nov 20 2024 14:09:13 GMT-0600 (Central Standard Time),316428.799999997,071_y_f_h_a.png,I,m,905,15,2,1925.8999999985099,314502.8999999985,8000,VNB,A,14
14,test,4,1.0,1-Back,1,z,Wed Nov 20 2024 14:09:13 GMT-0600 (Central Standard Time),318262.700000003,165_m_m_h_a.png,I,z,813,16,2,1826.1000000014901,316436.6000000015,8000,VNB,A,15
15,test,4,0.0,1-Back,1,m,Wed Nov 20 2024 14:09:13 GMT-0600 (Central Standard Time),320027.799999997,039_o_m_n_a.png,I,m,748,17,2,1757.3999999985099,318270.3999999985,8000,VNB,A,16
16,test,4,1.0,1-Back,1,z,Wed Nov 20 2024 14:09:13 GMT-0600 (Central Standard Time),322010.5,109_y_m_n_a.png,I,z,966,18,2,1976.1000000014901,320034.3999999985,8000,VNB,A,17
0,test,5,1.0,1-Back,,,Wed Nov 20 2024 14:09:13 GMT-0600 (Central Standard Time),322010.5,039_o_m_n_a.png,I,space,2327,1,2,1976.1000000014901,320034.3999999985,8000,VNB,A,0
1,test,5,1.0,1-Back,1,m,Wed Nov 20 2024 14:09:13 GMT-0600 (Central Standard Time),328258.299999997,124_o_f_h_a.png,I,m,866,2,2,1892.2999999970198,326366.0,8000,VNB,A,1
2,test,5,0.0,1-Back,1,m,Wed Nov 20 2024 14:09:13 GMT-0600 (Central Standard Time),330091.200000003,109_y_m_d_a.png,I,m,807,3,2,1826.2000000029802,328265.0,8000,VNB,A,2
3,test,5,0.0,1-Back,1,z,Wed Nov 20 2024 14:09:13 GMT-0600 (Central Standard Time),332240.6000000015,039_o_m_d_a.png,I,z,1126,4,2,2142.60000000149,330098.0,8000,VNB,A,3
4,test,5,0.0,1-Back,1,m,Wed Nov 20 2024 14:09:13 GMT-0600 (Central Standard Time),334006.700000003,139_m_f_h_a.png,I,m,737,5,2,1757.9000000059605,332248.799999997,8000,VNB,A,4
5,test,5,0.0,1-Back,1,m,Wed Nov 20 2024 14:09:13 GMT-0600 (Central Standard Time),336055.8999999985,071_y_f_n_a.png,I,m,1027,6,2,2042.2999999970198,334013.6000000015,8000,VNB,A,5
6,test,5,1.0,1-Back,1,z,Wed Nov 20 2024 14:09:13 GMT-0600 (Central Standard Time),338188.6000000015,124_o_f_n_a.png,I,z,1105,7,2,2125.10000000149,336063.5,8000,VNB,A,6
7,test,5,0.0,1-Back,1,m,Wed Nov 20 2024 14:09:13 GMT-0600 (Central Standard Time),340271.3999999985,139_m_f_d_a.png,I,m,1053,8,2,2076.1999999955297,338195.200000003,8000,VNB,A,7
8,test,5,0.0,1-Back,1,m,Wed Nov 20 2024 14:09:13 GMT-0600 (Central Standard Time),342170.700000003,109_y_m_h_a.png,I,m,866,9,2,1892.3000000044703,340278.3999999985,8000,VNB,A,8
9,test,5,0.0,1-Back,1,m,Wed Nov 20 2024 14:09:13 GMT-0600 (Central Standard Time),344120.299999997,071_y_f_d_a.png,I,m,927,10,2,1942.5,342177.799999997,8000,VNB,A,9
10,test,5,0.0,1-Back,1,m,Wed Nov 20 2024 14:09:13 GMT-0600 (Central Standard Time),346019.6000000015,165_m_m_n_a.png,I,m,872,11,2,1892.3999999985099,344127.200000003,8000,VNB,A,10
11,test,5,1.0,1-Back,1,z,Wed Nov 20 2024 14:09:13 GMT-0600 (Central Standard Time),347835.6000000015,139_m_f_n_a.png,I,z,798,12,2,1808.8000000044703,346026.799999997,8000,VNB,A,11
12,test,5,0.0,1-Back,1,m,Wed Nov 20 2024 14:09:13 GMT-0600 (Central Standard Time),349668.5,039_o_m_h_a.png,I,m,814,13,2,1826.2000000029802,347842.299999997,8000,VNB,A,12
13,test,5,0.0,1-Back,1,z,Wed Nov 20 2024 14:09:13 GMT-0600 (Central Standard Time),351651.200000003,165_m_m_h_a.png,I,z,957,14,2,1975.6000000014901,349675.6000000015,8000,VNB,A,13
14,test,5,1.0,1-Back,1,m,Wed Nov 20 2024 14:09:13 GMT-0600 (Central Standard Time),353367.200000003,124_o_f_d_a.png,I,m,694,15,2,1708.8000000044703,351658.3999999985,8000,VNB,A,14
15,test,5,0.0,1-Back,1,m,Wed Nov 20 2024 14:09:13 GMT-0600 (Central Standard Time),355266.700000003,109_y_m_n_a.png,I,m,874,16,2,1892.4000000059605,353374.299999997,8000,VNB,A,15
16,test,5,0.0,1-Back,1,m,Wed Nov 20 2024 14:09:13 GMT-0600 (Central Standard Time),357116.1000000015,071_y_f_h_a.png,I,m,823,17,2,1842.3999999985099,355273.700000003,8000,VNB,A,16
17,test,5,0.0,1-Back,1,m,Wed Nov 20 2024 14:09:13 GMT-0600 (Central Standard Time),359115.5,165_m_m_d_a.png,I,m,973,18,2,1992.5,357123.0,8000,VNB,A,17
0,prac,1,0.0,2-Back,,,Wed Nov 20 2024 14:09:13 GMT-0600 (Central Standard Time),359115.5,139_m_f_n_a.png,I,space,10920,1,2,1992.5,357123.0,8000,VNB,A,0
0,prac,1,0.0,2-Back,,,Wed Nov 20 2024 14:09:13 GMT-0600 (Central Standard Time),359115.5,124_o_f_h_a.png,I,space,10920,2,2,1992.5,357123.0,8000,VNB,A,0
1,prac,1,0.0,2-Back,1,m,Wed Nov 20 2024 14:09:13 GMT-0600 (Central Standard Time),474212.8999999985,039_o_m_d_a.png,I,m,1780,3,2,2574.1999999955297,471638.700000003,8000,VNB,A,1
2,prac,1,1.0,2-Back,1,z,Wed Nov 20 2024 14:09:13 GMT-0600 (Central Standard Time),476379.1000000015,165_m_m_h_a.png,I,z,1354,4,2,2157.60000000149,474221.5,8000,VNB,A,2
3,prac,1,0.0,2-Back,1,m,Wed Nov 20 2024 14:09:13 GMT-0600 (Central Standard Time),478728.1000000015,071_y_f_n_a.png,I,m,1532,5,2,2340.5,476387.6000000015,8000,VNB,A,3
4,prac,1,1.0,2-Back,1,z,Wed Nov 20 2024 14:09:13 GMT-0600 (Central Standard Time),480944.1000000015,039_o_m_h_a.png,I,z,1410,6,2,2207.5,478736.6000000015,8000,VNB,A,4
5,prac,1,1.0,2-Back,1,z,Wed Nov 20 2024 14:09:13 GMT-0600 (Central Standard Time),482993.3999999985,109_y_m_n_a.png,I,z,1242,7,2,2041.1000000014901,480952.299999997,8000,VNB,A,5
6,prac,1,0.0,2-Back,1,m,Wed Nov 20 2024 14:09:13 GMT-0600 (Central Standard Time),484759.700000003,139_m_f_d_a.png,I,m,957,8,2,1757.4000000059605,483002.299999997,8000,VNB,A,6
7,prac,1,0.0,2-Back,1,m,Wed Nov 20 2024 14:09:13 GMT-0600 (Central Standard Time),486742.1000000015,124_o_f_d_a.png,I,m,1139,9,2,1974.7000000029802,484767.3999999985,8000,VNB,A,7
8,prac,1,0.0,2-Back,1,m,Wed Nov 20 2024 14:09:13 GMT-0600 (Central Standard Time),488708.1000000015,165_m_m_h_a.png,I,m,1180,10,2,1958.3999999985099,486749.700000003,8000,VNB,A,8
9,prac,1,1.0,2-Back,1,z,Wed Nov 20 2024 14:09:13 GMT-0600 (Central Standard Time),490574.3999999985,071_y_f_d_a.png,I,z,1061,11,2,1858.1000000014901,488716.299999997,8000,VNB,A,9
10,prac,1,0.0,2-Back,1,m,Wed Nov 20 2024 14:09:13 GMT-0600 (Central Standard Time),492423.700000003,039_o_m_n_a.png,I,m,1043,12,2,1841.3000000044703,490582.3999999985,8000,VNB,A,10
0,test,1,0.0,2-Back,,,Wed Nov 20 2024 14:09:13 GMT-0600 (Central Standard Time),492423.700000003,109_y_m_h_a.png,I,space,11270,1,2,1841.3000000044703,490582.3999999985,8000,VNB,A,0
0,test,1,0.0,2-Back,,,Wed Nov 20 2024 14:09:13 GMT-0600 (Central Standard Time),492423.700000003,124_o_f_n_a.png,I,space,11270,2,2,1841.3000000044703,490582.3999999985,8000,VNB,A,0
1,test,1,0.0,2-Back,1,z,Wed Nov 20 2024 14:09:13 GMT-0600 (Central Standard Time),518798.799999997,039_o_m_h_a.png,I,z,753,3,2,1775.3999999985099,517023.3999999985,8000,VNB,A,1
2,test,1,0.0,2-Back,1,m,Wed Nov 20 2024 14:09:13 GMT-0600 (Central Standard Time),520914.700000003,139_m_f_d_a.png,I,m,1098,4,2,2108.7000000029802,518806.0,8000,VNB,A,2
2,test,1,1.0,2-Back,0,m,Wed Nov 20 2024 14:09:13 GMT-0600 (Central Standard Time),523330.8999999985,109_y_m_n_a.png,I,z,1382,5,2,2409.1999999955297,520921.700000003,8000,VNB,A,3
2,test,1,0.0,2-Back,0,z,Wed Nov 20 2024 14:09:13 GMT-0600 (Central Standard Time),525413.3999999985,071_y_f_d_a.png,I,m,1063,6,2,2075.89999999851,523337.5,8000,VNB,A,4
3,test,1,0.0,2-Back,1,m,Wed Nov 20 2024 14:09:13 GMT-0600 (Central Standard Time),527462.799999997,165_m_m_h_a.png,I,m,1020,7,2,2042.0999999940395,525420.700000003,8000,VNB,A,5
4,test,1,1.0,2-Back,1,m,Wed Nov 20 2024 14:09:13 GMT-0600 (Central Standard Time),529579.0,071_y_f_n_a.png,I,m,1084,8,2,2108.89999999851,527470.1000000015,8000,VNB,A,6
5,test,1,0.0,2-Back,1,z,Wed Nov 20 2024 14:09:13 GMT-0600 (Central Standard Time),531428.1000000015,124_o_f_h_a.png,I,z,821,9,2,1842.1000000014901,529586.0,8000,VNB,A,7
6,test,1,0.0,2-Back,1,m,Wed Nov 20 2024 14:09:13 GMT-0600 (Central Standard Time),533627.200000003,039_o_m_d_a.png,I,m,1173,10,2,2191.9000000059605,531435.299999997,8000,VNB,A,8
7,test,1,1.0,2-Back,1,m,Wed Nov 20 2024 14:09:13 GMT-0600 (Central Standard Time),536043.6000000015,165_m_m_d_a.png,I,m,1390,11,2,2408.39999999851,533635.200000003,8000,VNB,A,9
8,test,1,0.0,2-Back,1,m,Wed Nov 20 2024 14:09:13 GMT-0600 (Central Standard Time),538492.700000003,139_m_f_n_a.png,I,m,1422,12,2,2441.2000000029802,536051.5,8000,VNB,A,10
9,test,1,0.0,2-Back,1,m,Wed Nov 20 2024 14:09:13 GMT-0600 (Central Standard Time),540858.6000000015,071_y_f_h_a.png,I,m,1349,13,2,2358.7000000029802,538499.8999999985,8000,VNB,A,11
9,test,1,0.0,2-Back,0,z,Wed Nov 20 2024 14:09:13 GMT-0600 (Central Standard Time),543191.0,165_m_m_n_a.png,I,m,1311,14,2,2325.2000000029802,540865.799999997,8000,VNB,A,12
10,test,1,0.0,2-Back,1,m,Wed Nov 20 2024 14:09:13 GMT-0600 (Central Standard Time),545357.3999999985,109_y_m_d_a.png,I,m,1146,15,2,2159.1999999955297,543198.200000003,8000,VNB,A,13
10,test,1,1.0,2-Back,0,m,Wed Nov 20 2024 14:09:13 GMT-0600 (Central Standard Time),547790.8999999985,139_m_f_h_a.png,I,z,1404,16,2,2426.0,545364.8999999985,8000,VNB,A,14
10,test,1,0.0,2-Back,0,z,Wed Nov 20 2024 14:09:13 GMT-0600 (Central Standard Time),550238.700000003,124_o_f_d_a.png,I,m,1427,17,2,2440.2000000029802,547798.5,8000,VNB,A,15
11,test,1,0.0,2-Back,1,m,Wed Nov 20 2024 14:09:13 GMT-0600 (Central Standard Time),552405.0,039_o_m_n_a.png,I,m,1138,18,2,2159.0,550246.0,8000,VNB,A,16
0,test,2,0.0,2-Back,,,Wed Nov 20 2024 14:09:13 GMT-0600 (Central Standard Time),552405.0,165_m_m_h_a.png,I,space,1380,1,2,2159.0,550246.0,8000,VNB,A,0
0,test,2,0.0,2-Back,,,Wed Nov 20 2024 14:09:13 GMT-0600 (Central Standard Time),552405.0,071_y_f_n_a.png,I,space,1380,2,2,2159.0,550246.0,8000,VNB,A,0
1,test,2,1.0,2-Back,1,z,Wed Nov 20 2024 14:09:13 GMT-0600 (Central Standard Time),560735.799999997,124_o_f_h_a.png,I,z,794,3,2,1808.6999999955297,558927.1000000015,8000,VNB,A,1
2,test,2,0.0,2-Back,1,m,Wed Nov 20 2024 14:09:13 GMT-0600 (Central Standard Time),562702.1000000015,039_o_m_d_a.png,I,m,946,4,2,1959.0,560743.1000000015,8000,VNB,A,2
3,test,2,0.0,2-Back,1,m,Wed Nov 20 2024 14:09:13 GMT-0600 (Central Standard Time),564852.1000000015,139_m_f_d_a.png,I,m,1132,5,2,2141.39999999851,562710.700000003,8000,VNB,A,3
4,test,2,0.0,2-Back,1,m,Wed Nov 20 2024 14:09:13 GMT-0600 (Central Standard Time),567066.799999997,109_y_m_h_a.png,I,m,1198,6,2,2207.5,564859.299999997,8000,VNB,A,4
5,test,2,0.0,2-Back,1,m,Wed Nov 20 2024 14:09:13 GMT-0600 (Central Standard Time),569082.799999997,124_o_f_n_a.png,I,m,999,7,2,2008.3999999985099,567074.3999999985,8000,VNB,A,5
5,test,2,1.0,2-Back,0,z,Wed Nov 20 2024 14:09:13 GMT-0600 (Central Standard Time),571332.299999997,039_o_m_h_a.png,I,m,1230,8,2,2241.5,569090.799999997,8000,VNB,A,6
6,test,2,0.0,2-Back,1,m,Wed Nov 20 2024 14:09:13 GMT-0600 (Central Standard Time),573248.299999997,071_y_f_d_a.png,I,m,885,9,2,1908.3999999985099,571339.8999999985,8000,VNB,A,7
7,test,2,0.0,2-Back,1,m,Wed Nov 20 2024 14:09:13 GMT-0600 (Central Standard Time),575381.0,109_y_m_d_a.png,I,m,1105,10,2,2125.60000000149,573255.3999999985,8000,VNB,A,8
8,test,2,0.0,2-Back,1,m,Wed Nov 20 2024 14:09:13 GMT-0600 (Central Standard Time),577463.799999997,165_m_m_n_a.png,I,m,1060,11,2,2075.2999999970198,575388.5,8000,VNB,A,9
9,test,2,0.0,2-Back,1,m,Wed Nov 20 2024 14:09:13 GMT-0600 (Central Standard Time),579446.200000003,139_m_f_h_a.png,I,m,954,12,2,1975.1000000014901,577471.1000000015,8000,VNB,A,10
9,test,2,1.0,2-Back,0,z,Wed Nov 20 2024 14:09:13 GMT-0600 (Central Standard Time),581562.3999999985,039_o_m_n_a.png,I,m,1006,13,2,2108.10000000149,579454.299999997,8000,VNB,A,11
10,test,2,0.0,2-Back,1,m,Wed Nov 20 2024 14:09:13 GMT-0600 (Central Standard Time),583578.3999999985,124_o_f_d_a.png,I,m,991,14,2,2008.6999999955297,581569.700000003,8000,VNB,A,12
11,test,2,0.0,2-Back,1,m,Wed Nov 20 2024 14:09:13 GMT-0600 (Central Standard Time),586010.8999999985,071_y_f_h_a.png,I,m,1415,15,2,2424.7999999970198,583586.1000000015,8000,VNB,A,13
11,test,2,0.0,2-Back,0,z,Wed Nov 20 2024 14:09:13 GMT-0600 (Central Standard Time),588310.700000003,165_m_m_d_a.png,I,m,1270,16,2,2292.8000000044703,586017.8999999985,8000,VNB,A,14
12,test,2,0.0,2-Back,1,m,Wed Nov 20 2024 14:09:13 GMT-0600 (Central Standard Time),590659.6000000015,109_y_m_n_a.png,I,m,1323,17,2,2341.8000000044703,588317.799999997,8000,VNB,A,15
13,test,2,1.0,2-Back,1,m,Wed Nov 20 2024 14:09:13 GMT-0600 (Central Standard Time),592942.299999997,139_m_f_n_a.png,I,m,1262,18,2,2275.5999999940395,590666.700000003,8000,VNB,A,16
0,test,3,1.0,2-Back,,,Wed Nov 20 2024 14:09:13 GMT-0600 (Central Standard Time),592942.299999997,039_o_m_n_a.png,I,space,1411,1,2,2275.5999999940395,590666.700000003,8000,VNB,A,0
0,test,3,1.0,2-Back,,,Wed Nov 20 2024 14:09:13 GMT-0600 (Central Standard Time),592942.299999997,124_o_f_d_a.png,I,space,1411,2,2,2275.5999999940395,590666.700000003,8000,VNB,A,0
1,test,3,0.0,2-Back,1,m,Wed Nov 20 2024 14:09:13 GMT-0600 (Central Standard Time),601890.0,071_y_f_h_a.png,I,m,1400,3,2,2409.39999999851,599480.6000000015,8000,VNB,A,1
2,test,3,0.0,2-Back,1,z,Wed Nov 20 2024 14:09:13 GMT-0600 (Central Standard Time),604605.200000003,139_m_f_d_a.png,I,z,1688,4,2,2707.9000000059605,601897.299999997,8000,VNB,A,2
2,test,3,1.0,2-Back,0,m,Wed Nov 20 2024 14:09:13 GMT-0600 (Central Standard Time),606921.3999999985,109_y_m_n_a.png,I,z,1284,5,2,2309.2999999970198,604612.1000000015,8000,VNB,A,3
2,test,3,0.0,2-Back,0,m,Wed Nov 20 2024 14:09:13 GMT-0600 (Central Standard Time),609253.799999997,039_o_m_h_a.png,I,z,1304,6,2,2325.0999999940395,606928.700000003,8000,VNB,A,4
3,test,3,0.0,2-Back,1,z,Wed Nov 20 2024 14:09:13 GMT-0600 (Central Standard Time),611986.5,071_y_f_n_a.png,I,z,1708,7,2,2725.10000000149,609261.3999999985,8000,VNB,A,5
3,test,3,1.0,2-Back,0,m,Wed Nov 20 2024 14:09:13 GMT-0600 (Central Standard Time),614402.1000000015,165_m_m_d_a.png,I,z,1391,8,2,2407.5,611994.6000000015,8000,VNB,A,6
4,test,3,0.0,2-Back,1,m,Wed Nov 20 2024 14:09:13 GMT-0600 (Central Standard Time),616734.700000003,109_y_m_d_a.png,I,m,1311,9,2,2325.2000000029802,614409.5,8000,VNB,A,7
5,test,3,0.0,2-Back,1,m,Wed Nov 20 2024 14:09:13 GMT-0600 (Central Standard Time),618984.1000000015,124_o_f_h_a.png,I,m,1227,10,2,2242.0,616742.1000000015,8000,VNB,A,8
6,test,3,1.0,2-Back,1,m,Wed Nov 20 2024 14:09:13 GMT-0600 (Central Standard Time),621133.5,139_m_f_n_a.png,I,m,1129,11,2,2141.7999999970198,618991.700000003,8000,VNB,A,9
7,test,3,1.0,2-Back,1,z,Wed Nov 20 2024 14:09:13 GMT-0600 (Central Standard Time),623399.200000003,165_m_m_h_a.png,I,z,1236,12,2,2258.7000000029802,621140.5,8000,VNB,A,10
8,test,3,0.0,2-Back,1,m,Wed Nov 20 2024 14:09:13 GMT-0600 (Central Standard Time),625732.1000000015,071_y_f_d_a.png,I,m,1314,13,2,2324.89999999851,623407.200000003,8000,VNB,A,11
9,test,3,0.0,2-Back,1,m,Wed Nov 20 2024 14:09:13 GMT-0600 (Central Standard Time),628048.0,124_o_f_n_a.png,I,m,1293,14,2,2308.7999999970198,625739.200000003,8000,VNB,A,12
10,test,3,0.0,2-Back,1,z,Wed Nov 20 2024 14:09:13 GMT-0600 (Central Standard Time),630680.3999999985,039_o_m_d_a.png,I,z,1601,15,2,2624.89999999851,628055.5,8000,VNB,A,13
11,test,3,1.0,2-Back,1,m,Wed Nov 20 2024 14:09:13 GMT-0600 (Central Standard Time),632729.6000000015,139_m_f_h_a.png,I,m,1024,16,2,2041.5,630688.1000000015,8000,VNB,A,14
11,test,3,0.0,2-Back,0,m,Wed Nov 20 2024 14:09:13 GMT-0600 (Central Standard Time),635395.3999999985,165_m_m_n_a.png,I,z,1640,17,2,2657.6999999955297,632737.700000003,8000,VNB,A,15
11,test,3,0.0,2-Back,0,z,Wed Nov 20 2024 14:09:13 GMT-0600 (Central Standard Time),637328.200000003,109_y_m_h_a.png,I,m,910,18,2,1926.1000000014901,635402.1000000015,8000,VNB,A,16
0,test,4,0.0,2-Back,,,Wed Nov 20 2024 14:09:13 GMT-0600 (Central Standard Time),637328.200000003,139_m_f_n_a.png,I,space,1513,1,2,1926.1000000014901,635402.1000000015,8000,VNB,A,0
0,test,4,0.0,2-Back,,,Wed Nov 20 2024 14:09:13 GMT-0600 (Central Standard Time),637328.200000003,039_o_m_n_a.png,I,space,1513,2,2,1926.1000000014901,635402.1000000015,8000,VNB,A,0
1,test,4,1.0,2-Back,1,m,Wed Nov 20 2024 14:09:13 GMT-0600 (Central Standard Time),646042.3999999985,109_y_m_h_a.png,I,m,1116,3,2,2125.39999999851,643917.0,8000,VNB,A,1
2,test,4,1.0,2-Back,1,m,Wed Nov 20 2024 14:09:13 GMT-0600 (Central Standard Time),647991.6000000015,124_o_f_d_a.png,I,m,927,4,2,1940.7000000029802,646050.8999999985,8000,VNB,A,2
3,test,4,0.0,2-Back,1,z,Wed Nov 20 2024 14:09:13 GMT-0600 (Central Standard Time),650124.6000000015,039_o_m_h_a.png,I,z,1106,5,2,2125.60000000149,647999.0,8000,VNB,A,3
4,test,4,0.0,2-Back,1,m,Wed Nov 20 2024 14:09:13 GMT-0600 (Central Standard Time),652373.6000000015,165_m_m_n_a.png,I,m,1219,6,2,2241.39999999851,650132.200000003,8000,VNB,A,4
5,test,4,0.0,2-Back,1,m,Wed Nov 20 2024 14:09:13 GMT-0600 (Central Standard Time),654673.0,139_m_f_d_a.png,I,m,1268,7,2,2291.10000000149,652381.8999999985,8000,VNB,A,5
6,test,4,0.0,2-Back,1,z,Wed Nov 20 2024 14:09:13 GMT-0600 (Central Standard Time),656922.200000003,071_y_f_n_a.png,I,z,1223,8,2,2241.7000000029802,654680.5,8000,VNB,A,6
7,test,4,1.0,2-Back,1,m,Wed Nov 20 2024 14:09:13 GMT-0600 (Central Standard Time),659021.5,124_o_f_h_a.png,I,m,1071,9,2,2092.39999999851,656929.1000000015,8000,VNB,A,7
8,test,4,0.0,2-Back,1,m,Wed Nov 20 2024 14:09:13 GMT-0600 (Central Standard Time),661170.8999999985,165_m_m_h_a.png,I,m,1124,10,2,2141.60000000149,659029.299999997,8000,VNB,A,8
9,test,4,0.0,2-Back,1,m,Wed Nov 20 2024 14:09:13 GMT-0600 (Central Standard Time),663237.0,071_y_f_d_a.png,I,m,1046,11,2,2058.89999999851,661178.1000000015,8000,VNB,A,9
10,test,4,0.0,2-Back,1,m,Wed Nov 20 2024 14:09:13 GMT-0600 (Central Standard Time),665319.5,109_y_m_n_a.png,I,m,1052,12,2,2075.2000000029802,663244.299999997,8000,VNB,A,10
11,test,4,0.0,2-Back,1,z,Wed Nov 20 2024 14:09:13 GMT-0600 (Central Standard Time),667802.200000003,039_o_m_d_a.png,I,z,1450,13,2,2475.7000000029802,665326.5,8000,VNB,A,11
12,test,4,1.0,2-Back,1,m,Wed Nov 20 2024 14:09:13 GMT-0600 (Central Standard Time),669684.8999999985,139_m_f_h_a.png,I,m,855,14,2,1875.5,667809.3999999985,8000,VNB,A,12
13,test,4,1.0,2-Back,1,m,Wed Nov 20 2024 14:09:13 GMT-0600 (Central Standard Time),671950.799999997,071_y_f_h_a.png,I,m,1236,15,2,2258.89999999851,669691.8999999985,8000,VNB,A,13
14,test,4,0.0,2-Back,1,m,Wed Nov 20 2024 14:09:13 GMT-0600 (Central Standard Time),674133.5,124_o_f_n_a.png,I,m,1162,16,2,2175.39999999851,671958.1000000015,8000,VNB,A,14
15,test,4,0.0,2-Back,1,m,Wed Nov 20 2024 14:09:13 GMT-0600 (Central Standard Time),676732.700000003,109_y_m_d_a.png,I,m,1579,17,2,2591.8000000044703,674140.8999999985,8000,VNB,A,15
16,test,4,1.0,2-Back,1,m,Wed Nov 20 2024 14:09:13 GMT-0600 (Central Standard Time),678898.6000000015,165_m_m_d_a.png,I,m,1149,18,2,2158.39999999851,676740.200000003,8000,VNB,A,16
0,test,5,1.0,2-Back,,,Wed Nov 20 2024 14:09:13 GMT-0600 (Central Standard Time),678898.6000000015,071_y_f_d_a.png,I,space,1743,1,2,2158.39999999851,676740.200000003,8000,VNB,A,0
0,test,5,1.0,2-Back,,,Wed Nov 20 2024 14:09:13 GMT-0600 (Central Standard Time),678898.6000000015,124_o_f_h_a.png,I,space,1743,2,2,2158.39999999851,676740.200000003,8000,VNB,A,0
1,test,5,1.0,2-Back,1,z,Wed Nov 20 2024 14:09:13 GMT-0600 (Central Standard Time),688312.3999999985,039_o_m_d_a.png,I,z,1535,3,2,2558.1999999955297,685754.200000003,8000,VNB,A,1
2,test,5,1.0,2-Back,1,m,Wed Nov 20 2024 14:09:13 GMT-0600 (Central Standard Time),690195.200000003,139_m_f_n_a.png,I,m,857,4,2,1875.5,688319.700000003,8000,VNB,A,2
3,test,5,0.0,2-Back,1,m,Wed Nov 20 2024 14:09:13 GMT-0600 (Central Standard Time),692277.700000003,165_m_m_h_a.png,I,m,1062,5,2,2075.10000000149,690202.6000000015,8000,VNB,A,3
4,test,5,0.0,2-Back,1,z,Wed Nov 20 2024 14:09:13 GMT-0600 (Central Standard Time),694494.0,071_y_f_n_a.png,I,z,1196,6,2,2209.10000000149,692284.8999999985,8000,VNB,A,4
5,test,5,0.0,2-Back,1,m,Wed Nov 20 2024 14:09:13 GMT-0600 (Central Standard Time),696643.0,124_o_f_d_a.png,I,m,1123,7,2,2141.2000000029802,694501.799999997,8000,VNB,A,5
6,test,5,0.0,2-Back,1,m,Wed Nov 20 2024 14:09:13 GMT-0600 (Central Standard Time),699175.6000000015,039_o_m_h_a.png,I,m,1510,8,2,2525.0,696650.6000000015,8000,VNB,A,6
6,test,5,1.0,2-Back,0,z,Wed Nov 20 2024 14:09:13 GMT-0600 (Central Standard Time),701375.0,139_m_f_d_a.png,I,m,1178,9,2,2191.60000000149,699183.3999999985,8000,VNB,A,7
7,test,5,0.0,2-Back,1,m,Wed Nov 20 2024 14:09:13 GMT-0600 (Central Standard Time),703724.299999997,109_y_m_n_a.png,I,m,1323,10,2,2341.5999999940395,701382.700000003,8000,VNB,A,8
8,test,5,0.0,2-Back,1,m,Wed Nov 20 2024 14:09:13 GMT-0600 (Central Standard Time),706123.1000000015,165_m_m_n_a.png,I,m,1381,11,2,2391.60000000149,703731.5,8000,VNB,A,9
9,test,5,0.0,2-Back,1,m,Wed Nov 20 2024 14:09:13 GMT-0600 (Central Standard Time),708172.799999997,071_y_f_h_a.png,I,m,1022,12,2,2041.8999999985099,706130.8999999985,8000,VNB,A,10
10,test,5,0.0,2-Back,1,m,Wed Nov 20 2024 14:09:13 GMT-0600 (Central Standard Time),710372.200000003,109_y_m_d_a.png,I,m,1172,13,2,2191.9000000059605,708180.299999997,8000,VNB,A,11
11,test,5,1.0,2-Back,1,z,Wed Nov 20 2024 14:09:13 GMT-0600 (Central Standard Time),712371.3999999985,139_m_f_h_a.png,I,z,973,14,2,1992.1000000014901,710379.299999997,8000,VNB,A,12
12,test,5,0.0,2-Back,1,m,Wed Nov 20 2024 14:09:13 GMT-0600 (Central Standard Time),714554.299999997,039_o_m_n_a.png,I,m,1150,15,2,2175.1999999955297,712379.1000000015,8000,VNB,A,13
13,test,5,0.0,2-Back,1,m,Wed Nov 20 2024 14:09:13 GMT-0600 (Central Standard Time),716903.299999997,165_m_m_d_a.png,I,m,1327,16,2,2341.5999999940395,714561.700000003,8000,VNB,A,14
13,test,5,0.0,2-Back,0,z,Wed Nov 20 2024 14:09:13 GMT-0600 (Central Standard Time),718969.3999999985,124_o_f_n_a.png,I,m,1042,17,2,2058.89999999851,716910.5,8000,VNB,A,15
14,test,5,1.0,2-Back,1,m,Wed Nov 20 2024 14:09:13 GMT-0600 (Central Standard Time),721351.8999999985,109_y_m_h_a.png,I,m,1352,18,2,2375.5,718976.3999999985,8000,VNB,A,16
