acc_sum,block,block_c,change,condition,correct,correct_response,datetime,endtime,face,project,response,response_time,row_sel,session_number,start_end,starttime,subject_id,task,task_vers,trial
0,prac,1,,1-Back,,,Fri Feb 28 2025 15:19:06 GMT-0600 (Central Standard Time),,097_m_f_n_a.png,O,space,10065,1,1,,,7072,NNB,B,0
1,prac,1,0.0,1-Back,1,m,Fri Feb 28 2025 15:19:06 GMT-0600 (Central Standard Time),156401.5,152_y_f_n_a.png,O,m,1059,2,1,1950.199999988079,154451.30000001192,7072,NNB,B,1
1,prac,1,1.0,1-Back,0,z,Fri Feb 28 2025 15:19:06 GMT-0600 (Central Standard Time),159215.69999998808,152_y_f_n_a.png,O,None,2012,3,1,2779.0999999940395,156436.59999999404,7072,NNB,B,2
2,prac,1,0.0,1-Back,1,m,Fri Feb 28 2025 15:19:06 GMT-0600 (Central Standard Time),161549.40000000596,176_o_m_n_a.png,O,m,1424,4,1,2323.5999999940395,159225.80000001192,7072,NNB,B,3
3,prac,1,0.0,1-Back,1,m,Fri Feb 28 2025 15:19:06 GMT-0600 (Central Standard Time),163601.19999998808,126_m_m_n_a.png,O,m,1131,5,1,2020.7999999821186,161580.40000000596,7072,NNB,B,4
4,prac,1,1.0,1-Back,1,z,Fri Feb 28 2025 15:19:06 GMT-0600 (Central Standard Time),165848.09999999404,126_m_m_n_a.png,O,z,1446,6,1,2219.7999999821186,163628.30000001192,7072,NNB,B,5
5,prac,1,0.0,1-Back,1,m,Fri Feb 28 2025 15:19:06 GMT-0600 (Central Standard Time),167864.0,086_o_f_n_a.png,O,m,1059,7,1,1987.699999988079,165876.30000001192,7072,NNB,B,6
6,prac,1,0.0,1-Back,1,m,Fri Feb 28 2025 15:19:06 GMT-0600 (Central Standard Time),169830.0,178_m_m_n_a.png,O,m,1039,8,1,1942.5,167887.5,7072,NNB,B,7
7,prac,1,0.0,1-Back,1,m,Fri Feb 28 2025 15:19:06 GMT-0600 (Central Standard Time),171862.40000000596,097_m_f_n_a.png,O,m,1106,9,1,1995.300000011921,169867.09999999404,7072,NNB,B,8
8,prac,1,1.0,1-Back,1,z,Fri Feb 28 2025 15:19:06 GMT-0600 (Central Standard Time),173529.0,097_m_f_n_a.png,O,z,855,10,1,1637.4000000059605,171891.59999999404,7072,NNB,B,9
9,prac,1,0.0,1-Back,1,m,Fri Feb 28 2025 15:19:06 GMT-0600 (Central Standard Time),175311.69999998808,176_o_m_n_a.png,O,m,968,11,1,1749.3999999761581,173562.30000001192,7072,NNB,B,10
10,prac,1,0.0,1-Back,1,m,Fri Feb 28 2025 15:19:06 GMT-0600 (Central Standard Time),177060.90000000596,173_y_f_n_a.png,O,m,813,12,1,1711.0999999940395,175349.80000001192,7072,NNB,B,11
0,test,1,0.0,1-Back,,,Fri Feb 28 2025 15:19:06 GMT-0600 (Central Standard Time),177060.90000000596,152_y_f_n_a.png,O,space,11039,1,1,1711.0999999940395,175349.80000001192,7072,NNB,B,0
1,test,1,0.0,1-Back,1,m,Fri Feb 28 2025 15:19:06 GMT-0600 (Central Standard Time),206718.0,029_m_f_n_a.png,O,m,905,2,1,1928.199999988079,204789.80000001192,7072,NNB,B,1
2,test,1,0.0,1-Back,1,m,Fri Feb 28 2025 15:19:06 GMT-0600 (Central Standard Time),208417.19999998808,173_y_f_n_a.png,O,m,652,3,1,1679.8999999761581,206737.30000001192,7072,NNB,B,2
3,test,1,1.0,1-Back,1,z,Fri Feb 28 2025 15:19:06 GMT-0600 (Central Standard Time),210299.80000001192,173_y_f_n_a.png,O,z,840,4,1,1863.300000011921,208436.5,7072,NNB,B,3
4,test,1,0.0,1-Back,1,m,Fri Feb 28 2025 15:19:06 GMT-0600 (Central Standard Time),212266.0,029_m_f_n_a.png,O,m,871,5,1,1947.4000000059605,210318.59999999404,7072,NNB,B,4
5,test,1,0.0,1-Back,1,m,Fri Feb 28 2025 15:19:06 GMT-0600 (Central Standard Time),214198.19999998808,176_o_m_n_a.png,O,m,897,6,1,1913.0999999940395,212285.09999999404,7072,NNB,B,5
6,test,1,1.0,1-Back,1,z,Fri Feb 28 2025 15:19:06 GMT-0600 (Central Standard Time),216247.80000001192,176_o_m_n_a.png,O,z,1003,7,1,2026.800000011921,214221.0,7072,NNB,B,6
7,test,1,0.0,1-Back,1,m,Fri Feb 28 2025 15:19:06 GMT-0600 (Central Standard Time),218147.30000001192,126_m_m_n_a.png,O,m,850,8,1,1877.0,216270.30000001192,7072,NNB,B,7
8,test,1,0.0,1-Back,1,m,Fri Feb 28 2025 15:19:06 GMT-0600 (Central Standard Time),220096.69999998808,086_o_f_n_a.png,O,m,910,9,1,1930.2999999821186,218166.40000000596,7072,NNB,B,8
9,test,1,0.0,1-Back,1,m,Fri Feb 28 2025 15:19:06 GMT-0600 (Central Standard Time),222146.0,126_m_m_n_a.png,O,m,1001,10,1,2032.5999999940395,220113.40000000596,7072,NNB,B,9
10,test,1,0.0,1-Back,1,m,Fri Feb 28 2025 15:19:06 GMT-0600 (Central Standard Time),224295.09999999404,153_y_m_n_a.png,O,m,1113,11,1,2129.7999999821186,222165.30000001192,7072,NNB,B,10
11,test,1,1.0,1-Back,1,z,Fri Feb 28 2025 15:19:06 GMT-0600 (Central Standard Time),226010.5,153_y_m_n_a.png,O,z,665,12,1,1697.5,224313.0,7072,NNB,B,11
12,test,1,0.0,1-Back,1,m,Fri Feb 28 2025 15:19:06 GMT-0600 (Central Standard Time),227893.90000000596,110_o_f_n_a.png,O,m,855,13,1,1878.9000000059605,226015.0,7072,NNB,B,12
13,test,1,1.0,1-Back,1,z,Fri Feb 28 2025 15:19:06 GMT-0600 (Central Standard Time),229743.40000000596,110_o_f_n_a.png,O,z,795,14,1,1815.4000000059605,227928.0,7072,NNB,B,13
14,test,1,0.0,1-Back,1,m,Fri Feb 28 2025 15:19:06 GMT-0600 (Central Standard Time),231559.40000000596,013_y_m_n_a.png,O,m,772,15,1,1794.300000011921,229765.09999999404,7072,NNB,B,14
15,test,1,0.0,1-Back,1,m,Fri Feb 28 2025 15:19:06 GMT-0600 (Central Standard Time),233591.80000001192,097_m_f_n_a.png,O,m,977,16,1,1998.2000000178814,231593.59999999404,7072,NNB,B,15
16,test,1,0.0,1-Back,1,m,Fri Feb 28 2025 15:19:06 GMT-0600 (Central Standard Time),235525.40000000596,065_o_m_n_a.png,O,m,898,17,1,1914.4000000059605,233611.0,7072,NNB,B,16
17,test,1,0.0,1-Back,1,m,Fri Feb 28 2025 15:19:06 GMT-0600 (Central Standard Time),237490.90000000596,097_m_f_n_a.png,O,m,917,18,1,1946.4000000059605,235544.5,7072,NNB,B,17
0,test,2,0.0,1-Back,,,Fri Feb 28 2025 15:19:06 GMT-0600 (Central Standard Time),237490.90000000596,126_m_m_n_a.png,O,space,11368,1,1,1946.4000000059605,235544.5,7072,NNB,B,0
1,test,2,0.0,1-Back,1,m,Fri Feb 28 2025 15:19:06 GMT-0600 (Central Standard Time),252869.40000000596,029_m_f_n_a.png,O,m,781,2,1,1794.800000011921,251074.59999999404,7072,NNB,B,1
2,test,2,1.0,1-Back,1,z,Fri Feb 28 2025 15:19:06 GMT-0600 (Central Standard Time),254669.30000001192,029_m_f_n_a.png,O,z,764,3,1,1780.5,252888.80000001192,7072,NNB,B,2
3,test,2,0.0,1-Back,1,m,Fri Feb 28 2025 15:19:06 GMT-0600 (Central Standard Time),256517.59999999404,126_m_m_n_a.png,O,m,815,4,1,1829.0,254688.59999999404,7072,NNB,B,3
4,test,2,0.0,1-Back,1,m,Fri Feb 28 2025 15:19:06 GMT-0600 (Central Standard Time),258417.19999998808,153_y_m_n_a.png,O,m,853,5,1,1880.199999988079,256537.0,7072,NNB,B,4
5,test,2,0.0,1-Back,1,m,Fri Feb 28 2025 15:19:06 GMT-0600 (Central Standard Time),260266.69999998808,152_y_f_n_a.png,O,m,801,6,1,1829.7999999821186,258436.90000000596,7072,NNB,B,5
6,test,2,1.0,1-Back,1,z,Fri Feb 28 2025 15:19:06 GMT-0600 (Central Standard Time),262032.69999998808,152_y_f_n_a.png,O,z,727,7,1,1746.0999999940395,260286.59999999404,7072,NNB,B,6
7,test,2,0.0,1-Back,1,m,Fri Feb 28 2025 15:19:06 GMT-0600 (Central Standard Time),263815.59999999404,153_y_m_n_a.png,O,m,736,8,1,1758.9000000059605,262056.69999998808,7072,NNB,B,7
8,test,2,0.0,1-Back,1,m,Fri Feb 28 2025 15:19:06 GMT-0600 (Central Standard Time),265598.0,110_o_f_n_a.png,O,m,746,9,1,1759.9000000059605,263838.09999999404,7072,NNB,B,8
9,test,2,0.0,1-Back,1,m,Fri Feb 28 2025 15:19:06 GMT-0600 (Central Standard Time),267397.3000000119,178_m_m_n_a.png,O,m,764,10,1,1770.1000000238419,265627.1999999881,7072,NNB,B,9
10,test,2,1.0,1-Back,1,z,Fri Feb 28 2025 15:19:06 GMT-0600 (Central Standard Time),269113.90000000596,178_m_m_n_a.png,O,z,675,11,1,1697.800000011921,267416.09999999404,7072,NNB,B,10
11,test,2,0.0,1-Back,1,m,Fri Feb 28 2025 15:19:06 GMT-0600 (Central Standard Time),270929.90000000596,110_o_f_n_a.png,O,m,768,12,1,1797.800000011921,269132.09999999404,7072,NNB,B,11
12,test,2,0.0,1-Back,1,m,Fri Feb 28 2025 15:19:06 GMT-0600 (Central Standard Time),272679.40000000596,086_o_f_n_a.png,O,m,703,13,1,1726.2000000178814,270953.1999999881,7072,NNB,B,12
13,test,2,0.0,1-Back,1,m,Fri Feb 28 2025 15:19:06 GMT-0600 (Central Standard Time),274412.09999999404,176_o_m_n_a.png,O,m,690,14,1,1711.7999999821186,272700.3000000119,7072,NNB,B,13
14,test,2,0.0,1-Back,1,m,Fri Feb 28 2025 15:19:06 GMT-0600 (Central Standard Time),276144.90000000596,065_o_m_n_a.png,O,m,693,15,1,1714.300000011921,274430.59999999404,7072,NNB,B,14
15,test,2,1.0,1-Back,1,z,Fri Feb 28 2025 15:19:06 GMT-0600 (Central Standard Time),277861.09999999404,065_o_m_n_a.png,O,z,672,16,1,1697.199999988079,276163.90000000596,7072,NNB,B,15
16,test,2,0.0,1-Back,1,m,Fri Feb 28 2025 15:19:06 GMT-0600 (Central Standard Time),279727.0,013_y_m_n_a.png,O,m,829,17,1,1845.699999988079,277881.3000000119,7072,NNB,B,16
17,test,2,1.0,1-Back,1,z,Fri Feb 28 2025 15:19:06 GMT-0600 (Central Standard Time),281409.8000000119,013_y_m_n_a.png,O,z,634,18,1,1660.800000011921,279749.0,7072,NNB,B,17
0,test,3,1.0,1-Back,,,Fri Feb 28 2025 15:19:06 GMT-0600 (Central Standard Time),281409.8000000119,173_y_f_n_a.png,O,space,1016,1,1,1660.800000011921,279749.0,7072,NNB,B,0
1,test,3,0.0,1-Back,1,m,Fri Feb 28 2025 15:19:06 GMT-0600 (Central Standard Time),286308.3000000119,065_o_m_n_a.png,O,m,650,1,1,1676.1000000238419,284632.1999999881,7072,NNB,B,1
2,test,3,1.0,1-Back,1,z,Fri Feb 28 2025 15:19:06 GMT-0600 (Central Standard Time),288107.6999999881,065_o_m_n_a.png,O,z,749,1,1,1779.3999999761581,286328.3000000119,7072,NNB,B,2
3,test,3,0.0,1-Back,1,m,Fri Feb 28 2025 15:19:06 GMT-0600 (Central Standard Time),289807.0,097_m_f_n_a.png,O,m,654,1,1,1680.0,288127.0,7072,NNB,B,3
4,test,3,1.0,1-Back,1,z,Fri Feb 28 2025 15:19:06 GMT-0600 (Central Standard Time),291589.40000000596,097_m_f_n_a.png,O,z,738,1,1,1761.4000000059605,289828.0,7072,NNB,B,4
5,test,3,0.0,1-Back,1,m,Fri Feb 28 2025 15:19:06 GMT-0600 (Central Standard Time),293339.59999999404,110_o_f_n_a.png,O,m,716,1,1,1740.699999988079,291598.90000000596,7072,NNB,B,5
6,test,3,0.0,1-Back,1,m,Fri Feb 28 2025 15:19:06 GMT-0600 (Central Standard Time),295038.6999999881,153_y_m_n_a.png,O,m,662,1,1,1679.3999999761581,293359.3000000119,7072,NNB,B,6
7,test,3,0.0,1-Back,1,m,Fri Feb 28 2025 15:19:06 GMT-0600 (Central Standard Time),296854.6999999881,110_o_f_n_a.png,O,m,779,1,1,1792.699999988079,295062.0,7072,NNB,B,7
8,test,3,0.0,1-Back,1,m,Fri Feb 28 2025 15:19:06 GMT-0600 (Central Standard Time),298737.5,013_y_m_n_a.png,O,m,842,1,1,1863.699999988079,296873.8000000119,7072,NNB,B,8
9,test,3,1.0,1-Back,1,z,Fri Feb 28 2025 15:19:06 GMT-0600 (Central Standard Time),300437.8000000119,013_y_m_n_a.png,O,z,665,1,1,1680.2000000178814,298757.59999999404,7072,NNB,B,9
10,test,3,0.0,1-Back,1,m,Fri Feb 28 2025 15:19:06 GMT-0600 (Central Standard Time),302186.3000000119,029_m_f_n_a.png,O,m,701,1,1,1724.4000000059605,300461.90000000596,7072,NNB,B,10
11,test,3,0.0,1-Back,1,m,Fri Feb 28 2025 15:19:06 GMT-0600 (Central Standard Time),304035.6999999881,152_y_f_n_a.png,O,m,808,1,1,1830.5999999940395,302205.09999999404,7072,NNB,B,11
12,test,3,1.0,1-Back,1,z,Fri Feb 28 2025 15:19:06 GMT-0600 (Central Standard Time),305801.8000000119,152_y_f_n_a.png,O,z,726,1,1,1747.4000000059605,304054.40000000596,7072,NNB,B,12
13,test,3,0.0,1-Back,1,m,Fri Feb 28 2025 15:19:06 GMT-0600 (Central Standard Time),307684.6999999881,029_m_f_n_a.png,O,m,833,1,1,1861.199999988079,305823.5,7072,NNB,B,13
14,test,3,0.0,1-Back,1,m,Fri Feb 28 2025 15:19:06 GMT-0600 (Central Standard Time),309533.8000000119,126_m_m_n_a.png,O,m,805,1,1,1829.9000000059605,307703.90000000596,7072,NNB,B,14
15,test,3,1.0,1-Back,1,z,Fri Feb 28 2025 15:19:06 GMT-0600 (Central Standard Time),311283.1999999881,126_m_m_n_a.png,O,z,699,1,1,1730.2999999821186,309552.90000000596,7072,NNB,B,15
16,test,3,0.0,1-Back,1,m,Fri Feb 28 2025 15:19:06 GMT-0600 (Central Standard Time),312999.5,086_o_f_n_a.png,O,m,670,1,1,1696.5999999940395,311302.90000000596,7072,NNB,B,16
17,test,3,1.0,1-Back,1,z,Fri Feb 28 2025 15:19:06 GMT-0600 (Central Standard Time),314764.59999999404,086_o_f_n_a.png,O,z,721,1,1,1745.4000000059605,313019.1999999881,7072,NNB,B,17
0,test,4,1.0,1-Back,,,Fri Feb 28 2025 15:19:06 GMT-0600 (Central Standard Time),314764.59999999404,097_m_f_n_a.png,O,space,1000,1,1,1745.4000000059605,313019.1999999881,7072,NNB,B,0
1,test,4,0.0,1-Back,1,m,Fri Feb 28 2025 15:19:06 GMT-0600 (Central Standard Time),319597.3000000119,065_o_m_n_a.png,O,m,642,2,1,1662.5,317934.8000000119,7072,NNB,B,1
1,test,4,0.0,1-Back,0,m,Fri Feb 28 2025 15:19:06 GMT-0600 (Central Standard Time),321597.0,097_m_f_n_a.png,O,z,964,3,1,1979.5,319617.5,7072,NNB,B,2
2,test,4,0.0,1-Back,1,m,Fri Feb 28 2025 15:19:06 GMT-0600 (Central Standard Time),323412.90000000596,110_o_f_n_a.png,O,m,774,4,1,1796.2000000178814,321616.6999999881,7072,NNB,B,3
2,test,4,1.0,1-Back,0,z,Fri Feb 28 2025 15:19:06 GMT-0600 (Central Standard Time),325461.3000000119,110_o_f_n_a.png,O,m,1004,5,1,2027.7000000178814,323433.59999999404,7072,NNB,B,4
3,test,4,0.0,1-Back,1,m,Fri Feb 28 2025 15:19:06 GMT-0600 (Central Standard Time),327193.90000000596,152_y_f_n_a.png,O,m,709,6,1,1728.7000000178814,325465.1999999881,7072,NNB,B,5
4,test,4,0.0,1-Back,1,m,Fri Feb 28 2025 15:19:06 GMT-0600 (Central Standard Time),328877.59999999404,153_y_m_n_a.png,O,m,656,7,1,1676.7999999821186,327200.8000000119,7072,NNB,B,6
4,test,4,1.0,1-Back,0,z,Fri Feb 28 2025 15:19:06 GMT-0600 (Central Standard Time),330826.90000000596,153_y_m_n_a.png,O,m,909,8,1,1927.4000000059605,328899.5,7072,NNB,B,7
5,test,4,0.0,1-Back,1,m,Fri Feb 28 2025 15:19:06 GMT-0600 (Central Standard Time),332792.3000000119,152_y_f_n_a.png,O,m,925,9,1,1945.0,330847.3000000119,7072,NNB,B,8
6,test,4,0.0,1-Back,1,m,Fri Feb 28 2025 15:19:06 GMT-0600 (Central Standard Time),334575.6999999881,178_m_m_n_a.png,O,m,762,10,1,1779.699999988079,332796.0,7072,NNB,B,9
7,test,4,1.0,1-Back,1,z,Fri Feb 28 2025 15:19:06 GMT-0600 (Central Standard Time),336825.0,178_m_m_n_a.png,O,z,1211,11,1,2230.4000000059605,334594.59999999404,7072,NNB,B,10
8,test,4,0.0,1-Back,1,m,Fri Feb 28 2025 15:19:06 GMT-0600 (Central Standard Time),338507.8000000119,086_o_f_n_a.png,O,m,642,12,1,1660.7000000178814,336847.09999999404,7072,NNB,B,11
9,test,4,0.0,1-Back,1,m,Fri Feb 28 2025 15:19:06 GMT-0600 (Central Standard Time),340157.40000000596,176_o_m_n_a.png,O,m,615,13,1,1623.7000000178814,338533.6999999881,7072,NNB,B,12
10,test,4,0.0,1-Back,1,m,Fri Feb 28 2025 15:19:06 GMT-0600 (Central Standard Time),341856.59999999404,086_o_f_n_a.png,O,m,655,14,1,1675.5,340181.09999999404,7072,NNB,B,13
11,test,4,0.0,1-Back,1,m,Fri Feb 28 2025 15:19:06 GMT-0600 (Central Standard Time),343522.8000000119,173_y_f_n_a.png,O,m,626,15,1,1647.2000000178814,341875.59999999404,7072,NNB,B,14
12,test,4,1.0,1-Back,1,z,Fri Feb 28 2025 15:19:06 GMT-0600 (Central Standard Time),345222.1999999881,173_y_f_n_a.png,O,z,656,16,1,1671.199999988079,343551.0,7072,NNB,B,15
13,test,4,0.0,1-Back,1,m,Fri Feb 28 2025 15:19:06 GMT-0600 (Central Standard Time),346788.40000000596,029_m_f_n_a.png,O,m,524,17,1,1548.9000000059605,345239.5,7072,NNB,B,16
14,test,4,1.0,1-Back,1,z,Fri Feb 28 2025 15:19:06 GMT-0600 (Central Standard Time),348654.59999999404,029_m_f_n_a.png,O,z,822,18,1,1848.0999999940395,346806.5,7072,NNB,B,17
0,test,5,1.0,1-Back,,,Fri Feb 28 2025 15:19:06 GMT-0600 (Central Standard Time),348654.59999999404,176_o_m_n_a.png,O,space,1612,1,1,1848.0999999940395,346806.5,7072,NNB,B,0
1,test,5,1.0,1-Back,1,z,Fri Feb 28 2025 15:19:06 GMT-0600 (Central Standard Time),354453.40000000596,176_o_m_n_a.png,O,z,982,2,1,1992.9000000059605,352460.5,7072,NNB,B,1
2,test,5,0.0,1-Back,1,m,Fri Feb 28 2025 15:19:06 GMT-0600 (Central Standard Time),356168.6999999881,152_y_f_n_a.png,O,m,670,3,1,1695.7999999821186,354472.90000000596,7072,NNB,B,2
3,test,5,0.0,1-Back,1,m,Fri Feb 28 2025 15:19:06 GMT-0600 (Central Standard Time),357984.0,153_y_m_n_a.png,O,m,776,4,1,1795.199999988079,356188.8000000119,7072,NNB,B,3
4,test,5,0.0,1-Back,1,m,Fri Feb 28 2025 15:19:06 GMT-0600 (Central Standard Time),360050.8000000119,152_y_f_n_a.png,O,m,1036,5,1,2062.9000000059605,357987.90000000596,7072,NNB,B,4
5,test,5,0.0,1-Back,1,m,Fri Feb 28 2025 15:19:06 GMT-0600 (Central Standard Time),361717.09999999404,126_m_m_n_a.png,O,m,632,6,1,1646.0,360071.09999999404,7072,NNB,B,5
6,test,5,1.0,1-Back,1,z,Fri Feb 28 2025 15:19:06 GMT-0600 (Central Standard Time),363449.6999999881,126_m_m_n_a.png,O,z,685,7,1,1715.7999999821186,361733.90000000596,7072,NNB,B,6
7,test,5,0.0,1-Back,1,m,Fri Feb 28 2025 15:19:06 GMT-0600 (Central Standard Time),365099.09999999404,173_y_f_n_a.png,O,m,601,8,1,1628.7999999821186,363470.3000000119,7072,NNB,B,7
8,test,5,0.0,1-Back,1,m,Fri Feb 28 2025 15:19:06 GMT-0600 (Central Standard Time),366798.59999999404,013_y_m_n_a.png,O,m,638,9,1,1669.699999988079,365128.90000000596,7072,NNB,B,8
9,test,5,0.0,1-Back,1,m,Fri Feb 28 2025 15:19:06 GMT-0600 (Central Standard Time),368947.90000000596,173_y_f_n_a.png,O,m,1108,10,1,2131.4000000059605,366816.5,7072,NNB,B,9
10,test,5,0.0,1-Back,1,m,Fri Feb 28 2025 15:19:06 GMT-0600 (Central Standard Time),370647.3000000119,086_o_f_n_a.png,O,m,663,11,1,1680.5,368966.8000000119,7072,NNB,B,10
11,test,5,1.0,1-Back,1,z,Fri Feb 28 2025 15:19:06 GMT-0600 (Central Standard Time),372363.40000000596,086_o_f_n_a.png,O,z,675,12,1,1697.5999999940395,370665.8000000119,7072,NNB,B,11
12,test,5,0.0,1-Back,1,m,Fri Feb 28 2025 15:19:06 GMT-0600 (Central Standard Time),373946.1999999881,065_o_m_n_a.png,O,m,543,13,1,1565.0,372381.1999999881,7072,NNB,B,12
13,test,5,0.0,1-Back,1,m,Fri Feb 28 2025 15:19:06 GMT-0600 (Central Standard Time),375578.90000000596,097_m_f_n_a.png,O,m,594,14,1,1613.2000000178814,373965.6999999881,7072,NNB,B,13
14,test,5,1.0,1-Back,1,z,Fri Feb 28 2025 15:19:06 GMT-0600 (Central Standard Time),377245.90000000596,097_m_f_n_a.png,O,z,631,15,1,1649.0,375596.90000000596,7072,NNB,B,14
15,test,5,0.0,1-Back,1,m,Fri Feb 28 2025 15:19:06 GMT-0600 (Central Standard Time),378844.8000000119,065_o_m_n_a.png,O,m,549,16,1,1580.300000011921,377264.5,7072,NNB,B,15
16,test,5,0.0,1-Back,1,m,Fri Feb 28 2025 15:19:06 GMT-0600 (Central Standard Time),380477.3000000119,029_m_f_n_a.png,O,m,590,17,1,1615.6000000238419,378861.6999999881,7072,NNB,B,16
17,test,5,0.0,1-Back,1,m,Fri Feb 28 2025 15:19:06 GMT-0600 (Central Standard Time),382076.8000000119,178_m_m_n_a.png,O,m,549,18,1,1579.800000011921,380497.0,7072,NNB,B,17
0,prac,1,0.0,2-Back,,,Fri Feb 28 2025 15:19:06 GMT-0600 (Central Standard Time),382076.8000000119,013_y_m_n_a.png,O,space,9729,1,1,1579.800000011921,380497.0,7072,NNB,B,0
0,prac,1,0.0,2-Back,,,Fri Feb 28 2025 15:19:06 GMT-0600 (Central Standard Time),382076.8000000119,029_m_f_n_a.png,O,space,9729,2,1,1579.800000011921,380497.0,7072,NNB,B,0
1,prac,1,1.0,2-Back,1,m,Fri Feb 28 2025 15:19:06 GMT-0600 (Central Standard Time),517949.5,065_o_m_n_a.png,O,m,1358,3,1,3169.5,514780.0,7072,NNB,B,1
2,prac,1,0.0,2-Back,1,m,Fri Feb 28 2025 15:19:06 GMT-0600 (Central Standard Time),520249.0,086_o_f_n_a.png,O,m,1273,4,1,2262.0999999940395,517986.90000000596,7072,NNB,B,2
3,prac,1,0.0,2-Back,1,z,Fri Feb 28 2025 15:19:06 GMT-0600 (Central Standard Time),522497.0,065_o_m_n_a.png,O,z,1295,5,1,2213.0,520284.0,7072,NNB,B,3
3,prac,1,1.0,2-Back,0,z,Fri Feb 28 2025 15:19:06 GMT-0600 (Central Standard Time),525080.0,086_o_f_n_a.png,O,m,1801,6,1,2572.0,522508.0,7072,NNB,B,4
4,prac,1,0.0,2-Back,1,m,Fri Feb 28 2025 15:19:06 GMT-0600 (Central Standard Time),527263.099999994,178_m_m_n_a.png,O,m,1232,7,1,2149.5,525113.599999994,7072,NNB,B,5
5,prac,1,0.0,2-Back,1,m,Fri Feb 28 2025 15:19:06 GMT-0600 (Central Standard Time),529029.1999999881,176_o_m_n_a.png,O,m,813,8,1,1725.5,527303.6999999881,7072,NNB,B,6
6,prac,1,0.0,2-Back,1,m,Fri Feb 28 2025 15:19:06 GMT-0600 (Central Standard Time),530944.900000006,173_y_f_n_a.png,O,m,992,9,1,1892.5999999940395,529052.3000000119,7072,NNB,B,7
7,prac,1,1.0,2-Back,1,z,Fri Feb 28 2025 15:19:06 GMT-0600 (Central Standard Time),533394.400000006,176_o_m_n_a.png,O,z,1643,10,1,2425.2000000178814,530969.1999999881,7072,NNB,B,8
8,prac,1,0.0,2-Back,1,m,Fri Feb 28 2025 15:19:06 GMT-0600 (Central Standard Time),535176.8000000119,152_y_f_n_a.png,O,m,853,11,1,1741.0,533435.8000000119,7072,NNB,B,9
8,prac,1,0.0,2-Back,0,m,Fri Feb 28 2025 15:19:06 GMT-0600 (Central Standard Time),537226.5,178_m_m_n_a.png,O,z,1130,12,1,2026.4000000059605,535200.099999994,7072,NNB,B,10
0,test,1,0.0,2-Back,,,Fri Feb 28 2025 15:19:06 GMT-0600 (Central Standard Time),537226.5,153_y_m_n_a.png,O,space,8804,1,1,2026.4000000059605,535200.099999994,7072,NNB,B,0
0,test,1,0.0,2-Back,,,Fri Feb 28 2025 15:19:06 GMT-0600 (Central Standard Time),537226.5,153_y_m_n_a.png,O,space,8804,2,1,2026.4000000059605,535200.099999994,7072,NNB,B,0
1,test,1,0.0,2-Back,1,m,Fri Feb 28 2025 15:19:06 GMT-0600 (Central Standard Time),562051.5,086_o_f_n_a.png,O,m,1199,3,1,2224.5,559827.0,7072,NNB,B,1
2,test,1,0.0,2-Back,1,m,Fri Feb 28 2025 15:19:06 GMT-0600 (Central Standard Time),564017.5,126_m_m_n_a.png,O,m,929,4,1,1944.0,562073.5,7072,NNB,B,2
3,test,1,1.0,2-Back,1,z,Fri Feb 28 2025 15:19:06 GMT-0600 (Central Standard Time),566332.3000000119,086_o_f_n_a.png,O,z,1268,5,1,2291.0,564041.3000000119,7072,NNB,B,3
4,test,1,0.0,2-Back,1,m,Fri Feb 28 2025 15:19:06 GMT-0600 (Central Standard Time),568282.400000006,152_y_f_n_a.png,O,m,918,6,1,1945.4000000059605,566337.0,7072,NNB,B,4
4,test,1,0.0,2-Back,0,m,Fri Feb 28 2025 15:19:06 GMT-0600 (Central Standard Time),570298.599999994,126_m_m_n_a.png,O,z,985,7,1,2006.2999999821186,568292.3000000119,7072,NNB,B,5
5,test,1,1.0,2-Back,1,z,Fri Feb 28 2025 15:19:06 GMT-0600 (Central Standard Time),572497.6999999881,152_y_f_n_a.png,O,z,1152,8,1,2180.199999988079,570317.5,7072,NNB,B,6
6,test,1,0.0,2-Back,1,m,Fri Feb 28 2025 15:19:06 GMT-0600 (Central Standard Time),574563.8000000119,013_y_m_n_a.png,O,m,1025,9,1,2047.300000011921,572516.5,7072,NNB,B,7
7,test,1,0.0,2-Back,1,m,Fri Feb 28 2025 15:19:06 GMT-0600 (Central Standard Time),576446.5,110_o_f_n_a.png,O,m,839,10,1,1862.9000000059605,574583.599999994,7072,NNB,B,8
8,test,1,1.0,2-Back,1,z,Fri Feb 28 2025 15:19:06 GMT-0600 (Central Standard Time),578479.099999994,013_y_m_n_a.png,O,z,988,11,1,2011.7999999821186,576467.3000000119,7072,NNB,B,9
9,test,1,0.0,2-Back,1,m,Fri Feb 28 2025 15:19:06 GMT-0600 (Central Standard Time),580278.599999994,029_m_f_n_a.png,O,m,755,12,1,1774.9000000059605,578503.6999999881,7072,NNB,B,10
9,test,1,0.0,2-Back,0,m,Fri Feb 28 2025 15:19:06 GMT-0600 (Central Standard Time),583332.1999999881,029_m_f_n_a.png,O,None,2015,13,1,3035.2999999821186,580296.900000006,7072,NNB,B,11
10,test,1,0.0,2-Back,1,m,Fri Feb 28 2025 15:19:06 GMT-0600 (Central Standard Time),585526.900000006,065_o_m_n_a.png,O,m,1163,14,1,2176.300000011921,583350.599999994,7072,NNB,B,12
11,test,1,0.0,2-Back,1,m,Fri Feb 28 2025 15:19:06 GMT-0600 (Central Standard Time),587692.900000006,110_o_f_n_a.png,O,m,1115,15,1,2145.5,585547.400000006,7072,NNB,B,13
12,test,1,1.0,2-Back,1,z,Fri Feb 28 2025 15:19:06 GMT-0600 (Central Standard Time),589808.900000006,065_o_m_n_a.png,O,z,1070,16,1,2096.2000000178814,587712.6999999881,7072,NNB,B,14
13,test,1,0.0,2-Back,1,m,Fri Feb 28 2025 15:19:06 GMT-0600 (Central Standard Time),591691.5,097_m_f_n_a.png,O,m,842,17,1,1861.800000011921,589829.6999999881,7072,NNB,B,15
14,test,1,0.0,2-Back,1,m,Fri Feb 28 2025 15:19:06 GMT-0600 (Central Standard Time),593757.900000006,178_m_m_n_a.png,O,m,1031,18,1,2038.2000000178814,591719.6999999881,7072,NNB,B,16
0,test,2,0.0,2-Back,,,Fri Feb 28 2025 15:19:06 GMT-0600 (Central Standard Time),593757.900000006,178_m_m_n_a.png,O,space,2141,1,1,2038.2000000178814,591719.6999999881,7072,NNB,B,0
0,test,2,0.0,2-Back,,,Fri Feb 28 2025 15:19:06 GMT-0600 (Central Standard Time),593757.900000006,173_y_f_n_a.png,O,space,2141,2,1,2038.2000000178814,591719.6999999881,7072,NNB,B,0
1,test,2,1.0,2-Back,1,z,Fri Feb 28 2025 15:19:06 GMT-0600 (Central Standard Time),604070.6999999881,178_m_m_n_a.png,O,z,1928,3,1,2943.0999999940395,601127.599999994,7072,NNB,B,1
2,test,2,0.0,2-Back,1,m,Fri Feb 28 2025 15:19:06 GMT-0600 (Central Standard Time),605986.8000000119,097_m_f_n_a.png,O,m,876,4,1,1894.4000000059605,604092.400000006,7072,NNB,B,2
2,test,2,0.0,2-Back,0,m,Fri Feb 28 2025 15:19:06 GMT-0600 (Central Standard Time),608086.1999999881,173_y_f_n_a.png,O,z,1060,5,1,2078.0999999940395,606008.099999994,7072,NNB,B,3
3,test,2,0.0,2-Back,1,m,Fri Feb 28 2025 15:19:06 GMT-0600 (Central Standard Time),610102.099999994,065_o_m_n_a.png,O,m,980,6,1,1995.2999999821186,608106.8000000119,7072,NNB,B,4
4,test,2,0.0,2-Back,1,m,Fri Feb 28 2025 15:19:06 GMT-0600 (Central Standard Time),612007.5,152_y_f_n_a.png,O,m,871,7,1,1886.199999988079,610121.3000000119,7072,NNB,B,5
5,test,2,1.0,2-Back,1,z,Fri Feb 28 2025 15:19:06 GMT-0600 (Central Standard Time),614118.1999999881,065_o_m_n_a.png,O,z,1098,8,1,2106.2999999821186,612011.900000006,7072,NNB,B,6
6,test,2,0.0,2-Back,1,m,Fri Feb 28 2025 15:19:06 GMT-0600 (Central Standard Time),616117.099999994,013_y_m_n_a.png,O,m,949,9,1,1981.0999999940395,614136.0,7072,NNB,B,7
7,test,2,0.0,2-Back,1,m,Fri Feb 28 2025 15:19:06 GMT-0600 (Central Standard Time),618366.099999994,013_y_m_n_a.png,O,m,1214,10,1,2230.5,616135.599999994,7072,NNB,B,8
8,test,2,0.0,2-Back,1,m,Fri Feb 28 2025 15:19:06 GMT-0600 (Central Standard Time),620532.3000000119,029_m_f_n_a.png,O,m,1117,11,1,2145.5,618386.8000000119,7072,NNB,B,9
9,test,2,0.0,2-Back,1,m,Fri Feb 28 2025 15:19:06 GMT-0600 (Central Standard Time),622881.1999999881,173_y_f_n_a.png,O,m,1310,12,1,2330.5999999940395,620550.599999994,7072,NNB,B,10
10,test,2,1.0,2-Back,1,z,Fri Feb 28 2025 15:19:06 GMT-0600 (Central Standard Time),625114.0,029_m_f_n_a.png,O,z,1185,13,1,2205.0999999940395,622908.900000006,7072,NNB,B,11
11,test,2,0.0,2-Back,1,m,Fri Feb 28 2025 15:19:06 GMT-0600 (Central Standard Time),626896.8000000119,176_o_m_n_a.png,O,m,744,14,1,1764.300000011921,625132.5,7072,NNB,B,12
12,test,2,0.0,2-Back,1,m,Fri Feb 28 2025 15:19:06 GMT-0600 (Central Standard Time),628996.1999999881,176_o_m_n_a.png,O,m,1058,15,1,2081.7999999821186,626914.400000006,7072,NNB,B,13
13,test,2,0.0,2-Back,1,m,Fri Feb 28 2025 15:19:06 GMT-0600 (Central Standard Time),630928.8000000119,110_o_f_n_a.png,O,m,886,16,1,1913.2000000178814,629015.599999994,7072,NNB,B,14
14,test,2,0.0,2-Back,1,m,Fri Feb 28 2025 15:19:06 GMT-0600 (Central Standard Time),633011.099999994,126_m_m_n_a.png,O,m,1043,17,1,2063.699999988079,630947.400000006,7072,NNB,B,15
15,test,2,1.0,2-Back,1,z,Fri Feb 28 2025 15:19:06 GMT-0600 (Central Standard Time),634844.099999994,110_o_f_n_a.png,O,z,783,18,1,1813.2999999821186,633030.8000000119,7072,NNB,B,16
0,test,3,1.0,2-Back,,,Fri Feb 28 2025 15:19:06 GMT-0600 (Central Standard Time),634844.099999994,153_y_m_n_a.png,O,space,1319,1,1,1813.2999999821186,633030.8000000119,7072,NNB,B,0
0,test,3,1.0,2-Back,,,Fri Feb 28 2025 15:19:06 GMT-0600 (Central Standard Time),634844.099999994,153_y_m_n_a.png,O,space,1319,2,1,1813.2999999821186,633030.8000000119,7072,NNB,B,0
1,test,3,0.0,2-Back,1,m,Fri Feb 28 2025 15:19:06 GMT-0600 (Central Standard Time),643208.0,110_o_f_n_a.png,O,m,785,3,1,1813.4000000059605,641394.599999994,7072,NNB,B,1
2,test,3,0.0,2-Back,1,m,Fri Feb 28 2025 15:19:06 GMT-0600 (Central Standard Time),645157.3000000119,178_m_m_n_a.png,O,m,898,4,1,1929.6000000238419,643227.6999999881,7072,NNB,B,2
3,test,3,1.0,2-Back,1,z,Fri Feb 28 2025 15:19:06 GMT-0600 (Central Standard Time),647040.099999994,110_o_f_n_a.png,O,z,845,5,1,1856.199999988079,645183.900000006,7072,NNB,B,3
4,test,3,0.0,2-Back,1,m,Fri Feb 28 2025 15:19:06 GMT-0600 (Central Standard Time),649039.599999994,013_y_m_n_a.png,O,m,956,6,1,1977.7999999821186,647061.8000000119,7072,NNB,B,4
4,test,3,0.0,2-Back,0,m,Fri Feb 28 2025 15:19:06 GMT-0600 (Central Standard Time),652005.8000000119,178_m_m_n_a.png,O,z,1931,7,1,2951.100000023842,649054.6999999881,7072,NNB,B,5
5,test,3,1.0,2-Back,1,z,Fri Feb 28 2025 15:19:06 GMT-0600 (Central Standard Time),654254.3000000119,013_y_m_n_a.png,O,z,1214,8,1,2227.300000011921,652027.0,7072,NNB,B,6
6,test,3,0.0,2-Back,1,m,Fri Feb 28 2025 15:19:06 GMT-0600 (Central Standard Time),656837.099999994,173_y_f_n_a.png,O,m,1532,9,1,2562.0,654275.099999994,7072,NNB,B,7
6,test,3,0.0,2-Back,0,m,Fri Feb 28 2025 15:19:06 GMT-0600 (Central Standard Time),658853.0,126_m_m_n_a.png,O,z,974,10,1,1997.0999999940395,656855.900000006,7072,NNB,B,8
7,test,3,1.0,2-Back,1,z,Fri Feb 28 2025 15:19:06 GMT-0600 (Central Standard Time),661151.900000006,173_y_f_n_a.png,O,z,1254,11,1,2280.800000011921,658871.099999994,7072,NNB,B,9
8,test,3,1.0,2-Back,1,z,Fri Feb 28 2025 15:19:06 GMT-0600 (Central Standard Time),663268.099999994,126_m_m_n_a.png,O,z,1067,12,1,2098.7999999821186,661169.3000000119,7072,NNB,B,10
9,test,3,0.0,2-Back,1,m,Fri Feb 28 2025 15:19:06 GMT-0600 (Central Standard Time),664984.1999999881,110_o_f_n_a.png,O,m,678,13,1,1698.5999999940395,663285.599999994,7072,NNB,B,11
10,test,3,0.0,2-Back,1,m,Fri Feb 28 2025 15:19:06 GMT-0600 (Central Standard Time),666783.8000000119,097_m_f_n_a.png,O,m,762,14,1,1781.0,665002.8000000119,7072,NNB,B,12
11,test,3,0.0,2-Back,1,m,Fri Feb 28 2025 15:19:06 GMT-0600 (Central Standard Time),668899.599999994,065_o_m_n_a.png,O,m,1067,15,1,2097.2999999821186,666802.3000000119,7072,NNB,B,13
12,test,3,1.0,2-Back,1,z,Fri Feb 28 2025 15:19:06 GMT-0600 (Central Standard Time),670865.400000006,097_m_f_n_a.png,O,z,919,16,1,1948.300000011921,668917.099999994,7072,NNB,B,14
13,test,3,0.0,2-Back,1,m,Fri Feb 28 2025 15:19:06 GMT-0600 (Central Standard Time),672798.5,086_o_f_n_a.png,O,m,897,17,1,1911.5,670887.0,7072,NNB,B,15
14,test,3,0.0,2-Back,1,m,Fri Feb 28 2025 15:19:06 GMT-0600 (Central Standard Time),674947.6999999881,086_o_f_n_a.png,O,m,1100,18,1,2128.7999999821186,672818.900000006,7072,NNB,B,16
0,test,4,0.0,2-Back,,,Fri Feb 28 2025 15:19:06 GMT-0600 (Central Standard Time),674947.6999999881,176_o_m_n_a.png,O,space,959,1,1,2128.7999999821186,672818.900000006,7072,NNB,B,0
0,test,4,0.0,2-Back,,,Fri Feb 28 2025 15:19:06 GMT-0600 (Central Standard Time),674947.6999999881,152_y_f_n_a.png,O,space,959,2,1,2128.7999999821186,672818.900000006,7072,NNB,B,0
1,test,4,1.0,2-Back,1,z,Fri Feb 28 2025 15:19:06 GMT-0600 (Central Standard Time),683327.400000006,176_o_m_n_a.png,O,z,1043,3,1,2066.7000000178814,681260.6999999881,7072,NNB,B,1
2,test,4,1.0,2-Back,1,z,Fri Feb 28 2025 15:19:06 GMT-0600 (Central Standard Time),685227.5,152_y_f_n_a.png,O,z,867,4,1,1896.0,683331.5,7072,NNB,B,2
3,test,4,0.0,2-Back,1,m,Fri Feb 28 2025 15:19:06 GMT-0600 (Central Standard Time),687477.0,110_o_f_n_a.png,O,m,1200,5,1,2229.9000000059605,685247.099999994,7072,NNB,B,3
4,test,4,0.0,2-Back,1,m,Fri Feb 28 2025 15:19:06 GMT-0600 (Central Standard Time),689576.3000000119,110_o_f_n_a.png,O,m,1054,6,1,2080.5,687495.8000000119,7072,NNB,B,4
5,test,4,0.0,2-Back,1,m,Fri Feb 28 2025 15:19:06 GMT-0600 (Central Standard Time),691758.5,029_m_f_n_a.png,O,m,1147,7,1,2161.5999999940395,689596.900000006,7072,NNB,B,5
6,test,4,0.0,2-Back,1,m,Fri Feb 28 2025 15:19:06 GMT-0600 (Central Standard Time),693558.1999999881,013_y_m_n_a.png,O,m,757,8,1,1781.0,691777.1999999881,7072,NNB,B,6
7,test,4,1.0,2-Back,1,z,Fri Feb 28 2025 15:19:06 GMT-0600 (Central Standard Time),695524.3000000119,029_m_f_n_a.png,O,z,916,9,1,1949.5,693574.8000000119,7072,NNB,B,7
8,test,4,0.0,2-Back,1,m,Fri Feb 28 2025 15:19:06 GMT-0600 (Central Standard Time),697556.8000000119,126_m_m_n_a.png,O,m,990,10,1,2013.2000000178814,695543.599999994,7072,NNB,B,8
8,test,4,0.0,2-Back,0,m,Fri Feb 28 2025 15:19:06 GMT-0600 (Central Standard Time),700606.1999999881,013_y_m_n_a.png,O,None,2014,11,1,3032.199999988079,697574.0,7072,NNB,B,9
9,test,4,0.0,2-Back,1,m,Fri Feb 28 2025 15:19:06 GMT-0600 (Central Standard Time),702605.1999999881,086_o_f_n_a.png,O,m,949,12,1,1975.5,700629.6999999881,7072,NNB,B,10
10,test,4,0.0,2-Back,1,m,Fri Feb 28 2025 15:19:06 GMT-0600 (Central Standard Time),704437.900000006,153_y_m_n_a.png,O,m,789,13,1,1812.0999999940395,702625.8000000119,7072,NNB,B,11
11,test,4,1.0,2-Back,1,z,Fri Feb 28 2025 15:19:06 GMT-0600 (Central Standard Time),706437.400000006,086_o_f_n_a.png,O,z,957,14,1,1981.0,704456.400000006,7072,NNB,B,12
12,test,4,1.0,2-Back,1,z,Fri Feb 28 2025 15:19:06 GMT-0600 (Central Standard Time),708303.400000006,153_y_m_n_a.png,O,z,821,15,1,1846.7000000178814,706456.6999999881,7072,NNB,B,13
13,test,4,0.0,2-Back,1,m,Fri Feb 28 2025 15:19:06 GMT-0600 (Central Standard Time),710136.3000000119,178_m_m_n_a.png,O,m,787,16,1,1816.0,708320.3000000119,7072,NNB,B,14
14,test,4,0.0,2-Back,1,m,Fri Feb 28 2025 15:19:06 GMT-0600 (Central Standard Time),712568.400000006,097_m_f_n_a.png,O,m,1387,17,1,2415.5,710152.900000006,7072,NNB,B,15
15,test,4,1.0,2-Back,1,z,Fri Feb 28 2025 15:19:06 GMT-0600 (Central Standard Time),714451.400000006,178_m_m_n_a.png,O,z,834,18,1,1860.2000000178814,712591.1999999881,7072,NNB,B,16
0,test,5,1.0,2-Back,,,Fri Feb 28 2025 15:19:06 GMT-0600 (Central Standard Time),714451.400000006,153_y_m_n_a.png,O,space,1063,1,1,1860.2000000178814,712591.1999999881,7072,NNB,B,0
0,test,5,1.0,2-Back,,,Fri Feb 28 2025 15:19:06 GMT-0600 (Central Standard Time),714451.400000006,097_m_f_n_a.png,O,space,1063,2,1,1860.2000000178814,712591.1999999881,7072,NNB,B,0
1,test,5,1.0,2-Back,1,z,Fri Feb 28 2025 15:19:06 GMT-0600 (Central Standard Time),722798.099999994,153_y_m_n_a.png,O,z,1047,3,1,2069.4000000059605,720728.6999999881,7072,NNB,B,1
2,test,5,1.0,2-Back,1,z,Fri Feb 28 2025 15:19:06 GMT-0600 (Central Standard Time),724582.099999994,097_m_f_n_a.png,O,z,729,4,1,1743.699999988079,722838.400000006,7072,NNB,B,2
3,test,5,0.0,2-Back,1,m,Fri Feb 28 2025 15:19:06 GMT-0600 (Central Standard Time),726664.1999999881,086_o_f_n_a.png,O,m,1025,5,1,2061.699999988079,724602.5,7072,NNB,B,3
3,test,5,0.0,2-Back,0,m,Fri Feb 28 2025 15:19:06 GMT-0600 (Central Standard Time),728863.400000006,153_y_m_n_a.png,O,z,1155,6,1,2180.800000011921,726682.599999994,7072,NNB,B,4
4,test,5,0.0,2-Back,1,m,Fri Feb 28 2025 15:19:06 GMT-0600 (Central Standard Time),730830.099999994,173_y_f_n_a.png,O,m,931,7,1,1946.699999988079,728883.400000006,7072,NNB,B,5
5,test,5,0.0,2-Back,1,m,Fri Feb 28 2025 15:19:06 GMT-0600 (Central Standard Time),733012.099999994,086_o_f_n_a.png,O,m,1141,8,1,2158.199999988079,730853.900000006,7072,NNB,B,6
6,test,5,1.0,2-Back,1,z,Fri Feb 28 2025 15:19:06 GMT-0600 (Central Standard Time),734794.1999999881,173_y_f_n_a.png,O,z,741,9,1,1760.3999999761581,733033.8000000119,7072,NNB,B,7
7,test,5,0.0,2-Back,1,m,Fri Feb 28 2025 15:19:06 GMT-0600 (Central Standard Time),736850.5,065_o_m_n_a.png,O,m,1038,10,1,2047.699999988079,734802.8000000119,7072,NNB,B,8
8,test,5,0.0,2-Back,1,m,Fri Feb 28 2025 15:19:06 GMT-0600 (Central Standard Time),738626.8000000119,029_m_f_n_a.png,O,m,760,11,1,1772.4000000059605,736854.400000006,7072,NNB,B,9
9,test,5,0.0,2-Back,1,m,Fri Feb 28 2025 15:19:06 GMT-0600 (Central Standard Time),740529.900000006,126_m_m_n_a.png,O,m,864,12,1,1884.0999999940395,738645.8000000119,7072,NNB,B,10
9,test,5,0.0,2-Back,0,m,Fri Feb 28 2025 15:19:06 GMT-0600 (Central Standard Time),742242.3000000119,065_o_m_n_a.png,O,z,676,13,1,1693.5,740548.8000000119,7072,NNB,B,11
9,test,5,1.0,2-Back,0,z,Fri Feb 28 2025 15:19:06 GMT-0600 (Central Standard Time),744375.0,126_m_m_n_a.png,O,m,1088,14,1,2115.300000011921,742259.6999999881,7072,NNB,B,12
10,test,5,0.0,2-Back,1,m,Fri Feb 28 2025 15:19:06 GMT-0600 (Central Standard Time),746490.900000006,152_y_f_n_a.png,O,m,1069,15,1,2089.800000011921,744401.099999994,7072,NNB,B,13
11,test,5,0.0,2-Back,1,m,Fri Feb 28 2025 15:19:06 GMT-0600 (Central Standard Time),748456.8000000119,176_o_m_n_a.png,O,m,919,16,1,1946.6000000238419,746510.1999999881,7072,NNB,B,14
12,test,5,0.0,2-Back,1,m,Fri Feb 28 2025 15:19:06 GMT-0600 (Central Standard Time),750272.3000000119,029_m_f_n_a.png,O,m,785,17,1,1806.800000011921,748465.5,7072,NNB,B,15
13,test,5,1.0,2-Back,1,z,Fri Feb 28 2025 15:19:06 GMT-0600 (Central Standard Time),752089.1999999881,176_o_m_n_a.png,O,z,786,18,1,1806.8999999761581,750282.3000000119,7072,NNB,B,16
