acc_sum,block,block_c,change,condition,correct,correct_response,datetime,endtime,face,project,response,response_time,row_sel,session_number,start_end,starttime,subject_id,task,task_vers,trial
0,prac,1,,1-Back,,,Thu Feb 20 2025 13:16:04 GMT-0600 (Central Standard Time),,005_o_f_d_a.png,I,space,9128,1,1,,,8030,VNB,B,0
1,prac,1,0.0,1-Back,1,m,Thu Feb 20 2025 13:16:04 GMT-0600 (Central Standard Time),188750.2999999998,020_y_f_n_a.png,I,m,1383,2,1,2257.699999999255,186492.60000000056,8030,VNB,B,1
1,prac,1,0.0,1-Back,0,m,Thu Feb 20 2025 13:16:04 GMT-0600 (Central Standard Time),191649.2000000002,007_m_m_h_a.png,I,None,2014,3,1,2891.7999999998137,188757.40000000037,8030,VNB,B,2
1,prac,1,0.0,1-Back,0,m,Thu Feb 20 2025 13:16:04 GMT-0600 (Central Standard Time),193799.90000000037,016_y_m_d_a.png,I,z,1272,4,1,2144.600000000559,191655.2999999998,8030,VNB,B,3
2,prac,1,0.0,1-Back,1,m,Thu Feb 20 2025 13:16:04 GMT-0600 (Central Standard Time),195814.7000000002,005_o_f_n_a.png,I,m,1130,5,1,2009.0999999996275,193805.60000000056,8030,VNB,B,4
2,prac,1,1.0,1-Back,0,z,Thu Feb 20 2025 13:16:04 GMT-0600 (Central Standard Time),197680.7999999998,016_y_m_n_a.png,I,m,971,6,1,1860.3999999994412,195820.40000000037,8030,VNB,B,5
2,prac,1,0.0,1-Back,0,m,Thu Feb 20 2025 13:16:04 GMT-0600 (Central Standard Time),200396.40000000037,004_o_m_h_a.png,I,z,1844,7,1,2708.2000000001863,197688.2000000002,8030,VNB,B,6
3,prac,1,0.0,1-Back,1,m,Thu Feb 20 2025 13:16:04 GMT-0600 (Central Standard Time),203229.0,011_m_f_d_a.png,I,m,1940,8,1,2826.5999999996275,200402.40000000037,8030,VNB,B,7
3,prac,1,1.0,1-Back,0,z,Thu Feb 20 2025 13:16:04 GMT-0600 (Central Standard Time),205478.10000000056,020_y_f_d_a.png,I,m,1377,9,1,2243.5,203234.60000000056,8030,VNB,B,8
3,prac,1,0.0,1-Back,0,m,Thu Feb 20 2025 13:16:04 GMT-0600 (Central Standard Time),208377.60000000056,007_m_m_n_a.png,I,None,2016,10,1,2894.0,205483.60000000056,8030,VNB,B,9
3,prac,1,0.0,1-Back,0,m,Thu Feb 20 2025 13:16:04 GMT-0600 (Central Standard Time),211259.7999999998,005_o_f_h_a.png,I,None,2002,11,1,2876.2999999998137,208383.5,8030,VNB,B,10
4,prac,1,0.0,1-Back,1,m,Thu Feb 20 2025 13:16:04 GMT-0600 (Central Standard Time),213460.40000000037,016_y_m_d_a.png,I,m,1301,12,1,2194.9000000003725,211265.5,8030,VNB,B,11
0,prac,2,0.0,1-Back,,,Thu Feb 20 2025 13:16:04 GMT-0600 (Central Standard Time),213460.40000000037,005_o_f_d_a.png,I,a,12321,1,1,2194.9000000003725,211265.5,8030,VNB,B,0
1,prac,2,0.0,1-Back,1,m,Thu Feb 20 2025 13:16:04 GMT-0600 (Central Standard Time),231037.7999999998,020_y_f_n_a.png,I,m,1266,2,1,2171.0999999996275,228866.7000000002,8030,VNB,B,1
2,prac,2,0.0,1-Back,1,m,Thu Feb 20 2025 13:16:04 GMT-0600 (Central Standard Time),233519.60000000056,007_m_m_h_a.png,I,m,1590,3,1,2476.5,231043.10000000056,8030,VNB,B,2
2,prac,2,0.0,1-Back,0,m,Thu Feb 20 2025 13:16:04 GMT-0600 (Central Standard Time),235552.7000000002,016_y_m_d_a.png,I,z,1244,4,1,2027.2000000001863,233525.5,8030,VNB,B,3
3,prac,2,0.0,1-Back,1,m,Thu Feb 20 2025 13:16:04 GMT-0600 (Central Standard Time),237685.10000000056,005_o_f_n_a.png,I,m,1242,5,1,2126.300000000745,235558.7999999998,8030,VNB,B,4
3,prac,2,1.0,1-Back,0,z,Thu Feb 20 2025 13:16:04 GMT-0600 (Central Standard Time),240583.7999999998,016_y_m_n_a.png,I,None,2014,6,1,2893.7999999998137,237690.0,8030,VNB,B,5
4,prac,2,0.0,1-Back,1,m,Thu Feb 20 2025 13:16:04 GMT-0600 (Central Standard Time),243384.2999999998,004_o_m_h_a.png,I,m,1930,7,1,2795.0,240589.2999999998,8030,VNB,B,6
5,prac,2,0.0,1-Back,1,m,Thu Feb 20 2025 13:16:04 GMT-0600 (Central Standard Time),245415.90000000037,011_m_f_d_a.png,I,m,1127,8,1,2025.6000000005588,243390.2999999998,8030,VNB,B,7
6,prac,2,1.0,1-Back,1,z,Thu Feb 20 2025 13:16:04 GMT-0600 (Central Standard Time),247398.7999999998,020_y_f_d_a.png,I,z,1101,9,1,1977.5999999996275,245421.2000000002,8030,VNB,B,8
7,prac,2,0.0,1-Back,1,m,Thu Feb 20 2025 13:16:04 GMT-0600 (Central Standard Time),250031.10000000056,007_m_m_n_a.png,I,m,1742,10,1,2627.600000000559,247403.5,8030,VNB,B,9
7,prac,2,0.0,1-Back,0,m,Thu Feb 20 2025 13:16:04 GMT-0600 (Central Standard Time),251997.2000000002,005_o_f_h_a.png,I,z,1083,11,1,1961.2999999998137,250035.90000000037,8030,VNB,B,10
8,prac,2,0.0,1-Back,1,m,Thu Feb 20 2025 13:16:04 GMT-0600 (Central Standard Time),254346.40000000037,016_y_m_d_a.png,I,m,1450,12,1,2343.5,252002.90000000037,8030,VNB,B,11
0,test,1,0.0,1-Back,,,Thu Feb 20 2025 13:16:04 GMT-0600 (Central Standard Time),254346.40000000037,020_y_f_d_a.png,I,space,17121,1,1,2343.5,252002.90000000037,8030,VNB,B,0
1,test,1,0.0,1-Back,1,m,Thu Feb 20 2025 13:16:04 GMT-0600 (Central Standard Time),284920.2000000002,011_m_f_n_a.png,I,m,910,2,1,1928.5999999996275,282991.60000000056,8030,VNB,B,1
2,test,1,0.0,1-Back,1,m,Thu Feb 20 2025 13:16:04 GMT-0600 (Central Standard Time),287102.7999999998,004_o_m_h_a.png,I,m,1153,3,1,2178.399999999441,284924.4000000004,8030,VNB,B,2
3,test,1,1.0,1-Back,1,z,Thu Feb 20 2025 13:16:04 GMT-0600 (Central Standard Time),289301.9000000004,007_m_m_h_a.png,I,z,1170,4,1,2194.9000000003725,287107.0,8030,VNB,B,3
4,test,1,0.0,1-Back,1,m,Thu Feb 20 2025 13:16:04 GMT-0600 (Central Standard Time),291401.2999999998,005_o_f_n_a.png,I,m,1067,5,1,2095.2999999998137,289306.0,8030,VNB,B,4
4,test,1,0.0,1-Back,0,m,Thu Feb 20 2025 13:16:04 GMT-0600 (Central Standard Time),293900.60000000056,016_y_m_d_a.png,I,z,1472,6,1,2495.100000000559,291405.5,8030,VNB,B,5
5,test,1,1.0,1-Back,1,z,Thu Feb 20 2025 13:16:04 GMT-0600 (Central Standard Time),296333.2000000002,011_m_f_d_a.png,I,z,1413,7,1,2428.5999999996275,293904.60000000056,8030,VNB,B,6
6,test,1,0.0,1-Back,1,m,Thu Feb 20 2025 13:16:04 GMT-0600 (Central Standard Time),298566.10000000056,020_y_f_h_a.png,I,m,1204,8,1,2228.9000000003725,296337.2000000002,8030,VNB,B,7
7,test,1,0.0,1-Back,1,m,Thu Feb 20 2025 13:16:04 GMT-0600 (Central Standard Time),301131.60000000056,004_o_m_n_a.png,I,m,1548,9,1,2561.600000000559,298570.0,8030,VNB,B,8
7,test,1,0.0,1-Back,0,m,Thu Feb 20 2025 13:16:04 GMT-0600 (Central Standard Time),304164.10000000056,016_y_m_h_a.png,I,None,2016,10,1,3028.4000000003725,301135.7000000002,8030,VNB,B,9
8,test,1,0.0,1-Back,1,m,Thu Feb 20 2025 13:16:04 GMT-0600 (Central Standard Time),306546.5,004_o_m_d_a.png,I,m,1365,11,1,2378.7000000001863,304167.7999999998,8030,VNB,B,10
9,test,1,1.0,1-Back,1,z,Thu Feb 20 2025 13:16:04 GMT-0600 (Central Standard Time),308812.5,005_o_f_d_a.png,I,z,1247,12,1,2262.899999999441,306549.60000000056,8030,VNB,B,11
10,test,1,0.0,1-Back,1,m,Thu Feb 20 2025 13:16:04 GMT-0600 (Central Standard Time),310895.2000000002,007_m_m_n_a.png,I,m,1052,13,1,2078.7999999998137,308816.4000000004,8030,VNB,B,12
10,test,1,1.0,1-Back,0,z,Thu Feb 20 2025 13:16:04 GMT-0600 (Central Standard Time),313161.5,020_y_f_n_a.png,I,m,1233,14,1,2262.7999999998137,310898.7000000002,8030,VNB,B,13
11,test,1,0.0,1-Back,1,m,Thu Feb 20 2025 13:16:04 GMT-0600 (Central Standard Time),315360.5,011_m_f_h_a.png,I,m,1168,15,1,2194.899999999441,313165.60000000056,8030,VNB,B,14
11,test,1,0.0,1-Back,0,m,Thu Feb 20 2025 13:16:04 GMT-0600 (Central Standard Time),317859.7999999998,007_m_m_d_a.png,I,z,1480,16,1,2495.399999999441,315364.4000000004,8030,VNB,B,15
12,test,1,0.0,1-Back,1,m,Thu Feb 20 2025 13:16:04 GMT-0600 (Central Standard Time),320058.9000000004,016_y_m_n_a.png,I,m,1181,17,1,2195.7000000001863,317863.2000000002,8030,VNB,B,16
13,test,1,0.0,1-Back,1,m,Thu Feb 20 2025 13:16:04 GMT-0600 (Central Standard Time),322508.4000000004,005_o_f_h_a.png,I,m,1422,18,1,2445.7999999998137,320062.60000000056,8030,VNB,B,17
0,test,2,0.0,1-Back,,,Thu Feb 20 2025 13:16:04 GMT-0600 (Central Standard Time),322508.4000000004,016_y_m_n_a.png,I,space,5117,1,1,2445.7999999998137,320062.60000000056,8030,VNB,B,0
1,test,2,0.0,1-Back,1,m,Thu Feb 20 2025 13:16:04 GMT-0600 (Central Standard Time),331955.2999999998,020_y_f_h_a.png,I,m,1273,2,1,2294.899999999441,329660.4000000004,8030,VNB,B,1
2,test,2,1.0,1-Back,1,m,Thu Feb 20 2025 13:16:04 GMT-0600 (Central Standard Time),334288.2999999998,004_o_m_n_a.png,I,m,1310,3,1,2328.699999999255,331959.60000000056,8030,VNB,B,2
3,test,2,0.0,1-Back,1,m,Thu Feb 20 2025 13:16:04 GMT-0600 (Central Standard Time),336870.7999999998,011_m_f_d_a.png,I,m,1561,4,1,2578.899999999441,334291.9000000004,8030,VNB,B,3
4,test,2,0.0,1-Back,1,z,Thu Feb 20 2025 13:16:04 GMT-0600 (Central Standard Time),339069.7999999998,007_m_m_d_a.png,I,z,1170,5,1,2194.899999999441,336874.9000000004,8030,VNB,B,4
5,test,2,0.0,1-Back,1,m,Thu Feb 20 2025 13:16:04 GMT-0600 (Central Standard Time),341285.7999999998,016_y_m_h_a.png,I,m,1195,6,1,2211.7999999998137,339074.0,8030,VNB,B,5
6,test,2,1.0,1-Back,1,z,Thu Feb 20 2025 13:16:04 GMT-0600 (Central Standard Time),343485.2000000002,005_o_f_h_a.png,I,z,1180,7,1,2195.7000000001863,341289.5,8030,VNB,B,6
7,test,2,0.0,1-Back,1,m,Thu Feb 20 2025 13:16:04 GMT-0600 (Central Standard Time),345584.60000000056,011_m_f_n_a.png,I,m,1068,8,1,2096.100000000559,343488.5,8030,VNB,B,7
8,test,2,0.0,1-Back,1,m,Thu Feb 20 2025 13:16:04 GMT-0600 (Central Standard Time),348217.10000000056,020_y_f_d_a.png,I,m,1598,9,1,2628.300000000745,345588.7999999998,8030,VNB,B,8
9,test,2,0.0,1-Back,1,m,Thu Feb 20 2025 13:16:04 GMT-0600 (Central Standard Time),350883.0,007_m_m_n_a.png,I,m,1640,10,1,2662.5999999996275,348220.4000000004,8030,VNB,B,9
10,test,2,1.0,1-Back,1,m,Thu Feb 20 2025 13:16:04 GMT-0600 (Central Standard Time),353082.2000000002,011_m_f_h_a.png,I,m,1174,11,1,2195.0999999996275,350887.10000000056,8030,VNB,B,10
11,test,2,0.0,1-Back,1,z,Thu Feb 20 2025 13:16:04 GMT-0600 (Central Standard Time),354998.5,004_o_m_h_a.png,I,z,887,12,1,1912.0,353086.5,8030,VNB,B,11
12,test,2,0.0,1-Back,1,m,Thu Feb 20 2025 13:16:04 GMT-0600 (Central Standard Time),356930.7000000002,016_y_m_d_a.png,I,m,915,13,1,1928.2000000001863,355002.5,8030,VNB,B,12
13,test,2,0.0,1-Back,1,m,Thu Feb 20 2025 13:16:04 GMT-0600 (Central Standard Time),359146.9000000004,005_o_f_n_a.png,I,m,1190,14,1,2212.2999999998137,356934.60000000056,8030,VNB,B,13
14,test,2,0.0,1-Back,1,z,Thu Feb 20 2025 13:16:04 GMT-0600 (Central Standard Time),361379.7999999998,020_y_f_n_a.png,I,z,1206,15,1,2228.5,359151.2999999998,8030,VNB,B,14
15,test,2,1.0,1-Back,1,m,Thu Feb 20 2025 13:16:04 GMT-0600 (Central Standard Time),363462.2000000002,007_m_m_h_a.png,I,m,1054,16,1,2078.5999999996275,361383.60000000056,8030,VNB,B,15
16,test,2,0.0,1-Back,1,m,Thu Feb 20 2025 13:16:04 GMT-0600 (Central Standard Time),365644.7999999998,005_o_f_d_a.png,I,m,1163,17,1,2178.899999999441,363465.9000000004,8030,VNB,B,16
17,test,2,1.0,1-Back,1,z,Thu Feb 20 2025 13:16:04 GMT-0600 (Central Standard Time),367760.60000000056,004_o_m_d_a.png,I,z,1084,18,1,2112.4000000003725,365648.2000000002,8030,VNB,B,17
0,test,3,1.0,1-Back,,,Thu Feb 20 2025 13:16:04 GMT-0600 (Central Standard Time),367760.60000000056,005_o_f_h_a.png,I,space,2017,1,1,2112.4000000003725,365648.2000000002,8030,VNB,B,0
1,test,3,0.0,1-Back,1,m,Thu Feb 20 2025 13:16:04 GMT-0600 (Central Standard Time),373859.2000000002,011_m_f_d_a.png,I,m,933,2,1,1945.5,371913.7000000002,8030,VNB,B,1
2,test,3,1.0,1-Back,1,m,Thu Feb 20 2025 13:16:04 GMT-0600 (Central Standard Time),376274.9000000004,007_m_m_n_a.png,I,m,1390,3,1,2412.0,373862.9000000004,8030,VNB,B,2
3,test,3,0.0,1-Back,1,z,Thu Feb 20 2025 13:16:04 GMT-0600 (Central Standard Time),378424.5,005_o_f_n_a.png,I,z,1118,4,1,2144.5999999996275,376279.9000000004,8030,VNB,B,3
4,test,3,1.0,1-Back,1,m,Thu Feb 20 2025 13:16:04 GMT-0600 (Central Standard Time),380423.60000000056,004_o_m_d_a.png,I,m,969,5,1,1993.800000000745,378429.7999999998,8030,VNB,B,4
5,test,3,0.0,1-Back,1,m,Thu Feb 20 2025 13:16:04 GMT-0600 (Central Standard Time),382489.7000000002,020_y_f_h_a.png,I,m,1033,6,1,2062.9000000003725,380426.7999999998,8030,VNB,B,5
6,test,3,0.0,1-Back,1,z,Thu Feb 20 2025 13:16:04 GMT-0600 (Central Standard Time),384605.7999999998,016_y_m_h_a.png,I,z,1096,7,1,2112.5999999996275,382493.2000000002,8030,VNB,B,6
7,test,3,0.0,1-Back,1,m,Thu Feb 20 2025 13:16:04 GMT-0600 (Central Standard Time),386705.0,011_m_f_n_a.png,I,m,1067,8,1,2095.0999999996275,384609.9000000004,8030,VNB,B,7
8,test,3,0.0,1-Back,1,m,Thu Feb 20 2025 13:16:04 GMT-0600 (Central Standard Time),388738.7000000002,020_y_f_d_a.png,I,m,1000,9,1,2029.7000000001863,386709.0,8030,VNB,B,8
9,test,3,1.0,1-Back,1,m,Thu Feb 20 2025 13:16:04 GMT-0600 (Central Standard Time),390803.4000000004,004_o_m_n_a.png,I,m,1048,10,1,2060.2999999998137,388743.10000000056,8030,VNB,B,9
10,test,3,0.0,1-Back,1,m,Thu Feb 20 2025 13:16:04 GMT-0600 (Central Standard Time),393169.4000000004,007_m_m_h_a.png,I,m,1334,11,1,2362.9000000003725,390806.5,8030,VNB,B,10
11,test,3,0.0,1-Back,1,z,Thu Feb 20 2025 13:16:04 GMT-0600 (Central Standard Time),395235.5,011_m_f_h_a.png,I,z,1040,12,1,2062.899999999441,393172.60000000056,8030,VNB,B,11
12,test,3,1.0,1-Back,1,m,Thu Feb 20 2025 13:16:04 GMT-0600 (Central Standard Time),397251.60000000056,005_o_f_d_a.png,I,m,989,13,1,2012.5,395239.10000000056,8030,VNB,B,12
13,test,3,0.0,1-Back,1,z,Thu Feb 20 2025 13:16:04 GMT-0600 (Central Standard Time),399334.2999999998,007_m_m_d_a.png,I,z,1054,14,1,2079.5,397254.7999999998,8030,VNB,B,13
14,test,3,0.0,1-Back,1,m,Thu Feb 20 2025 13:16:04 GMT-0600 (Central Standard Time),401283.7999999998,016_y_m_n_a.png,I,m,931,15,1,1946.0,399337.7999999998,8030,VNB,B,14
15,test,3,1.0,1-Back,1,m,Thu Feb 20 2025 13:16:04 GMT-0600 (Central Standard Time),403549.7000000002,004_o_m_h_a.png,I,m,1245,16,1,2261.5,401288.2000000002,8030,VNB,B,15
16,test,3,0.0,1-Back,1,m,Thu Feb 20 2025 13:16:04 GMT-0600 (Central Standard Time),406198.9000000004,016_y_m_d_a.png,I,m,1628,17,1,2645.7000000001863,403553.2000000002,8030,VNB,B,16
17,test,3,1.0,1-Back,1,m,Thu Feb 20 2025 13:16:04 GMT-0600 (Central Standard Time),408165.0,020_y_f_n_a.png,I,m,946,18,1,1962.2999999998137,406202.7000000002,8030,VNB,B,17
0,test,4,1.0,1-Back,,,Thu Feb 20 2025 13:16:04 GMT-0600 (Central Standard Time),408165.0,007_m_m_d_a.png,I,space,1580,1,1,1962.2999999998137,406202.7000000002,8030,VNB,B,0
1,test,4,0.0,1-Back,1,z,Thu Feb 20 2025 13:16:04 GMT-0600 (Central Standard Time),413763.2999999998,004_o_m_d_a.png,I,z,973,2,1,1995.699999999255,411767.60000000056,8030,VNB,B,1
2,test,4,0.0,1-Back,1,m,Thu Feb 20 2025 13:16:04 GMT-0600 (Central Standard Time),415778.9000000004,016_y_m_h_a.png,I,m,998,3,1,2011.4000000003725,413767.5,8030,VNB,B,2
3,test,4,0.0,1-Back,1,m,Thu Feb 20 2025 13:16:04 GMT-0600 (Central Standard Time),417778.60000000056,011_m_f_n_a.png,I,m,982,4,1,1996.6000000005588,415782.0,8030,VNB,B,3
4,test,4,1.0,1-Back,1,m,Thu Feb 20 2025 13:16:04 GMT-0600 (Central Standard Time),420061.5,005_o_f_h_a.png,I,m,1263,5,1,2279.7000000001863,417781.7999999998,8030,VNB,B,4
5,test,4,0.0,1-Back,1,m,Thu Feb 20 2025 13:16:04 GMT-0600 (Central Standard Time),421944.0,007_m_m_n_a.png,I,m,852,6,1,1878.8999999994412,420065.10000000056,8030,VNB,B,5
6,test,4,0.0,1-Back,1,m,Thu Feb 20 2025 13:16:04 GMT-0600 (Central Standard Time),424393.2000000002,016_y_m_d_a.png,I,m,1425,7,1,2445.5,421947.7000000002,8030,VNB,B,6
7,test,4,1.0,1-Back,1,z,Thu Feb 20 2025 13:16:04 GMT-0600 (Central Standard Time),426392.7000000002,020_y_f_d_a.png,I,z,976,8,1,1995.5999999996275,424397.10000000056,8030,VNB,B,7
8,test,4,0.0,1-Back,1,m,Thu Feb 20 2025 13:16:04 GMT-0600 (Central Standard Time),428291.9000000004,011_m_f_h_a.png,I,m,873,9,1,1896.0,426395.9000000004,8030,VNB,B,8
9,test,4,0.0,1-Back,1,z,Thu Feb 20 2025 13:16:04 GMT-0600 (Central Standard Time),430324.5,004_o_m_h_a.png,I,z,1013,10,1,2029.0,428295.5,8030,VNB,B,9
10,test,4,1.0,1-Back,1,m,Thu Feb 20 2025 13:16:04 GMT-0600 (Central Standard Time),432107.2999999998,005_o_f_n_a.png,I,m,764,11,1,1779.0,430328.2999999998,8030,VNB,B,10
11,test,4,0.0,1-Back,1,m,Thu Feb 20 2025 13:16:04 GMT-0600 (Central Standard Time),434706.60000000056,011_m_f_d_a.png,I,m,1575,12,1,2594.7000000001863,432111.9000000004,8030,VNB,B,11
12,test,4,0.0,1-Back,1,m,Thu Feb 20 2025 13:16:04 GMT-0600 (Central Standard Time),436789.2999999998,020_y_f_n_a.png,I,m,1062,13,1,2079.399999999441,434709.9000000004,8030,VNB,B,12
13,test,4,0.0,1-Back,1,m,Thu Feb 20 2025 13:16:04 GMT-0600 (Central Standard Time),439305.4000000004,005_o_f_d_a.png,I,m,1493,14,1,2512.100000000559,436793.2999999998,8030,VNB,B,13
14,test,4,0.0,1-Back,1,m,Thu Feb 20 2025 13:16:04 GMT-0600 (Central Standard Time),441354.5,020_y_f_h_a.png,I,m,1032,15,1,2045.7999999998137,439308.7000000002,8030,VNB,B,14
15,test,4,1.0,1-Back,1,z,Thu Feb 20 2025 13:16:04 GMT-0600 (Central Standard Time),443320.5,007_m_m_h_a.png,I,z,935,16,1,1961.8999999994412,441358.60000000056,8030,VNB,B,15
16,test,4,0.0,1-Back,1,m,Thu Feb 20 2025 13:16:04 GMT-0600 (Central Standard Time),445336.7000000002,004_o_m_n_a.png,I,m,985,17,1,2012.9000000003725,443323.7999999998,8030,VNB,B,16
17,test,4,1.0,1-Back,1,z,Thu Feb 20 2025 13:16:04 GMT-0600 (Central Standard Time),447186.2000000002,016_y_m_n_a.png,I,z,824,18,1,1845.5,445340.7000000002,8030,VNB,B,17
0,test,5,1.0,1-Back,,,Thu Feb 20 2025 13:16:04 GMT-0600 (Central Standard Time),447186.2000000002,004_o_m_n_a.png,I,space,1751,1,1,1845.5,445340.7000000002,8030,VNB,B,0
1,test,5,1.0,1-Back,1,m,Thu Feb 20 2025 13:16:04 GMT-0600 (Central Standard Time),452801.2999999998,005_o_f_h_a.png,I,m,801,2,1,1829.0,450972.2999999998,8030,VNB,B,1
2,test,5,0.0,1-Back,1,m,Thu Feb 20 2025 13:16:04 GMT-0600 (Central Standard Time),454917.2000000002,016_y_m_d_a.png,I,m,1096,3,1,2112.9000000003725,452804.2999999998,8030,VNB,B,2
3,test,5,0.0,1-Back,1,z,Thu Feb 20 2025 13:16:04 GMT-0600 (Central Standard Time),457016.2000000002,004_o_m_d_a.png,I,z,1076,4,1,2096.0,454920.2000000002,8030,VNB,B,3
4,test,5,0.0,1-Back,1,m,Thu Feb 20 2025 13:16:04 GMT-0600 (Central Standard Time),459198.9000000004,011_m_f_h_a.png,I,m,1153,5,1,2179.600000000559,457019.2999999998,8030,VNB,B,4
5,test,5,0.0,1-Back,1,m,Thu Feb 20 2025 13:16:04 GMT-0600 (Central Standard Time),461131.60000000056,020_y_f_n_a.png,I,m,914,6,1,1928.6000000005588,459203.0,8030,VNB,B,5
6,test,5,1.0,1-Back,1,z,Thu Feb 20 2025 13:16:04 GMT-0600 (Central Standard Time),463097.7000000002,005_o_f_n_a.png,I,z,934,7,1,1962.2999999998137,461135.4000000004,8030,VNB,B,6
7,test,5,0.0,1-Back,1,m,Thu Feb 20 2025 13:16:04 GMT-0600 (Central Standard Time),465313.9000000004,011_m_f_d_a.png,I,m,1119,8,1,2212.600000000559,463101.2999999998,8030,VNB,B,7
8,test,5,0.0,1-Back,1,m,Thu Feb 20 2025 13:16:04 GMT-0600 (Central Standard Time),467413.0,016_y_m_h_a.png,I,m,1071,9,1,2095.399999999441,465317.60000000056,8030,VNB,B,8
9,test,5,0.0,1-Back,1,m,Thu Feb 20 2025 13:16:04 GMT-0600 (Central Standard Time),469312.5,020_y_f_d_a.png,I,m,868,10,1,1895.5999999996275,467416.9000000004,8030,VNB,B,9
10,test,5,0.0,1-Back,1,m,Thu Feb 20 2025 13:16:04 GMT-0600 (Central Standard Time),471211.9000000004,007_m_m_n_a.png,I,m,873,11,1,1895.9000000003725,469316.0,8030,VNB,B,10
11,test,5,1.0,1-Back,1,z,Thu Feb 20 2025 13:16:04 GMT-0600 (Central Standard Time),473144.7000000002,011_m_f_n_a.png,I,z,910,12,1,1928.7000000001863,471216.0,8030,VNB,B,11
12,test,5,0.0,1-Back,1,m,Thu Feb 20 2025 13:16:04 GMT-0600 (Central Standard Time),475144.10000000056,004_o_m_h_a.png,I,m,969,13,1,1995.9000000003725,473148.2000000002,8030,VNB,B,12
13,test,5,0.0,1-Back,1,z,Thu Feb 20 2025 13:16:04 GMT-0600 (Central Standard Time),477093.60000000056,007_m_m_h_a.png,I,z,921,14,1,1945.9000000003725,475147.7000000002,8030,VNB,B,13
14,test,5,1.0,1-Back,1,m,Thu Feb 20 2025 13:16:04 GMT-0600 (Central Standard Time),479026.0,005_o_f_d_a.png,I,m,900,15,1,1928.0999999996275,477097.9000000004,8030,VNB,B,14
15,test,5,0.0,1-Back,1,m,Thu Feb 20 2025 13:16:04 GMT-0600 (Central Standard Time),481175.4000000004,016_y_m_n_a.png,I,m,1127,16,1,2145.7000000001863,479029.7000000002,8030,VNB,B,15
16,test,5,0.0,1-Back,1,m,Thu Feb 20 2025 13:16:04 GMT-0600 (Central Standard Time),483091.4000000004,020_y_f_h_a.png,I,m,898,17,1,1912.9000000003725,481178.5,8030,VNB,B,16
17,test,5,0.0,1-Back,1,m,Thu Feb 20 2025 13:16:04 GMT-0600 (Central Standard Time),485324.0,007_m_m_d_a.png,I,m,1206,18,1,2229.399999999441,483094.60000000056,8030,VNB,B,17
0,prac,1,0.0,2-Back,,,Thu Feb 20 2025 13:16:04 GMT-0600 (Central Standard Time),485324.0,011_m_f_n_a.png,I,space,4475,1,1,2229.399999999441,483094.60000000056,8030,VNB,B,0
0,prac,1,0.0,2-Back,,,Thu Feb 20 2025 13:16:04 GMT-0600 (Central Standard Time),485324.0,005_o_f_h_a.png,I,space,4475,2,1,2229.399999999441,483094.60000000056,8030,VNB,B,0
1,prac,1,0.0,2-Back,1,m,Thu Feb 20 2025 13:16:04 GMT-0600 (Central Standard Time),618166.1000000006,004_o_m_d_a.png,I,m,1476,3,1,2344.100000000559,615822.0,8030,VNB,B,1
2,prac,1,1.0,2-Back,1,z,Thu Feb 20 2025 13:16:04 GMT-0600 (Central Standard Time),620615.2999999998,007_m_m_h_a.png,I,z,1543,4,1,2443.5999999996275,618171.7000000002,8030,VNB,B,2
3,prac,1,0.0,2-Back,1,m,Thu Feb 20 2025 13:16:04 GMT-0600 (Central Standard Time),622797.7999999998,020_y_f_n_a.png,I,m,1301,5,1,2176.399999999441,620621.4000000004,8030,VNB,B,3
3,prac,1,1.0,2-Back,0,z,Thu Feb 20 2025 13:16:04 GMT-0600 (Central Standard Time),625630.5,004_o_m_h_a.png,I,m,1965,6,1,2826.5999999996275,622803.9000000004,8030,VNB,B,4
4,prac,1,1.0,2-Back,1,z,Thu Feb 20 2025 13:16:04 GMT-0600 (Central Standard Time),628379.5,016_y_m_n_a.png,I,z,1850,7,1,2742.7000000001863,625636.7999999998,8030,VNB,B,5
4,prac,1,0.0,2-Back,0,m,Thu Feb 20 2025 13:16:04 GMT-0600 (Central Standard Time),631261.9000000004,011_m_f_d_a.png,I,None,2004,8,1,2877.2999999998137,628384.6000000006,8030,VNB,B,6
5,prac,1,0.0,2-Back,1,m,Thu Feb 20 2025 13:16:04 GMT-0600 (Central Standard Time),634078.0,005_o_f_d_a.png,I,m,1923,9,1,2811.5,631266.5,8030,VNB,B,7
5,prac,1,0.0,2-Back,0,m,Thu Feb 20 2025 13:16:04 GMT-0600 (Central Standard Time),636443.9000000004,007_m_m_h_a.png,I,z,1590,10,1,2360.5,634083.4000000004,8030,VNB,B,8
5,prac,1,1.0,2-Back,0,z,Thu Feb 20 2025 13:16:04 GMT-0600 (Central Standard Time),638609.7000000002,020_y_f_d_a.png,I,m,1285,11,1,2160.5,636449.2000000002,8030,VNB,B,9
5,prac,1,0.0,2-Back,0,m,Thu Feb 20 2025 13:16:04 GMT-0600 (Central Standard Time),640792.4000000004,004_o_m_n_a.png,I,z,1306,12,1,2177.2000000001863,638615.2000000002,8030,VNB,B,10
0,prac,2,0.0,2-Back,,,Thu Feb 20 2025 13:16:04 GMT-0600 (Central Standard Time),640792.4000000004,011_m_f_n_a.png,I,a,12503,1,1,2177.2000000001863,638615.2000000002,8030,VNB,B,0
0,prac,2,0.0,2-Back,,,Thu Feb 20 2025 13:16:04 GMT-0600 (Central Standard Time),640792.4000000004,005_o_f_h_a.png,I,a,12503,2,1,2177.2000000001863,638615.2000000002,8030,VNB,B,0
0,prac,2,0.0,2-Back,0,m,Thu Feb 20 2025 13:16:04 GMT-0600 (Central Standard Time),661419.1000000006,004_o_m_d_a.png,I,None,2007,3,1,2860.9000000003725,658558.2000000002,8030,VNB,B,1
0,prac,2,1.0,2-Back,0,z,Thu Feb 20 2025 13:16:04 GMT-0600 (Central Standard Time),663702.1000000006,007_m_m_h_a.png,I,m,1506,4,1,2277.9000000003725,661424.2000000002,8030,VNB,B,2
0,prac,2,0.0,2-Back,0,m,Thu Feb 20 2025 13:16:04 GMT-0600 (Central Standard Time),665269.1000000006,020_y_f_n_a.png,I,z,698,5,1,1561.5,663707.6000000006,8030,VNB,B,3
0,prac,2,1.0,2-Back,0,z,Thu Feb 20 2025 13:16:04 GMT-0600 (Central Standard Time),666917.5,004_o_m_h_a.png,I,m,771,6,1,1642.0999999996275,665275.4000000004,8030,VNB,B,4
1,prac,2,1.0,2-Back,1,z,Thu Feb 20 2025 13:16:04 GMT-0600 (Central Standard Time),668666.9000000004,016_y_m_n_a.png,I,z,852,7,1,1744.1000000005588,666922.7999999998,8030,VNB,B,5
2,prac,2,0.0,2-Back,1,m,Thu Feb 20 2025 13:16:04 GMT-0600 (Central Standard Time),670833.0,011_m_f_d_a.png,I,m,1274,8,1,2160.7999999998137,668672.2000000002,8030,VNB,B,6
2,prac,2,0.0,2-Back,0,m,Thu Feb 20 2025 13:16:04 GMT-0600 (Central Standard Time),672882.2000000002,005_o_f_d_a.png,I,z,1169,9,1,2044.7999999998137,670837.4000000004,8030,VNB,B,7
2,prac,2,0.0,2-Back,0,m,Thu Feb 20 2025 13:16:04 GMT-0600 (Central Standard Time),674981.7999999998,007_m_m_h_a.png,I,z,1323,10,1,2094.0,672887.7999999998,8030,VNB,B,8
2,prac,2,1.0,2-Back,0,z,Thu Feb 20 2025 13:16:04 GMT-0600 (Central Standard Time),677297.6000000006,020_y_f_d_a.png,I,m,1447,11,1,2309.5,674988.1000000006,8030,VNB,B,9
2,prac,2,0.0,2-Back,0,m,Thu Feb 20 2025 13:16:04 GMT-0600 (Central Standard Time),680163.2999999998,004_o_m_n_a.png,I,None,2004,12,1,2860.0999999996275,677303.2000000002,8030,VNB,B,10
0,test,1,0.0,2-Back,,,Thu Feb 20 2025 13:16:04 GMT-0600 (Central Standard Time),680163.2999999998,016_y_m_h_a.png,I,space,18788,1,1,2860.0999999996275,677303.2000000002,8030,VNB,B,0
0,test,1,0.0,2-Back,,,Thu Feb 20 2025 13:16:04 GMT-0600 (Central Standard Time),680163.2999999998,005_o_f_n_a.png,I,space,18788,2,1,2860.0999999996275,677303.2000000002,8030,VNB,B,0
1,test,1,0.0,2-Back,1,z,Thu Feb 20 2025 13:16:04 GMT-0600 (Central Standard Time),712886.5,004_o_m_h_a.png,I,z,1113,3,1,2129.5,710757.0,8030,VNB,B,1
2,test,1,0.0,2-Back,1,m,Thu Feb 20 2025 13:16:04 GMT-0600 (Central Standard Time),715468.9000000004,011_m_f_d_a.png,I,m,1556,4,1,2579.4000000003725,712889.5,8030,VNB,B,2
2,test,1,1.0,2-Back,0,m,Thu Feb 20 2025 13:16:04 GMT-0600 (Central Standard Time),718501.6000000006,016_y_m_n_a.png,I,None,2015,5,1,3029.4000000003725,715472.2000000002,8030,VNB,B,3
2,test,1,0.0,2-Back,0,z,Thu Feb 20 2025 13:16:04 GMT-0600 (Central Standard Time),720567.2000000002,020_y_f_d_a.png,I,m,1044,6,1,2062.5999999996275,718504.6000000006,8030,VNB,B,4
3,test,1,0.0,2-Back,1,m,Thu Feb 20 2025 13:16:04 GMT-0600 (Central Standard Time),723319.4000000004,007_m_m_h_a.png,I,m,1718,7,1,2748.2999999998137,720571.1000000006,8030,VNB,B,5
3,test,1,1.0,2-Back,0,m,Thu Feb 20 2025 13:16:04 GMT-0600 (Central Standard Time),725249.1000000006,020_y_f_n_a.png,I,z,902,8,1,1925.9000000003725,723323.2000000002,8030,VNB,B,6
4,test,1,0.0,2-Back,1,z,Thu Feb 20 2025 13:16:04 GMT-0600 (Central Standard Time),727964.9000000004,005_o_f_h_a.png,I,z,1689,9,1,2712.5,725252.4000000004,8030,VNB,B,7
4,test,1,0.0,2-Back,0,m,Thu Feb 20 2025 13:16:04 GMT-0600 (Central Standard Time),730997.4000000004,004_o_m_d_a.png,I,None,2015,10,1,3029.2000000001863,727968.2000000002,8030,VNB,B,8
4,test,1,1.0,2-Back,0,m,Thu Feb 20 2025 13:16:04 GMT-0600 (Central Standard Time),733130.2000000002,007_m_m_d_a.png,I,z,1108,11,1,2129.0,731001.2000000002,8030,VNB,B,9
4,test,1,0.0,2-Back,0,m,Thu Feb 20 2025 13:16:04 GMT-0600 (Central Standard Time),735462.7000000002,011_m_f_n_a.png,I,z,1311,12,1,2329.5,733133.2000000002,8030,VNB,B,10
5,test,1,0.0,2-Back,1,m,Thu Feb 20 2025 13:16:04 GMT-0600 (Central Standard Time),737913.1000000006,020_y_f_h_a.png,I,m,1419,13,1,2446.4000000003725,735466.7000000002,8030,VNB,B,11
6,test,1,0.0,2-Back,1,z,Thu Feb 20 2025 13:16:04 GMT-0600 (Central Standard Time),740127.7000000002,007_m_m_n_a.png,I,z,1194,14,1,2210.4000000003725,737917.2999999998,8030,VNB,B,12
7,test,1,0.0,2-Back,1,m,Thu Feb 20 2025 13:16:04 GMT-0600 (Central Standard Time),742810.9000000004,016_y_m_d_a.png,I,m,1666,15,1,2679.0,740131.9000000004,8030,VNB,B,13
7,test,1,1.0,2-Back,0,m,Thu Feb 20 2025 13:16:04 GMT-0600 (Central Standard Time),745209.6000000006,011_m_f_h_a.png,I,z,1367,16,1,2395.5,742814.1000000006,8030,VNB,B,14
7,test,1,0.0,2-Back,0,z,Thu Feb 20 2025 13:16:04 GMT-0600 (Central Standard Time),747642.4000000004,005_o_f_d_a.png,I,m,1400,17,1,2428.2999999998137,745214.1000000006,8030,VNB,B,15
7,test,1,0.0,2-Back,0,m,Thu Feb 20 2025 13:16:04 GMT-0600 (Central Standard Time),749908.2999999998,004_o_m_n_a.png,I,z,1247,18,1,2262.0999999996275,747646.2000000002,8030,VNB,B,16
0,test,2,0.0,2-Back,,,Thu Feb 20 2025 13:16:04 GMT-0600 (Central Standard Time),749908.2999999998,007_m_m_h_a.png,I,space,3077,1,1,2262.0999999996275,747646.2000000002,8030,VNB,B,0
0,test,2,0.0,2-Back,,,Thu Feb 20 2025 13:16:04 GMT-0600 (Central Standard Time),749908.2999999998,020_y_f_n_a.png,I,space,3077,2,1,2262.0999999996275,747646.2000000002,8030,VNB,B,0
1,test,2,1.0,2-Back,1,z,Thu Feb 20 2025 13:16:04 GMT-0600 (Central Standard Time),760088.2999999998,005_o_f_h_a.png,I,z,819,3,1,1845.8999999994412,758242.4000000004,8030,VNB,B,1
2,test,2,0.0,2-Back,1,m,Thu Feb 20 2025 13:16:04 GMT-0600 (Central Standard Time),762271.0,004_o_m_d_a.png,I,m,1154,4,1,2179.0,760092.0,8030,VNB,B,2
2,test,2,0.0,2-Back,0,m,Thu Feb 20 2025 13:16:04 GMT-0600 (Central Standard Time),764670.4000000004,011_m_f_d_a.png,I,z,1379,5,1,2395.2000000001863,762275.2000000002,8030,VNB,B,3
2,test,2,0.0,2-Back,0,m,Thu Feb 20 2025 13:16:04 GMT-0600 (Central Standard Time),766986.1000000006,016_y_m_h_a.png,I,z,1292,6,1,2312.100000000559,764674.0,8030,VNB,B,4
2,test,2,0.0,2-Back,0,m,Thu Feb 20 2025 13:16:04 GMT-0600 (Central Standard Time),769451.9000000004,005_o_f_n_a.png,I,z,1440,7,1,2462.2999999998137,766989.6000000006,8030,VNB,B,5
2,test,2,1.0,2-Back,0,z,Thu Feb 20 2025 13:16:04 GMT-0600 (Central Standard Time),772069.0,004_o_m_h_a.png,I,m,1598,8,1,2613.5999999996275,769455.4000000004,8030,VNB,B,6
3,test,2,0.0,2-Back,1,m,Thu Feb 20 2025 13:16:04 GMT-0600 (Central Standard Time),774666.7999999998,020_y_f_d_a.png,I,m,1581,9,1,2593.899999999441,772072.9000000004,8030,VNB,B,7
3,test,2,0.0,2-Back,0,m,Thu Feb 20 2025 13:16:04 GMT-0600 (Central Standard Time),777699.4000000004,016_y_m_d_a.png,I,None,2015,10,1,3029.7000000001863,774669.7000000002,8030,VNB,B,8
4,test,2,0.0,2-Back,1,m,Thu Feb 20 2025 13:16:04 GMT-0600 (Central Standard Time),780132.0,007_m_m_n_a.png,I,m,1407,11,1,2428.7999999998137,777703.2000000002,8030,VNB,B,9
4,test,2,0.0,2-Back,0,m,Thu Feb 20 2025 13:16:04 GMT-0600 (Central Standard Time),782131.4000000004,011_m_f_h_a.png,I,z,974,12,1,1996.2000000001863,780135.2000000002,8030,VNB,B,10
5,test,2,1.0,2-Back,1,z,Thu Feb 20 2025 13:16:04 GMT-0600 (Central Standard Time),784247.2999999998,004_o_m_n_a.png,I,z,1094,13,1,2112.199999999255,782135.1000000006,8030,VNB,B,11
6,test,2,0.0,2-Back,1,m,Thu Feb 20 2025 13:16:04 GMT-0600 (Central Standard Time),786763.4000000004,005_o_f_d_a.png,I,m,1490,14,1,2513.0,784250.4000000004,8030,VNB,B,12
6,test,2,0.0,2-Back,0,m,Thu Feb 20 2025 13:16:04 GMT-0600 (Central Standard Time),788762.9000000004,020_y_f_h_a.png,I,z,975,15,1,1995.7999999998137,786767.1000000006,8030,VNB,B,13
6,test,2,0.0,2-Back,0,z,Thu Feb 20 2025 13:16:04 GMT-0600 (Central Standard Time),790995.2000000002,007_m_m_d_a.png,I,m,1216,16,1,2229.2000000001863,788766.0,8030,VNB,B,14
7,test,2,0.0,2-Back,1,m,Thu Feb 20 2025 13:16:04 GMT-0600 (Central Standard Time),793594.5,016_y_m_n_a.png,I,m,1566,17,1,2595.7000000001863,790998.7999999998,8030,VNB,B,15
7,test,2,1.0,2-Back,0,m,Thu Feb 20 2025 13:16:04 GMT-0600 (Central Standard Time),796493.7000000002,011_m_f_n_a.png,I,z,1880,18,1,2895.7999999998137,793597.9000000004,8030,VNB,B,16
0,test,3,1.0,2-Back,,,Thu Feb 20 2025 13:16:04 GMT-0600 (Central Standard Time),796493.7000000002,004_o_m_n_a.png,I,space,3468,1,1,2895.7999999998137,793597.9000000004,8030,VNB,B,0
0,test,3,1.0,2-Back,,,Thu Feb 20 2025 13:16:04 GMT-0600 (Central Standard Time),796493.7000000002,005_o_f_d_a.png,I,space,3468,2,1,2895.7999999998137,793597.9000000004,8030,VNB,B,0
0,test,3,0.0,2-Back,0,m,Thu Feb 20 2025 13:16:04 GMT-0600 (Central Standard Time),807990.2000000002,020_y_f_h_a.png,I,z,1763,3,1,2778.9000000003725,805211.2999999998,8030,VNB,B,1
0,test,3,0.0,2-Back,0,z,Thu Feb 20 2025 13:16:04 GMT-0600 (Central Standard Time),811022.5,011_m_f_d_a.png,I,None,2015,4,1,3029.2999999998137,807993.2000000002,8030,VNB,B,2
0,test,3,1.0,2-Back,0,m,Thu Feb 20 2025 13:16:04 GMT-0600 (Central Standard Time),813304.7000000002,016_y_m_n_a.png,I,z,1259,5,1,2278.5,811026.2000000002,8030,VNB,B,3
0,test,3,0.0,2-Back,0,m,Thu Feb 20 2025 13:16:04 GMT-0600 (Central Standard Time),815637.6000000006,004_o_m_h_a.png,I,z,1305,6,1,2329.300000000745,813308.2999999998,8030,VNB,B,4
0,test,3,0.0,2-Back,0,z,Thu Feb 20 2025 13:16:04 GMT-0600 (Central Standard Time),818136.7000000002,020_y_f_n_a.png,I,m,1476,7,1,2496.0,815640.7000000002,8030,VNB,B,5
0,test,3,1.0,2-Back,0,m,Thu Feb 20 2025 13:16:04 GMT-0600 (Central Standard Time),820569.4000000004,007_m_m_d_a.png,I,z,1410,8,1,2429.7000000001863,818139.7000000002,8030,VNB,B,6
1,test,3,0.0,2-Back,1,m,Thu Feb 20 2025 13:16:04 GMT-0600 (Central Standard Time),823068.7000000002,016_y_m_d_a.png,I,m,1473,9,1,2495.5,820573.2000000002,8030,VNB,B,7
1,test,3,0.0,2-Back,0,m,Thu Feb 20 2025 13:16:04 GMT-0600 (Central Standard Time),825035.0,005_o_f_h_a.png,I,z,950,10,1,1962.5999999996275,823072.4000000004,8030,VNB,B,8
1,test,3,1.0,2-Back,0,m,Thu Feb 20 2025 13:16:04 GMT-0600 (Central Standard Time),827517.1000000006,011_m_f_n_a.png,I,z,1455,11,1,2478.9000000003725,825038.2000000002,8030,VNB,B,9
1,test,3,1.0,2-Back,0,z,Thu Feb 20 2025 13:16:04 GMT-0600 (Central Standard Time),830434.1000000006,007_m_m_h_a.png,I,m,1893,12,1,2913.4000000003725,827520.7000000002,8030,VNB,B,10
2,test,3,0.0,2-Back,1,m,Thu Feb 20 2025 13:16:04 GMT-0600 (Central Standard Time),832815.7000000002,020_y_f_d_a.png,I,m,1353,13,1,2377.7000000001863,830438.0,8030,VNB,B,11
2,test,3,0.0,2-Back,0,m,Thu Feb 20 2025 13:16:04 GMT-0600 (Central Standard Time),834814.9000000004,005_o_f_n_a.png,I,z,979,14,1,1995.6000000005588,832819.2999999998,8030,VNB,B,12
2,test,3,0.0,2-Back,0,z,Thu Feb 20 2025 13:16:04 GMT-0600 (Central Standard Time),837597.4000000004,004_o_m_d_a.png,I,m,1755,15,1,2779.4000000003725,834818.0,8030,VNB,B,13
2,test,3,1.0,2-Back,0,m,Thu Feb 20 2025 13:16:04 GMT-0600 (Central Standard Time),839246.7999999998,011_m_f_h_a.png,I,z,621,16,1,1645.8999999994412,837600.9000000004,8030,VNB,B,14
3,test,3,0.0,2-Back,1,m,Thu Feb 20 2025 13:16:04 GMT-0600 (Central Standard Time),841796.0,007_m_m_n_a.png,I,m,1523,17,1,2545.5999999996275,839250.4000000004,8030,VNB,B,15
4,test,3,0.0,2-Back,1,z,Thu Feb 20 2025 13:16:04 GMT-0600 (Central Standard Time),844796.2999999998,016_y_m_h_a.png,I,z,1974,18,1,2997.199999999255,841799.1000000006,8030,VNB,B,16
0,test,4,0.0,2-Back,,,Thu Feb 20 2025 13:16:04 GMT-0600 (Central Standard Time),844796.2999999998,011_m_f_n_a.png,I,space,2174,1,1,2997.199999999255,841799.1000000006,8030,VNB,B,0
0,test,4,0.0,2-Back,,,Thu Feb 20 2025 13:16:04 GMT-0600 (Central Standard Time),844796.2999999998,004_o_m_n_a.png,I,space,2174,2,1,2997.199999999255,841799.1000000006,8030,VNB,B,0
1,test,4,1.0,2-Back,1,m,Thu Feb 20 2025 13:16:04 GMT-0600 (Central Standard Time),854525.5,016_y_m_h_a.png,I,m,1289,3,1,2312.2000000001863,852213.2999999998,8030,VNB,B,1
2,test,4,1.0,2-Back,1,m,Thu Feb 20 2025 13:16:04 GMT-0600 (Central Standard Time),857408.1000000006,005_o_f_d_a.png,I,m,1861,4,1,2878.800000000745,854529.2999999998,8030,VNB,B,2
3,test,4,0.0,2-Back,1,z,Thu Feb 20 2025 13:16:04 GMT-0600 (Central Standard Time),859324.2000000002,004_o_m_h_a.png,I,z,890,5,1,1912.0999999996275,857412.1000000006,8030,VNB,B,3
4,test,4,0.0,2-Back,1,m,Thu Feb 20 2025 13:16:04 GMT-0600 (Central Standard Time),862073.1000000006,007_m_m_n_a.png,I,m,1718,6,1,2744.7000000001863,859328.4000000004,8030,VNB,B,4
4,test,4,0.0,2-Back,0,m,Thu Feb 20 2025 13:16:04 GMT-0600 (Central Standard Time),865105.6000000006,011_m_f_d_a.png,I,None,2015,7,1,3028.5,862077.1000000006,8030,VNB,B,5
4,test,4,0.0,2-Back,0,z,Thu Feb 20 2025 13:16:04 GMT-0600 (Central Standard Time),868054.7000000002,020_y_f_n_a.png,I,m,1921,8,1,2946.0999999996275,865108.6000000006,8030,VNB,B,6
4,test,4,1.0,2-Back,0,m,Thu Feb 20 2025 13:16:04 GMT-0600 (Central Standard Time),870787.1000000006,005_o_f_h_a.png,I,z,1700,9,1,2729.4000000003725,868057.7000000002,8030,VNB,B,7
5,test,4,0.0,2-Back,1,m,Thu Feb 20 2025 13:16:04 GMT-0600 (Central Standard Time),873602.7000000002,007_m_m_h_a.png,I,m,1791,10,1,2811.7999999998137,870790.9000000004,8030,VNB,B,8
5,test,4,0.0,2-Back,0,m,Thu Feb 20 2025 13:16:04 GMT-0600 (Central Standard Time),875868.9000000004,020_y_f_d_a.png,I,z,1246,11,1,2262.5,873606.4000000004,8030,VNB,B,9
5,test,4,0.0,2-Back,0,m,Thu Feb 20 2025 13:16:04 GMT-0600 (Central Standard Time),878902.5,016_y_m_n_a.png,I,None,2016,12,1,3030.0,875872.5,8030,VNB,B,10
6,test,4,0.0,2-Back,1,z,Thu Feb 20 2025 13:16:04 GMT-0600 (Central Standard Time),881133.7000000002,004_o_m_d_a.png,I,z,1205,13,1,2227.5,878906.2000000002,8030,VNB,B,11
7,test,4,1.0,2-Back,1,m,Thu Feb 20 2025 13:16:04 GMT-0600 (Central Standard Time),884132.9000000004,011_m_f_h_a.png,I,m,1973,14,1,2996.100000000559,881136.7999999998,8030,VNB,B,12
7,test,4,1.0,2-Back,0,m,Thu Feb 20 2025 13:16:04 GMT-0600 (Central Standard Time),885998.9000000004,020_y_f_h_a.png,I,z,838,15,1,1862.7000000001863,884136.2000000002,8030,VNB,B,13
8,test,4,0.0,2-Back,1,m,Thu Feb 20 2025 13:16:04 GMT-0600 (Central Standard Time),888799.2000000002,005_o_f_n_a.png,I,m,1779,16,1,2795.7000000001863,886003.5,8030,VNB,B,14
9,test,4,0.0,2-Back,1,m,Thu Feb 20 2025 13:16:04 GMT-0600 (Central Standard Time),891746.9000000004,016_y_m_d_a.png,I,m,1931,17,1,2943.9000000003725,888803.0,8030,VNB,B,15
9,test,4,1.0,2-Back,0,m,Thu Feb 20 2025 13:16:04 GMT-0600 (Central Standard Time),894163.0,007_m_m_d_a.png,I,z,1391,18,1,2412.2999999998137,891750.7000000002,8030,VNB,B,16
0,test,5,1.0,2-Back,,,Thu Feb 20 2025 13:16:04 GMT-0600 (Central Standard Time),894163.0,020_y_f_d_a.png,I,space,2359,1,1,2412.2999999998137,891750.7000000002,8030,VNB,B,0
0,test,5,1.0,2-Back,,,Thu Feb 20 2025 13:16:04 GMT-0600 (Central Standard Time),894163.0,005_o_f_h_a.png,I,space,2359,2,1,2412.2999999998137,891750.7000000002,8030,VNB,B,0
1,test,5,1.0,2-Back,1,z,Thu Feb 20 2025 13:16:04 GMT-0600 (Central Standard Time),904276.7000000002,004_o_m_d_a.png,I,z,1489,3,1,2512.4000000003725,901764.2999999998,8030,VNB,B,1
2,test,5,1.0,2-Back,1,m,Thu Feb 20 2025 13:16:04 GMT-0600 (Central Standard Time),906659.0,011_m_f_n_a.png,I,m,1358,4,1,2378.399999999441,904280.6000000006,8030,VNB,B,2
2,test,5,0.0,2-Back,0,m,Thu Feb 20 2025 13:16:04 GMT-0600 (Central Standard Time),908558.6000000006,007_m_m_h_a.png,I,z,879,5,1,1896.4000000003725,906662.2000000002,8030,VNB,B,3
2,test,5,0.0,2-Back,0,z,Thu Feb 20 2025 13:16:04 GMT-0600 (Central Standard Time),911577.2999999998,020_y_f_n_a.png,I,None,2002,6,1,3015.0,908562.2999999998,8030,VNB,B,4
3,test,5,0.0,2-Back,1,m,Thu Feb 20 2025 13:16:04 GMT-0600 (Central Standard Time),914173.6000000006,005_o_f_d_a.png,I,m,1572,7,1,2592.600000000559,911581.0,8030,VNB,B,5
4,test,5,0.0,2-Back,1,m,Thu Feb 20 2025 13:16:04 GMT-0600 (Central Standard Time),916656.0,004_o_m_h_a.png,I,m,1453,8,1,2479.2999999998137,914176.7000000002,8030,VNB,B,6
5,test,5,1.0,2-Back,1,z,Thu Feb 20 2025 13:16:04 GMT-0600 (Central Standard Time),918739.0,011_m_f_d_a.png,I,z,1066,9,1,2079.0,916660.0,8030,VNB,B,7
6,test,5,0.0,2-Back,1,m,Thu Feb 20 2025 13:16:04 GMT-0600 (Central Standard Time),921104.6000000006,016_y_m_n_a.png,I,m,1344,10,1,2361.5,918743.1000000006,8030,VNB,B,8
6,test,5,0.0,2-Back,0,m,Thu Feb 20 2025 13:16:04 GMT-0600 (Central Standard Time),923937.0,007_m_m_n_a.png,I,z,1810,11,1,2829.2999999998137,921107.7000000002,8030,VNB,B,9
7,test,5,0.0,2-Back,1,m,Thu Feb 20 2025 13:16:04 GMT-0600 (Central Standard Time),926136.2000000002,020_y_f_h_a.png,I,m,1177,12,1,2195.9000000003725,923940.2999999998,8030,VNB,B,10
8,test,5,0.0,2-Back,1,m,Thu Feb 20 2025 13:16:04 GMT-0600 (Central Standard Time),928935.6000000006,016_y_m_d_a.png,I,m,1770,13,1,2796.300000000745,926139.2999999998,8030,VNB,B,11
8,test,5,1.0,2-Back,0,z,Thu Feb 20 2025 13:16:04 GMT-0600 (Central Standard Time),931584.7000000002,011_m_f_h_a.png,I,m,1626,14,1,2645.4000000003725,928939.2999999998,8030,VNB,B,12
8,test,5,0.0,2-Back,0,m,Thu Feb 20 2025 13:16:04 GMT-0600 (Central Standard Time),933684.0,004_o_m_n_a.png,I,z,1074,15,1,2095.7999999998137,931588.2000000002,8030,VNB,B,13
8,test,5,0.0,2-Back,0,m,Thu Feb 20 2025 13:16:04 GMT-0600 (Central Standard Time),936183.1000000006,007_m_m_d_a.png,I,z,1478,16,1,2496.0,933687.1000000006,8030,VNB,B,14
9,test,5,0.0,2-Back,1,z,Thu Feb 20 2025 13:16:04 GMT-0600 (Central Standard Time),939015.7000000002,005_o_f_n_a.png,I,z,1803,17,1,2829.4000000003725,936186.2999999998,8030,VNB,B,15
9,test,5,1.0,2-Back,0,m,Thu Feb 20 2025 13:16:04 GMT-0600 (Central Standard Time),942048.6000000006,016_y_m_h_a.png,I,None,2015,18,1,3029.5,939019.1000000006,8030,VNB,B,16
