acc_sum,block,block_c,change,condition,correct,correct_response,datetime,endtime,face,project,response,response_time,row_sel,session_number,start_end,starttime,subject_id,task,task_vers,trial
0,prac,1,,1-Back,,,Thu Apr 10 2025 10:19:06 GMT-0500 (Central Daylight Time),,093_m_f_n_a.png,O,space,10434,1,1,,,7090,NNB,C,0
1,prac,1,0.0,1-Back,1,m,Thu Apr 10 2025 10:19:06 GMT-0500 (Central Daylight Time),138244.10000002384,098_y_f_n_a.png,O,m,969,2,1,1961.2000000476837,136282.89999997616,7090,NNB,C,1
2,prac,1,1.0,1-Back,1,z,Thu Apr 10 2025 10:19:06 GMT-0500 (Central Daylight Time),140433.79999995232,098_y_f_n_a.png,O,z,1111,3,1,2054.399999976158,138379.39999997616,7090,NNB,C,2
3,prac,1,0.0,1-Back,1,m,Thu Apr 10 2025 10:19:06 GMT-0500 (Central Daylight Time),142545.60000002384,059_o_m_n_a.png,O,m,1032,4,1,2005.5,140540.10000002384,7090,NNB,C,3
4,prac,1,0.0,1-Back,1,m,Thu Apr 10 2025 10:19:06 GMT-0500 (Central Daylight Time),144586.29999995232,092_m_m_n_a.png,O,m,912,5,1,1861.1999999284744,142725.10000002384,7090,NNB,C,4
5,prac,1,1.0,1-Back,1,z,Thu Apr 10 2025 10:19:06 GMT-0500 (Central Daylight Time),146430.39999997616,092_m_m_n_a.png,O,z,846,6,1,1768.3999999761581,144662.0,7090,NNB,C,5
6,prac,1,0.0,1-Back,1,m,Thu Apr 10 2025 10:19:06 GMT-0500 (Central Daylight Time),148296.10000002384,130_o_f_n_a.png,O,m,880,7,1,1824.8000000715256,146471.29999995232,7090,NNB,C,6
7,prac,1,0.0,1-Back,1,m,Thu Apr 10 2025 10:19:06 GMT-0500 (Central Daylight Time),150162.29999995232,082_m_m_n_a.png,O,m,905,8,1,1829.2999999523163,148333.0,7090,NNB,C,7
8,prac,1,0.0,1-Back,1,m,Thu Apr 10 2025 10:19:06 GMT-0500 (Central Daylight Time),152061.60000002384,093_m_f_n_a.png,O,m,963,9,1,1869.1000000238419,150192.5,7090,NNB,C,8
9,prac,1,1.0,1-Back,1,z,Thu Apr 10 2025 10:19:06 GMT-0500 (Central Daylight Time),153527.79999995232,093_m_f_n_a.png,O,z,665,10,1,1438.0,152089.79999995232,7090,NNB,C,9
10,prac,1,0.0,1-Back,1,m,Thu Apr 10 2025 10:19:06 GMT-0500 (Central Daylight Time),155160.60000002384,059_o_m_n_a.png,O,m,679,11,1,1605.1000000238419,153555.5,7090,NNB,C,10
11,prac,1,0.0,1-Back,1,m,Thu Apr 10 2025 10:19:06 GMT-0500 (Central Daylight Time),156893.10000002384,028_y_f_n_a.png,O,m,776,12,1,1698.4000000953674,155194.69999992847,7090,NNB,C,11
0,test,1,0.0,1-Back,,,Thu Apr 10 2025 10:19:06 GMT-0500 (Central Daylight Time),156893.10000002384,098_y_f_n_a.png,O,space,8822,1,1,1698.4000000953674,155194.69999992847,7090,NNB,C,0
1,test,1,0.0,1-Back,1,m,Thu Apr 10 2025 10:19:06 GMT-0500 (Central Daylight Time),178071.39999997616,006_m_f_n_a.png,O,m,756,2,1,1774.8999999761581,176296.5,7090,NNB,C,1
2,test,1,0.0,1-Back,1,m,Thu Apr 10 2025 10:19:06 GMT-0500 (Central Daylight Time),180634.69999992847,028_y_f_n_a.png,O,m,1514,3,1,2543.6999999284744,178091.0,7090,NNB,C,2
3,test,1,1.0,1-Back,1,z,Thu Apr 10 2025 10:19:06 GMT-0500 (Central Daylight Time),182233.89999997616,028_y_f_n_a.png,O,z,565,4,1,1593.2999999523163,180640.60000002384,7090,NNB,C,3
4,test,1,0.0,1-Back,1,m,Thu Apr 10 2025 10:19:06 GMT-0500 (Central Daylight Time),184017.60000002384,006_m_f_n_a.png,O,m,759,5,1,1777.7000000476837,182239.89999997616,7090,NNB,C,4
5,test,1,0.0,1-Back,1,m,Thu Apr 10 2025 10:19:06 GMT-0500 (Central Daylight Time),185882.89999997616,059_o_m_n_a.png,O,m,824,6,1,1846.7000000476837,184036.19999992847,7090,NNB,C,5
6,test,1,1.0,1-Back,1,z,Thu Apr 10 2025 10:19:06 GMT-0500 (Central Daylight Time),187582.29999995232,059_o_m_n_a.png,O,z,670,7,1,1695.6000000238419,185886.69999992847,7090,NNB,C,6
7,test,1,0.0,1-Back,1,m,Thu Apr 10 2025 10:19:06 GMT-0500 (Central Daylight Time),189432.19999992847,092_m_m_n_a.png,O,m,828,8,1,1844.7999999523163,187587.39999997616,7090,NNB,C,7
8,test,1,0.0,1-Back,1,m,Thu Apr 10 2025 10:19:06 GMT-0500 (Central Daylight Time),191231.60000002384,130_o_f_n_a.png,O,m,753,9,1,1776.8000000715256,189454.79999995232,7090,NNB,C,8
9,test,1,0.0,1-Back,1,m,Thu Apr 10 2025 10:19:06 GMT-0500 (Central Daylight Time),192947.79999995232,092_m_m_n_a.png,O,m,683,10,1,1705.6999999284744,191242.10000002384,7090,NNB,C,9
10,test,1,0.0,1-Back,1,m,Thu Apr 10 2025 10:19:06 GMT-0500 (Central Daylight Time),194764.10000002384,057_y_m_n_a.png,O,m,773,11,1,1795.1000000238419,192969.0,7090,NNB,C,10
11,test,1,1.0,1-Back,1,z,Thu Apr 10 2025 10:19:06 GMT-0500 (Central Daylight Time),196463.10000002384,057_y_m_n_a.png,O,z,661,12,1,1678.2000000476837,194784.89999997616,7090,NNB,C,11
12,test,1,0.0,1-Back,1,m,Thu Apr 10 2025 10:19:06 GMT-0500 (Central Daylight Time),198412.79999995232,030_o_f_n_a.png,O,m,906,13,1,1931.1999999284744,196481.60000002384,7090,NNB,C,12
13,test,1,1.0,1-Back,1,z,Thu Apr 10 2025 10:19:06 GMT-0500 (Central Daylight Time),200079.0,030_o_f_n_a.png,O,z,621,14,1,1638.8999999761581,198440.10000002384,7090,NNB,C,13
14,test,1,0.0,1-Back,1,m,Thu Apr 10 2025 10:19:06 GMT-0500 (Central Daylight Time),201894.89999997616,031_y_m_n_a.png,O,m,771,15,1,1797.3999999761581,200097.5,7090,NNB,C,14
15,test,1,0.0,1-Back,1,m,Thu Apr 10 2025 10:19:06 GMT-0500 (Central Daylight Time),203628.0,093_m_f_n_a.png,O,m,682,16,1,1715.3999999761581,201912.60000002384,7090,NNB,C,15
16,test,1,0.0,1-Back,1,m,Thu Apr 10 2025 10:19:06 GMT-0500 (Central Daylight Time),205393.0,146_o_m_n_a.png,O,m,717,17,1,1741.8999999761581,203651.10000002384,7090,NNB,C,16
17,test,1,0.0,1-Back,1,m,Thu Apr 10 2025 10:19:06 GMT-0500 (Central Daylight Time),207176.5,093_m_f_n_a.png,O,m,760,18,1,1776.8999999761581,205399.60000002384,7090,NNB,C,17
0,test,2,0.0,1-Back,,,Thu Apr 10 2025 10:19:06 GMT-0500 (Central Daylight Time),207176.5,092_m_m_n_a.png,O,space,2217,1,1,1776.8999999761581,205399.60000002384,7090,NNB,C,0
1,test,2,0.0,1-Back,1,m,Thu Apr 10 2025 10:19:06 GMT-0500 (Central Daylight Time),213273.79999995232,006_m_f_n_a.png,O,m,649,2,1,1672.8999999761581,211600.89999997616,7090,NNB,C,1
2,test,2,1.0,1-Back,1,z,Thu Apr 10 2025 10:19:06 GMT-0500 (Central Daylight Time),215240.60000002384,006_m_f_n_a.png,O,z,939,3,1,1962.1000000238419,213278.5,7090,NNB,C,2
3,test,2,0.0,1-Back,1,m,Thu Apr 10 2025 10:19:06 GMT-0500 (Central Daylight Time),217040.0,092_m_m_n_a.png,O,m,761,4,1,1775.8000000715256,215264.19999992847,7090,NNB,C,3
4,test,2,0.0,1-Back,1,m,Thu Apr 10 2025 10:19:06 GMT-0500 (Central Daylight Time),218756.19999992847,057_y_m_n_a.png,O,m,673,5,1,1698.1999999284744,217058.0,7090,NNB,C,4
5,test,2,0.0,1-Back,1,m,Thu Apr 10 2025 10:19:06 GMT-0500 (Central Daylight Time),220589.10000002384,098_y_f_n_a.png,O,m,782,6,1,1810.7000000476837,218778.39999997616,7090,NNB,C,5
6,test,2,1.0,1-Back,1,z,Thu Apr 10 2025 10:19:06 GMT-0500 (Central Daylight Time),222121.60000002384,098_y_f_n_a.png,O,z,486,7,1,1514.8000000715256,220606.79999995232,7090,NNB,C,6
7,test,2,0.0,1-Back,1,m,Thu Apr 10 2025 10:19:06 GMT-0500 (Central Daylight Time),223871.10000002384,057_y_m_n_a.png,O,m,713,8,1,1725.5,222145.60000002384,7090,NNB,C,7
8,test,2,0.0,1-Back,1,m,Thu Apr 10 2025 10:19:06 GMT-0500 (Central Daylight Time),225620.60000002384,030_o_f_n_a.png,O,m,699,9,1,1731.5,223889.10000002384,7090,NNB,C,8
9,test,2,0.0,1-Back,1,m,Thu Apr 10 2025 10:19:06 GMT-0500 (Central Daylight Time),227436.5,082_m_m_n_a.png,O,m,766,10,1,1797.7000000476837,225638.79999995232,7090,NNB,C,9
10,test,2,1.0,1-Back,1,z,Thu Apr 10 2025 10:19:06 GMT-0500 (Central Daylight Time),229002.39999997616,082_m_m_n_a.png,O,z,516,11,1,1540.8999999761581,227461.5,7090,NNB,C,10
11,test,2,0.0,1-Back,1,m,Thu Apr 10 2025 10:19:06 GMT-0500 (Central Daylight Time),230952.10000002384,030_o_f_n_a.png,O,m,904,12,1,1927.3000000715256,229024.79999995232,7090,NNB,C,11
12,test,2,0.0,1-Back,1,m,Thu Apr 10 2025 10:19:06 GMT-0500 (Central Daylight Time),232634.89999997616,130_o_f_n_a.png,O,m,633,13,1,1664.2999999523163,230970.60000002384,7090,NNB,C,12
13,test,2,0.0,1-Back,1,m,Thu Apr 10 2025 10:19:06 GMT-0500 (Central Daylight Time),234401.10000002384,059_o_m_n_a.png,O,m,727,14,1,1743.1000000238419,232658.0,7090,NNB,C,13
14,test,2,0.0,1-Back,1,m,Thu Apr 10 2025 10:19:06 GMT-0500 (Central Daylight Time),236150.60000002384,146_o_m_n_a.png,O,m,705,15,1,1727.9000000953674,234422.69999992847,7090,NNB,C,14
15,test,2,1.0,1-Back,1,z,Thu Apr 10 2025 10:19:06 GMT-0500 (Central Daylight Time),237899.5,146_o_m_n_a.png,O,z,698,16,1,1728.5,236171.0,7090,NNB,C,15
16,test,2,0.0,1-Back,1,m,Thu Apr 10 2025 10:19:06 GMT-0500 (Central Daylight Time),239715.10000002384,031_y_m_n_a.png,O,m,781,17,1,1805.5,237909.60000002384,7090,NNB,C,16
17,test,2,1.0,1-Back,1,z,Thu Apr 10 2025 10:19:06 GMT-0500 (Central Daylight Time),241448.60000002384,031_y_m_n_a.png,O,z,710,18,1,1729.6000000238419,239719.0,7090,NNB,C,17
0,test,3,1.0,1-Back,,,Thu Apr 10 2025 10:19:06 GMT-0500 (Central Daylight Time),241448.60000002384,028_y_f_n_a.png,O,space,1953,1,1,1729.6000000238419,239719.0,7090,NNB,C,0
1,test,3,0.0,1-Back,1,m,Thu Apr 10 2025 10:19:06 GMT-0500 (Central Daylight Time),247213.5,146_o_m_n_a.png,O,m,590,1,1,1613.0,245600.5,7090,NNB,C,1
2,test,3,1.0,1-Back,1,z,Thu Apr 10 2025 10:19:06 GMT-0500 (Central Daylight Time),249029.39999997616,146_o_m_n_a.png,O,z,780,1,1,1798.2000000476837,247231.19999992847,7090,NNB,C,2
3,test,3,0.0,1-Back,1,m,Thu Apr 10 2025 10:19:06 GMT-0500 (Central Daylight Time),250729.0,093_m_f_n_a.png,O,m,652,1,1,1677.2000000476837,249051.79999995232,7090,NNB,C,3
4,test,3,1.0,1-Back,1,z,Thu Apr 10 2025 10:19:06 GMT-0500 (Central Daylight Time),252428.39999997616,093_m_f_n_a.png,O,z,648,1,1,1680.2000000476837,250748.19999992847,7090,NNB,C,4
5,test,3,0.0,1-Back,1,m,Thu Apr 10 2025 10:19:06 GMT-0500 (Central Daylight Time),254211.10000002384,030_o_f_n_a.png,O,m,726,1,1,1762.1000000238419,252449.0,7090,NNB,C,5
6,test,3,0.0,1-Back,1,m,Thu Apr 10 2025 10:19:06 GMT-0500 (Central Daylight Time),255893.89999997616,057_y_m_n_a.png,O,m,638,1,1,1663.7999999523163,254230.10000002384,7090,NNB,C,6
7,test,3,0.0,1-Back,1,m,Thu Apr 10 2025 10:19:06 GMT-0500 (Central Daylight Time),257659.19999992847,030_o_f_n_a.png,O,m,722,1,1,1738.8999999761581,255920.29999995232,7090,NNB,C,7
8,test,3,0.0,1-Back,1,m,Thu Apr 10 2025 10:19:06 GMT-0500 (Central Daylight Time),259426.10000002384,031_y_m_n_a.png,O,m,736,1,1,1763.0,257663.10000002384,7090,NNB,C,8
9,test,3,1.0,1-Back,1,z,Thu Apr 10 2025 10:19:06 GMT-0500 (Central Daylight Time),261058.5,031_y_m_n_a.png,O,z,591,1,1,1606.8000000715256,259451.69999992847,7090,NNB,C,9
10,test,3,0.0,1-Back,1,m,Thu Apr 10 2025 10:19:06 GMT-0500 (Central Daylight Time),262758.2999999523,006_m_f_n_a.png,O,m,670,1,1,1691.1000000238419,261067.19999992847,7090,NNB,C,10
11,test,3,0.0,1-Back,1,m,Thu Apr 10 2025 10:19:06 GMT-0500 (Central Daylight Time),264524.60000002384,098_y_f_n_a.png,O,m,715,1,1,1746.6000000238419,262778.0,7090,NNB,C,11
12,test,3,1.0,1-Back,1,z,Thu Apr 10 2025 10:19:06 GMT-0500 (Central Daylight Time),266257.10000002384,098_y_f_n_a.png,O,z,693,1,1,1708.5,264548.60000002384,7090,NNB,C,12
13,test,3,0.0,1-Back,1,m,Thu Apr 10 2025 10:19:06 GMT-0500 (Central Daylight Time),268040.0,006_m_f_n_a.png,O,m,745,1,1,1761.8000000715256,266278.1999999285,7090,NNB,C,13
14,test,3,0.0,1-Back,1,m,Thu Apr 10 2025 10:19:06 GMT-0500 (Central Daylight Time),269739.39999997616,092_m_m_n_a.png,O,m,657,1,1,1679.7000000476837,268059.6999999285,7090,NNB,C,14
15,test,3,1.0,1-Back,1,z,Thu Apr 10 2025 10:19:06 GMT-0500 (Central Daylight Time),271472.10000002384,092_m_m_n_a.png,O,z,686,1,1,1711.8000000715256,269760.2999999523,7090,NNB,C,15
16,test,3,0.0,1-Back,1,m,Thu Apr 10 2025 10:19:06 GMT-0500 (Central Daylight Time),273204.7999999523,130_o_f_n_a.png,O,m,689,1,1,1710.6000000238419,271494.1999999285,7090,NNB,C,16
17,test,3,1.0,1-Back,1,z,Thu Apr 10 2025 10:19:06 GMT-0500 (Central Daylight Time),274937.7999999523,130_o_f_n_a.png,O,z,684,1,1,1713.6999999284744,273224.10000002384,7090,NNB,C,17
0,test,4,1.0,1-Back,,,Thu Apr 10 2025 10:19:06 GMT-0500 (Central Daylight Time),274937.7999999523,093_m_f_n_a.png,O,space,1456,1,1,1713.6999999284744,273224.10000002384,7090,NNB,C,0
1,test,4,0.0,1-Back,1,m,Thu Apr 10 2025 10:19:06 GMT-0500 (Central Daylight Time),280285.89999997616,146_o_m_n_a.png,O,m,680,2,1,1694.0,278591.89999997616,7090,NNB,C,1
2,test,4,0.0,1-Back,1,m,Thu Apr 10 2025 10:19:06 GMT-0500 (Central Daylight Time),282335.1999999285,093_m_f_n_a.png,O,m,1003,3,1,2031.5,280303.6999999285,7090,NNB,C,2
3,test,4,0.0,1-Back,1,m,Thu Apr 10 2025 10:19:06 GMT-0500 (Central Daylight Time),284168.0,030_o_f_n_a.png,O,m,786,4,1,1809.1000000238419,282358.89999997616,7090,NNB,C,3
4,test,4,1.0,1-Back,1,z,Thu Apr 10 2025 10:19:06 GMT-0500 (Central Daylight Time),285750.60000002384,030_o_f_n_a.png,O,z,546,5,1,1562.8000000715256,284187.7999999523,7090,NNB,C,4
5,test,4,0.0,1-Back,1,m,Thu Apr 10 2025 10:19:06 GMT-0500 (Central Daylight Time),287600.1999999285,098_y_f_n_a.png,O,m,803,6,1,1832.3999999761581,285767.7999999523,7090,NNB,C,5
6,test,4,0.0,1-Back,1,m,Thu Apr 10 2025 10:19:06 GMT-0500 (Central Daylight Time),289249.5,057_y_m_n_a.png,O,m,609,7,1,1629.1000000238419,287620.39999997616,7090,NNB,C,6
7,test,4,1.0,1-Back,1,z,Thu Apr 10 2025 10:19:06 GMT-0500 (Central Daylight Time),290882.39999997616,057_y_m_n_a.png,O,z,593,8,1,1611.2999999523163,289271.10000002384,7090,NNB,C,7
8,test,4,0.0,1-Back,1,m,Thu Apr 10 2025 10:19:06 GMT-0500 (Central Daylight Time),292665.0,098_y_f_n_a.png,O,m,743,9,1,1763.1000000238419,290901.89999997616,7090,NNB,C,8
9,test,4,0.0,1-Back,1,m,Thu Apr 10 2025 10:19:06 GMT-0500 (Central Daylight Time),294348.7999999523,082_m_m_n_a.png,O,m,648,10,1,1664.7999999523163,292684.0,7090,NNB,C,9
10,test,4,1.0,1-Back,1,z,Thu Apr 10 2025 10:19:06 GMT-0500 (Central Daylight Time),296014.10000002384,082_m_m_n_a.png,O,z,621,11,1,1646.6000000238419,294367.5,7090,NNB,C,10
11,test,4,0.0,1-Back,1,m,Thu Apr 10 2025 10:19:06 GMT-0500 (Central Daylight Time),297680.10000002384,130_o_f_n_a.png,O,m,627,12,1,1647.2000000476837,296032.89999997616,7090,NNB,C,11
12,test,4,0.0,1-Back,1,m,Thu Apr 10 2025 10:19:06 GMT-0500 (Central Daylight Time),299346.39999997616,059_o_m_n_a.png,O,m,625,13,1,1647.2000000476837,297699.1999999285,7090,NNB,C,12
13,test,4,0.0,1-Back,1,m,Thu Apr 10 2025 10:19:06 GMT-0500 (Central Daylight Time),301445.60000002384,130_o_f_n_a.png,O,m,1057,14,1,2074.9000000953674,299370.6999999285,7090,NNB,C,13
14,test,4,0.0,1-Back,1,m,Thu Apr 10 2025 10:19:06 GMT-0500 (Central Daylight Time),303211.6999999285,028_y_f_n_a.png,O,m,726,15,1,1744.1999999284744,301467.5,7090,NNB,C,14
15,test,4,1.0,1-Back,1,z,Thu Apr 10 2025 10:19:06 GMT-0500 (Central Daylight Time),304911.10000002384,028_y_f_n_a.png,O,z,663,16,1,1678.4000000953674,303232.6999999285,7090,NNB,C,15
16,test,4,0.0,1-Back,1,m,Thu Apr 10 2025 10:19:06 GMT-0500 (Central Daylight Time),306476.39999997616,006_m_f_n_a.png,O,m,531,17,1,1547.3999999761581,304929.0,7090,NNB,C,16
17,test,4,1.0,1-Back,1,z,Thu Apr 10 2025 10:19:06 GMT-0500 (Central Daylight Time),308127.0,006_m_f_n_a.png,O,z,621,18,1,1646.8999999761581,306480.10000002384,7090,NNB,C,17
0,test,5,1.0,1-Back,,,Thu Apr 10 2025 10:19:06 GMT-0500 (Central Daylight Time),308127.0,059_o_m_n_a.png,O,space,1435,1,1,1646.8999999761581,306480.10000002384,7090,NNB,C,0
1,test,5,1.0,1-Back,1,z,Thu Apr 10 2025 10:19:06 GMT-0500 (Central Daylight Time),313290.89999997616,059_o_m_n_a.png,O,z,523,2,1,1547.1000000238419,311743.7999999523,7090,NNB,C,1
2,test,5,0.0,1-Back,1,m,Thu Apr 10 2025 10:19:06 GMT-0500 (Central Daylight Time),314890.6999999285,098_y_f_n_a.png,O,m,574,3,1,1596.0,313294.6999999285,7090,NNB,C,2
3,test,5,0.0,1-Back,1,m,Thu Apr 10 2025 10:19:06 GMT-0500 (Central Daylight Time),316624.0,057_y_m_n_a.png,O,m,711,4,1,1728.7000000476837,314895.2999999523,7090,NNB,C,3
4,test,5,0.0,1-Back,1,m,Thu Apr 10 2025 10:19:06 GMT-0500 (Central Daylight Time),318390.10000002384,098_y_f_n_a.png,O,m,701,5,1,1735.1000000238419,316655.0,7090,NNB,C,4
5,test,5,0.0,1-Back,1,m,Thu Apr 10 2025 10:19:06 GMT-0500 (Central Daylight Time),320106.1999999285,092_m_m_n_a.png,O,m,676,6,1,1700.7999999523163,318405.39999997616,7090,NNB,C,5
6,test,5,1.0,1-Back,1,z,Thu Apr 10 2025 10:19:06 GMT-0500 (Central Daylight Time),321672.39999997616,092_m_m_n_a.png,O,z,519,7,1,1547.7999999523163,320124.60000002384,7090,NNB,C,6
7,test,5,0.0,1-Back,1,m,Thu Apr 10 2025 10:19:06 GMT-0500 (Central Daylight Time),323371.2999999523,028_y_f_n_a.png,O,m,648,8,1,1678.6000000238419,321692.6999999285,7090,NNB,C,7
8,test,5,0.0,1-Back,1,m,Thu Apr 10 2025 10:19:06 GMT-0500 (Central Daylight Time),325037.7999999523,031_y_m_n_a.png,O,m,646,9,1,1660.8999999761581,323376.89999997616,7090,NNB,C,8
9,test,5,0.0,1-Back,1,m,Thu Apr 10 2025 10:19:06 GMT-0500 (Central Daylight Time),326754.0,028_y_f_n_a.png,O,m,676,10,1,1689.3000000715256,325064.6999999285,7090,NNB,C,9
10,test,5,0.0,1-Back,1,m,Thu Apr 10 2025 10:19:06 GMT-0500 (Central Daylight Time),328503.2999999523,130_o_f_n_a.png,O,m,704,11,1,1729.5,326773.7999999523,7090,NNB,C,10
11,test,5,1.0,1-Back,1,z,Thu Apr 10 2025 10:19:06 GMT-0500 (Central Daylight Time),330069.39999997616,130_o_f_n_a.png,O,z,522,12,1,1545.3999999761581,328524.0,7090,NNB,C,11
12,test,5,0.0,1-Back,1,m,Thu Apr 10 2025 10:19:06 GMT-0500 (Central Daylight Time),331719.0,146_o_m_n_a.png,O,m,604,13,1,1632.5,330086.5,7090,NNB,C,12
13,test,5,0.0,1-Back,1,m,Thu Apr 10 2025 10:19:06 GMT-0500 (Central Daylight Time),333418.5,093_m_f_n_a.png,O,m,660,14,1,1681.0,331737.5,7090,NNB,C,13
14,test,5,1.0,1-Back,1,z,Thu Apr 10 2025 10:19:06 GMT-0500 (Central Daylight Time),335034.6999999285,093_m_f_n_a.png,O,z,568,15,1,1596.5999999046326,333438.10000002384,7090,NNB,C,14
15,test,5,0.0,1-Back,1,m,Thu Apr 10 2025 10:19:06 GMT-0500 (Central Daylight Time),336734.0,146_o_m_n_a.png,O,m,663,16,1,1681.2000000476837,335052.7999999523,7090,NNB,C,15
16,test,5,0.0,1-Back,1,m,Thu Apr 10 2025 10:19:06 GMT-0500 (Central Daylight Time),338450.10000002384,006_m_f_n_a.png,O,m,667,17,1,1697.3000000715256,336752.7999999523,7090,NNB,C,16
17,test,5,0.0,1-Back,1,m,Thu Apr 10 2025 10:19:06 GMT-0500 (Central Daylight Time),340182.7999999523,082_m_m_n_a.png,O,m,695,18,1,1710.8999999761581,338471.89999997616,7090,NNB,C,17
0,prac,1,0.0,2-Back,,,Thu Apr 10 2025 10:19:06 GMT-0500 (Central Daylight Time),340182.7999999523,031_y_m_n_a.png,O,space,10563,1,1,1710.8999999761581,338471.89999997616,7090,NNB,C,0
0,prac,1,0.0,2-Back,,,Thu Apr 10 2025 10:19:06 GMT-0500 (Central Daylight Time),340182.7999999523,006_m_f_n_a.png,O,space,10563,2,1,1710.8999999761581,338471.89999997616,7090,NNB,C,0
1,prac,1,1.0,2-Back,1,m,Thu Apr 10 2025 10:19:06 GMT-0500 (Central Daylight Time),448597.6999999285,146_o_m_n_a.png,O,m,868,3,1,1791.5999999046326,446806.10000002384,7090,NNB,C,1
2,prac,1,0.0,2-Back,1,m,Thu Apr 10 2025 10:19:06 GMT-0500 (Central Daylight Time),450647.10000002384,130_o_f_n_a.png,O,m,1052,4,1,2020.8000000715256,448626.2999999523,7090,NNB,C,2
3,prac,1,0.0,2-Back,1,z,Thu Apr 10 2025 10:19:06 GMT-0500 (Central Daylight Time),453028.39999997616,146_o_m_n_a.png,O,z,1577,5,1,2352.7999999523163,450675.60000002384,7090,NNB,C,3
3,prac,1,1.0,2-Back,0,z,Thu Apr 10 2025 10:19:06 GMT-0500 (Central Daylight Time),455245.1999999285,130_o_f_n_a.png,O,m,1433,6,1,2209.5999999046326,453035.60000002384,7090,NNB,C,4
3,prac,1,0.0,2-Back,0,m,Thu Apr 10 2025 10:19:06 GMT-0500 (Central Daylight Time),457927.7999999523,082_m_m_n_a.png,O,z,1710,7,1,2651.1999999284744,455276.60000002384,7090,NNB,C,5
3,prac,1,0.0,2-Back,0,m,Thu Apr 10 2025 10:19:06 GMT-0500 (Central Daylight Time),460893.1999999285,059_o_m_n_a.png,O,None,2015,8,1,2928.399999976158,457964.7999999523,7090,NNB,C,6
4,prac,1,0.0,2-Back,1,m,Thu Apr 10 2025 10:19:06 GMT-0500 (Central Daylight Time),462943.1999999285,028_y_f_n_a.png,O,m,1086,9,1,2014.2999999523163,460928.89999997616,7090,NNB,C,7
5,prac,1,1.0,2-Back,1,z,Thu Apr 10 2025 10:19:06 GMT-0500 (Central Daylight Time),464842.10000002384,059_o_m_n_a.png,O,z,1088,10,1,1872.4000000953674,462969.6999999285,7090,NNB,C,8
6,prac,1,0.0,2-Back,1,m,Thu Apr 10 2025 10:19:06 GMT-0500 (Central Daylight Time),466758.10000002384,098_y_f_n_a.png,O,m,978,11,1,1889.2000000476837,464868.89999997616,7090,NNB,C,9
6,prac,1,0.0,2-Back,0,m,Thu Apr 10 2025 10:19:06 GMT-0500 (Central Daylight Time),468907.39999997616,082_m_m_n_a.png,O,z,1224,12,1,2124.7000000476837,466782.6999999285,7090,NNB,C,10
0,prac,2,0.0,2-Back,,,Thu Apr 10 2025 10:19:06 GMT-0500 (Central Daylight Time),468907.39999997616,031_y_m_n_a.png,O,a,15620,1,1,2124.7000000476837,466782.6999999285,7090,NNB,C,0
0,prac,2,0.0,2-Back,,,Thu Apr 10 2025 10:19:06 GMT-0500 (Central Daylight Time),468907.39999997616,006_m_f_n_a.png,O,a,15620,2,1,2124.7000000476837,466782.6999999285,7090,NNB,C,0
1,prac,2,1.0,2-Back,1,m,Thu Apr 10 2025 10:19:06 GMT-0500 (Central Daylight Time),491766.6999999285,146_o_m_n_a.png,O,m,918,3,1,1836.3999999761581,489930.2999999523,7090,NNB,C,1
2,prac,2,0.0,2-Back,1,m,Thu Apr 10 2025 10:19:06 GMT-0500 (Central Daylight Time),493666.10000002384,130_o_f_n_a.png,O,m,925,4,1,1861.4000000953674,491804.6999999285,7090,NNB,C,2
3,prac,2,0.0,2-Back,1,z,Thu Apr 10 2025 10:19:06 GMT-0500 (Central Daylight Time),495632.10000002384,146_o_m_n_a.png,O,z,1019,5,1,1939.6000000238419,493692.5,7090,NNB,C,3
4,prac,2,1.0,2-Back,1,z,Thu Apr 10 2025 10:19:06 GMT-0500 (Central Daylight Time),497714.7999999523,130_o_f_n_a.png,O,z,1276,6,1,2053.7999999523163,495661.0,7090,NNB,C,4
4,prac,2,0.0,2-Back,0,m,Thu Apr 10 2025 10:19:06 GMT-0500 (Central Daylight Time),499697.60000002384,082_m_m_n_a.png,O,z,1039,7,1,1954.2000000476837,497743.39999997616,7090,NNB,C,5
5,prac,2,0.0,2-Back,1,m,Thu Apr 10 2025 10:19:06 GMT-0500 (Central Daylight Time),501563.5,059_o_m_n_a.png,O,m,931,8,1,1839.3999999761581,499724.10000002384,7090,NNB,C,6
6,prac,2,0.0,2-Back,1,m,Thu Apr 10 2025 10:19:06 GMT-0500 (Central Daylight Time),503595.5,028_y_f_n_a.png,O,m,1101,9,1,2008.3000000715256,501587.1999999285,7090,NNB,C,7
7,prac,2,1.0,2-Back,1,z,Thu Apr 10 2025 10:19:06 GMT-0500 (Central Daylight Time),505378.89999997616,059_o_m_n_a.png,O,z,862,10,1,1773.5,503605.39999997616,7090,NNB,C,8
8,prac,2,0.0,2-Back,1,m,Thu Apr 10 2025 10:19:06 GMT-0500 (Central Daylight Time),507261.60000002384,098_y_f_n_a.png,O,m,951,11,1,1855.0,505406.60000002384,7090,NNB,C,9
8,prac,2,0.0,2-Back,0,m,Thu Apr 10 2025 10:19:06 GMT-0500 (Central Daylight Time),509244.0,082_m_m_n_a.png,O,z,1046,12,1,1948.2000000476837,507295.7999999523,7090,NNB,C,10
0,test,1,0.0,2-Back,,,Thu Apr 10 2025 10:19:06 GMT-0500 (Central Daylight Time),509244.0,057_y_m_n_a.png,O,space,13276,1,1,1948.2000000476837,507295.7999999523,7090,NNB,C,0
0,test,1,0.0,2-Back,,,Thu Apr 10 2025 10:19:06 GMT-0500 (Central Daylight Time),509244.0,057_y_m_n_a.png,O,space,13276,2,1,1948.2000000476837,507295.7999999523,7090,NNB,C,0
1,test,1,0.0,2-Back,1,m,Thu Apr 10 2025 10:19:06 GMT-0500 (Central Daylight Time),541400.0,130_o_f_n_a.png,O,m,653,3,1,1673.8000000715256,539726.1999999285,7090,NNB,C,1
2,test,1,0.0,2-Back,1,m,Thu Apr 10 2025 10:19:06 GMT-0500 (Central Daylight Time),543433.0,092_m_m_n_a.png,O,m,1010,4,1,2022.3000000715256,541410.6999999285,7090,NNB,C,2
3,test,1,1.0,2-Back,1,z,Thu Apr 10 2025 10:19:06 GMT-0500 (Central Daylight Time),545199.1000000238,130_o_f_n_a.png,O,z,729,5,1,1745.2000000476837,543453.8999999762,7090,NNB,C,3
4,test,1,0.0,2-Back,1,m,Thu Apr 10 2025 10:19:06 GMT-0500 (Central Daylight Time),547147.5,098_y_f_n_a.png,O,m,913,6,1,1931.5,545216.0,7090,NNB,C,4
4,test,1,0.0,2-Back,0,m,Thu Apr 10 2025 10:19:06 GMT-0500 (Central Daylight Time),549180.1999999285,092_m_m_n_a.png,O,z,1014,7,1,2029.0,547151.1999999285,7090,NNB,C,5
4,test,1,1.0,2-Back,0,z,Thu Apr 10 2025 10:19:06 GMT-0500 (Central Daylight Time),550981.3999999762,098_y_f_n_a.png,O,m,782,8,1,1797.5,549183.8999999762,7090,NNB,C,6
4,test,1,0.0,2-Back,0,m,Thu Apr 10 2025 10:19:06 GMT-0500 (Central Daylight Time),552912.6000000238,031_y_m_n_a.png,O,z,893,9,1,1912.0,551000.6000000238,7090,NNB,C,7
5,test,1,0.0,2-Back,1,m,Thu Apr 10 2025 10:19:06 GMT-0500 (Central Daylight Time),555595.6999999285,030_o_f_n_a.png,O,m,1650,10,1,2674.2999999523163,552921.3999999762,7090,NNB,C,8
5,test,1,1.0,2-Back,0,z,Thu Apr 10 2025 10:19:06 GMT-0500 (Central Daylight Time),557994.7999999523,031_y_m_n_a.png,O,m,1350,11,1,2380.2999999523163,555614.5,7090,NNB,C,9
6,test,1,0.0,2-Back,1,m,Thu Apr 10 2025 10:19:06 GMT-0500 (Central Daylight Time),560177.5,006_m_f_n_a.png,O,m,1144,12,1,2164.2000000476837,558013.2999999523,7090,NNB,C,10
7,test,1,0.0,2-Back,1,m,Thu Apr 10 2025 10:19:06 GMT-0500 (Central Daylight Time),562676.6000000238,006_m_f_n_a.png,O,m,1448,13,1,2475.3000000715256,560201.2999999523,7090,NNB,C,11
8,test,1,0.0,2-Back,1,m,Thu Apr 10 2025 10:19:06 GMT-0500 (Central Daylight Time),564825.7999999523,146_o_m_n_a.png,O,m,1110,14,1,2128.7999999523163,562697.0,7090,NNB,C,12
9,test,1,0.0,2-Back,1,m,Thu Apr 10 2025 10:19:06 GMT-0500 (Central Daylight Time),567142.0,030_o_f_n_a.png,O,m,1273,15,1,2298.5,564843.5,7090,NNB,C,13
10,test,1,1.0,2-Back,1,z,Thu Apr 10 2025 10:19:06 GMT-0500 (Central Daylight Time),569257.6000000238,146_o_m_n_a.png,O,z,1077,16,1,2093.2000000476837,567164.3999999762,7090,NNB,C,14
11,test,1,0.0,2-Back,1,m,Thu Apr 10 2025 10:19:06 GMT-0500 (Central Daylight Time),571257.1999999285,093_m_f_n_a.png,O,m,961,17,1,1979.2999999523163,569277.8999999762,7090,NNB,C,15
11,test,1,0.0,2-Back,0,m,Thu Apr 10 2025 10:19:06 GMT-0500 (Central Daylight Time),573573.5,082_m_m_n_a.png,O,z,1278,18,1,2296.5,571277.0,7090,NNB,C,16
0,test,2,0.0,2-Back,,,Thu Apr 10 2025 10:19:06 GMT-0500 (Central Daylight Time),573573.5,082_m_m_n_a.png,O,space,2932,1,1,2296.5,571277.0,7090,NNB,C,0
0,test,2,0.0,2-Back,,,Thu Apr 10 2025 10:19:06 GMT-0500 (Central Daylight Time),573573.5,028_y_f_n_a.png,O,space,2932,2,1,2296.5,571277.0,7090,NNB,C,0
1,test,2,1.0,2-Back,1,z,Thu Apr 10 2025 10:19:06 GMT-0500 (Central Daylight Time),583386.1999999285,082_m_m_n_a.png,O,z,626,3,1,1642.6999999284744,581743.5,7090,NNB,C,1
2,test,2,0.0,2-Back,1,m,Thu Apr 10 2025 10:19:06 GMT-0500 (Central Daylight Time),585502.3999999762,093_m_f_n_a.png,O,m,1080,4,1,2094.899999976158,583407.5,7090,NNB,C,2
2,test,2,0.0,2-Back,0,m,Thu Apr 10 2025 10:19:06 GMT-0500 (Central Daylight Time),587918.1999999285,028_y_f_n_a.png,O,z,1381,5,1,2398.5,585519.6999999285,7090,NNB,C,3
3,test,2,0.0,2-Back,1,m,Thu Apr 10 2025 10:19:06 GMT-0500 (Central Daylight Time),590118.5,146_o_m_n_a.png,O,m,1163,6,1,2180.100000023842,587938.3999999762,7090,NNB,C,4
3,test,2,0.0,2-Back,0,m,Thu Apr 10 2025 10:19:06 GMT-0500 (Central Daylight Time),592350.0,098_y_f_n_a.png,O,z,1197,7,1,2212.100000023842,590137.8999999762,7090,NNB,C,5
4,test,2,1.0,2-Back,1,z,Thu Apr 10 2025 10:19:06 GMT-0500 (Central Daylight Time),594832.1000000238,146_o_m_n_a.png,O,z,1443,8,1,2459.100000023842,592373.0,7090,NNB,C,6
5,test,2,0.0,2-Back,1,m,Thu Apr 10 2025 10:19:06 GMT-0500 (Central Daylight Time),596948.6999999285,031_y_m_n_a.png,O,m,1090,9,1,2107.2999999523163,594841.3999999762,7090,NNB,C,7
6,test,2,0.0,2-Back,1,m,Thu Apr 10 2025 10:19:06 GMT-0500 (Central Daylight Time),599231.1999999285,031_y_m_n_a.png,O,m,1246,10,1,2262.0,596969.1999999285,7090,NNB,C,8
7,test,2,0.0,2-Back,1,m,Thu Apr 10 2025 10:19:06 GMT-0500 (Central Daylight Time),601480.3999999762,006_m_f_n_a.png,O,m,1203,11,1,2231.899999976158,599248.5,7090,NNB,C,9
8,test,2,0.0,2-Back,1,m,Thu Apr 10 2025 10:19:06 GMT-0500 (Central Daylight Time),603796.3999999762,028_y_f_n_a.png,O,m,1267,12,1,2300.0,601496.3999999762,7090,NNB,C,10
9,test,2,1.0,2-Back,1,z,Thu Apr 10 2025 10:19:06 GMT-0500 (Central Daylight Time),605662.3999999762,006_m_f_n_a.png,O,z,822,13,1,1842.5,603819.8999999762,7090,NNB,C,11
10,test,2,0.0,2-Back,1,m,Thu Apr 10 2025 10:19:06 GMT-0500 (Central Daylight Time),607678.2999999523,059_o_m_n_a.png,O,m,981,14,1,1995.0,605683.2999999523,7090,NNB,C,12
11,test,2,0.0,2-Back,1,m,Thu Apr 10 2025 10:19:06 GMT-0500 (Central Daylight Time),610027.7999999523,059_o_m_n_a.png,O,m,1316,15,1,2336.5,607691.2999999523,7090,NNB,C,13
12,test,2,0.0,2-Back,1,m,Thu Apr 10 2025 10:19:06 GMT-0500 (Central Daylight Time),612259.8999999762,030_o_f_n_a.png,O,m,1198,16,1,2214.7000000476837,610045.1999999285,7090,NNB,C,14
13,test,2,0.0,2-Back,1,m,Thu Apr 10 2025 10:19:06 GMT-0500 (Central Daylight Time),614442.8999999762,092_m_m_n_a.png,O,m,1151,17,1,2177.7000000476837,612265.1999999285,7090,NNB,C,15
14,test,2,1.0,2-Back,1,z,Thu Apr 10 2025 10:19:06 GMT-0500 (Central Daylight Time),616075.7999999523,030_o_f_n_a.png,O,z,584,18,1,1605.1000000238419,614470.6999999285,7090,NNB,C,16
0,test,3,1.0,2-Back,,,Thu Apr 10 2025 10:19:06 GMT-0500 (Central Daylight Time),616075.7999999523,057_y_m_n_a.png,O,space,2603,1,1,1605.1000000238419,614470.6999999285,7090,NNB,C,0
0,test,3,1.0,2-Back,,,Thu Apr 10 2025 10:19:06 GMT-0500 (Central Daylight Time),616075.7999999523,057_y_m_n_a.png,O,space,2603,2,1,1605.1000000238419,614470.6999999285,7090,NNB,C,0
0,test,3,0.0,2-Back,0,m,Thu Apr 10 2025 10:19:06 GMT-0500 (Central Daylight Time),625689.2999999523,030_o_f_n_a.png,O,z,769,3,1,1797.2999999523163,623892.0,7090,NNB,C,1
0,test,3,0.0,2-Back,0,m,Thu Apr 10 2025 10:19:06 GMT-0500 (Central Daylight Time),628738.3999999762,082_m_m_n_a.png,O,None,2014,4,1,3027.7999999523163,625710.6000000238,7090,NNB,C,2
0,test,3,1.0,2-Back,0,z,Thu Apr 10 2025 10:19:06 GMT-0500 (Central Daylight Time),630954.3999999762,030_o_f_n_a.png,O,m,1176,5,1,2192.2999999523163,628762.1000000238,7090,NNB,C,3
1,test,3,0.0,2-Back,1,m,Thu Apr 10 2025 10:19:06 GMT-0500 (Central Daylight Time),633070.2999999523,031_y_m_n_a.png,O,m,1072,6,1,2100.899999976158,630969.3999999762,7090,NNB,C,4
1,test,3,0.0,2-Back,0,m,Thu Apr 10 2025 10:19:06 GMT-0500 (Central Daylight Time),635035.8999999762,082_m_m_n_a.png,O,z,924,7,1,1948.8999999761581,633087.0,7090,NNB,C,5
2,test,3,1.0,2-Back,1,z,Thu Apr 10 2025 10:19:06 GMT-0500 (Central Daylight Time),637268.6999999285,031_y_m_n_a.png,O,z,1183,8,1,2215.2999999523163,635053.3999999762,7090,NNB,C,6
3,test,3,0.0,2-Back,1,m,Thu Apr 10 2025 10:19:06 GMT-0500 (Central Daylight Time),639184.3999999762,028_y_f_n_a.png,O,m,870,9,1,1900.5,637283.8999999762,7090,NNB,C,7
4,test,3,0.0,2-Back,1,m,Thu Apr 10 2025 10:19:06 GMT-0500 (Central Daylight Time),641533.8999999762,092_m_m_n_a.png,O,m,1330,10,1,2341.399999976158,639192.5,7090,NNB,C,8
5,test,3,1.0,2-Back,1,z,Thu Apr 10 2025 10:19:06 GMT-0500 (Central Daylight Time),643600.1999999285,028_y_f_n_a.png,O,z,1028,11,1,2048.0,641552.1999999285,7090,NNB,C,9
6,test,3,1.0,2-Back,1,z,Thu Apr 10 2025 10:19:06 GMT-0500 (Central Daylight Time),645965.6000000238,092_m_m_n_a.png,O,z,1331,12,1,2347.600000023842,643618.0,7090,NNB,C,10
7,test,3,0.0,2-Back,1,m,Thu Apr 10 2025 10:19:06 GMT-0500 (Central Daylight Time),647948.7999999523,030_o_f_n_a.png,O,m,933,13,1,1963.0,645985.7999999523,7090,NNB,C,11
8,test,3,0.0,2-Back,1,m,Thu Apr 10 2025 10:19:06 GMT-0500 (Central Daylight Time),649764.6000000238,093_m_f_n_a.png,O,m,772,14,1,1796.4000000953674,647968.1999999285,7090,NNB,C,12
9,test,3,0.0,2-Back,1,m,Thu Apr 10 2025 10:19:06 GMT-0500 (Central Daylight Time),651613.8999999762,146_o_m_n_a.png,O,m,830,15,1,1836.5,649777.3999999762,7090,NNB,C,13
10,test,3,1.0,2-Back,1,z,Thu Apr 10 2025 10:19:06 GMT-0500 (Central Daylight Time),653796.1000000238,093_m_f_n_a.png,O,z,1139,16,1,2163.3000000715256,651632.7999999523,7090,NNB,C,14
11,test,3,0.0,2-Back,1,m,Thu Apr 10 2025 10:19:06 GMT-0500 (Central Daylight Time),655729.0,130_o_f_n_a.png,O,m,909,17,1,1923.3999999761581,653805.6000000238,7090,NNB,C,15
12,test,3,0.0,2-Back,1,m,Thu Apr 10 2025 10:19:06 GMT-0500 (Central Daylight Time),657762.1000000238,130_o_f_n_a.png,O,m,1002,18,1,2024.1000000238419,655738.0,7090,NNB,C,16
0,test,4,0.0,2-Back,,,Thu Apr 10 2025 10:19:06 GMT-0500 (Central Daylight Time),657762.1000000238,059_o_m_n_a.png,O,space,2873,1,1,2024.1000000238419,655738.0,7090,NNB,C,0
0,test,4,0.0,2-Back,,,Thu Apr 10 2025 10:19:06 GMT-0500 (Central Daylight Time),657762.1000000238,098_y_f_n_a.png,O,space,2873,2,1,2024.1000000238419,655738.0,7090,NNB,C,0
1,test,4,1.0,2-Back,1,z,Thu Apr 10 2025 10:19:06 GMT-0500 (Central Daylight Time),667592.1999999285,059_o_m_n_a.png,O,z,587,3,1,1613.0999999046326,665979.1000000238,7090,NNB,C,1
2,test,4,1.0,2-Back,1,z,Thu Apr 10 2025 10:19:06 GMT-0500 (Central Daylight Time),669841.6000000238,098_y_f_n_a.png,O,z,1210,4,1,2232.2000000476837,667609.3999999762,7090,NNB,C,2
3,test,4,0.0,2-Back,1,m,Thu Apr 10 2025 10:19:06 GMT-0500 (Central Daylight Time),671990.6999999285,030_o_f_n_a.png,O,m,1113,5,1,2124.1999999284744,669866.5,7090,NNB,C,3
3,test,4,0.0,2-Back,0,m,Thu Apr 10 2025 10:19:06 GMT-0500 (Central Daylight Time),675040.1000000238,030_o_f_n_a.png,O,None,2015,6,1,3031.9000000953674,672008.1999999285,7090,NNB,C,4
4,test,4,0.0,2-Back,1,m,Thu Apr 10 2025 10:19:06 GMT-0500 (Central Daylight Time),677071.6999999285,006_m_f_n_a.png,O,m,993,7,1,2016.1999999284744,675055.5,7090,NNB,C,5
5,test,4,0.0,2-Back,1,m,Thu Apr 10 2025 10:19:06 GMT-0500 (Central Daylight Time),679054.8999999762,031_y_m_n_a.png,O,m,963,8,1,1979.2000000476837,677075.6999999285,7090,NNB,C,6
6,test,4,1.0,2-Back,1,z,Thu Apr 10 2025 10:19:06 GMT-0500 (Central Daylight Time),680737.7999999523,006_m_f_n_a.png,O,z,640,9,1,1665.1999999284744,679072.6000000238,7090,NNB,C,7
7,test,4,0.0,2-Back,1,m,Thu Apr 10 2025 10:19:06 GMT-0500 (Central Daylight Time),682720.5,092_m_m_n_a.png,O,m,937,10,1,1966.3999999761581,680754.1000000238,7090,NNB,C,8
8,test,4,0.0,2-Back,1,m,Thu Apr 10 2025 10:19:06 GMT-0500 (Central Daylight Time),684736.5,031_y_m_n_a.png,O,m,970,11,1,1999.2000000476837,682737.2999999523,7090,NNB,C,9
9,test,4,0.0,2-Back,1,m,Thu Apr 10 2025 10:19:06 GMT-0500 (Central Daylight Time),686787.8999999762,130_o_f_n_a.png,O,m,1002,12,1,2033.7000000476837,684754.1999999285,7090,NNB,C,10
10,test,4,0.0,2-Back,1,m,Thu Apr 10 2025 10:19:06 GMT-0500 (Central Daylight Time),688868.1000000238,057_y_m_n_a.png,O,m,1033,13,1,2051.7000000476837,686816.3999999762,7090,NNB,C,11
11,test,4,1.0,2-Back,1,z,Thu Apr 10 2025 10:19:06 GMT-0500 (Central Daylight Time),690483.8999999762,130_o_f_n_a.png,O,z,582,14,1,1608.6000000238419,688875.2999999523,7090,NNB,C,12
12,test,4,1.0,2-Back,1,z,Thu Apr 10 2025 10:19:06 GMT-0500 (Central Daylight Time),692583.2999999523,057_y_m_n_a.png,O,z,1075,15,1,2094.1999999284744,690489.1000000238,7090,NNB,C,13
13,test,4,0.0,2-Back,1,m,Thu Apr 10 2025 10:19:06 GMT-0500 (Central Daylight Time),694516.6999999285,082_m_m_n_a.png,O,m,907,16,1,1927.0999999046326,692589.6000000238,7090,NNB,C,14
14,test,4,0.0,2-Back,1,m,Thu Apr 10 2025 10:19:06 GMT-0500 (Central Daylight Time),696565.6999999285,093_m_f_n_a.png,O,m,1014,17,1,2030.5,694535.1999999285,7090,NNB,C,15
15,test,4,1.0,2-Back,1,z,Thu Apr 10 2025 10:19:06 GMT-0500 (Central Daylight Time),698532.0,082_m_m_n_a.png,O,z,915,18,1,1943.3000000715256,696588.6999999285,7090,NNB,C,16
0,test,5,1.0,2-Back,,,Thu Apr 10 2025 10:19:06 GMT-0500 (Central Daylight Time),698532.0,057_y_m_n_a.png,O,space,2165,1,1,1943.3000000715256,696588.6999999285,7090,NNB,C,0
0,test,5,1.0,2-Back,,,Thu Apr 10 2025 10:19:06 GMT-0500 (Central Daylight Time),698532.0,093_m_f_n_a.png,O,space,2165,2,1,1943.3000000715256,696588.6999999285,7090,NNB,C,0
1,test,5,1.0,2-Back,1,z,Thu Apr 10 2025 10:19:06 GMT-0500 (Central Daylight Time),707862.2999999523,057_y_m_n_a.png,O,z,780,3,1,1798.5,706063.7999999523,7090,NNB,C,1
1,test,5,1.0,2-Back,0,z,Thu Apr 10 2025 10:19:06 GMT-0500 (Central Daylight Time),710561.5,093_m_f_n_a.png,O,m,1652,4,1,2682.399999976158,707879.1000000238,7090,NNB,C,2
2,test,5,0.0,2-Back,1,m,Thu Apr 10 2025 10:19:06 GMT-0500 (Central Daylight Time),712627.1000000238,130_o_f_n_a.png,O,m,1024,5,1,2042.6000000238419,710584.5,7090,NNB,C,3
3,test,5,0.0,2-Back,1,m,Thu Apr 10 2025 10:19:06 GMT-0500 (Central Daylight Time),714575.8999999762,057_y_m_n_a.png,O,m,918,6,1,1940.6000000238419,712635.2999999523,7090,NNB,C,4
4,test,5,0.0,2-Back,1,m,Thu Apr 10 2025 10:19:06 GMT-0500 (Central Daylight Time),716576.1000000238,028_y_f_n_a.png,O,m,970,7,1,1996.4000000953674,714579.6999999285,7090,NNB,C,5
5,test,5,0.0,2-Back,1,m,Thu Apr 10 2025 10:19:06 GMT-0500 (Central Daylight Time),718642.1000000238,130_o_f_n_a.png,O,m,1024,8,1,2048.2000000476837,716593.8999999762,7090,NNB,C,6
6,test,5,1.0,2-Back,1,z,Thu Apr 10 2025 10:19:06 GMT-0500 (Central Daylight Time),720357.8999999762,028_y_f_n_a.png,O,z,681,9,1,1696.1000000238419,718661.7999999523,7090,NNB,C,7
7,test,5,0.0,2-Back,1,m,Thu Apr 10 2025 10:19:06 GMT-0500 (Central Daylight Time),722291.0,146_o_m_n_a.png,O,m,883,10,1,1917.3000000715256,720373.6999999285,7090,NNB,C,8
8,test,5,0.0,2-Back,1,m,Thu Apr 10 2025 10:19:06 GMT-0500 (Central Daylight Time),724406.8999999762,006_m_f_n_a.png,O,m,1072,11,1,2098.100000023842,722308.7999999523,7090,NNB,C,9
9,test,5,0.0,2-Back,1,m,Thu Apr 10 2025 10:19:06 GMT-0500 (Central Daylight Time),726805.6999999285,092_m_m_n_a.png,O,m,1364,12,1,2377.7999999523163,724427.8999999762,7090,NNB,C,10
10,test,5,0.0,2-Back,1,m,Thu Apr 10 2025 10:19:06 GMT-0500 (Central Daylight Time),729122.0,146_o_m_n_a.png,O,m,1268,13,1,2292.2000000476837,726829.7999999523,7090,NNB,C,11
11,test,5,1.0,2-Back,1,z,Thu Apr 10 2025 10:19:06 GMT-0500 (Central Daylight Time),731521.1999999285,092_m_m_n_a.png,O,z,1360,14,1,2378.0,729143.1999999285,7090,NNB,C,12
12,test,5,0.0,2-Back,1,m,Thu Apr 10 2025 10:19:06 GMT-0500 (Central Daylight Time),733620.6999999285,098_y_f_n_a.png,O,m,1049,15,1,2068.7999999523163,731551.8999999762,7090,NNB,C,13
13,test,5,0.0,2-Back,1,m,Thu Apr 10 2025 10:19:06 GMT-0500 (Central Daylight Time),735653.0,059_o_m_n_a.png,O,m,992,16,1,2006.1000000238419,733646.8999999762,7090,NNB,C,14
14,test,5,0.0,2-Back,1,m,Thu Apr 10 2025 10:19:06 GMT-0500 (Central Daylight Time),737502.2999999523,006_m_f_n_a.png,O,m,797,17,1,1815.6000000238419,735686.6999999285,7090,NNB,C,15
15,test,5,1.0,2-Back,1,z,Thu Apr 10 2025 10:19:06 GMT-0500 (Central Daylight Time),739268.6999999285,059_o_m_n_a.png,O,z,716,18,1,1750.7999999523163,737517.8999999762,7090,NNB,C,16
