acc_sum,block,block_c,change,condition,correct,correct_response,datetime,endtime,face,project,response,response_time,row_sel,session_number,start_end,starttime,subject_id,task,task_vers,trial
0,prac,1,,1-Back,,,Mon Feb 17 2025 17:29:55 GMT-0600 (Central Standard Time),,124_o_f_d_a.png,O,space,10695,1,1,,,7049,VNB,A,0
1,prac,1,0.0,1-Back,1,m,Mon Feb 17 2025 17:29:55 GMT-0600 (Central Standard Time),147362.7999999998,071_y_f_n_a.png,O,m,1795,2,1,2590.5,144772.2999999998,7049,VNB,A,1
2,prac,1,0.0,1-Back,1,m,Mon Feb 17 2025 17:29:55 GMT-0600 (Central Standard Time),149995.39999999944,165_m_m_h_a.png,O,m,1830,3,1,2625.7000000001863,147369.69999999925,7049,VNB,A,2
3,prac,1,0.0,1-Back,1,m,Mon Feb 17 2025 17:29:55 GMT-0600 (Central Standard Time),152594.5,109_y_m_d_a.png,O,m,1785,4,1,2591.9000000003725,150002.59999999963,7049,VNB,A,3
3,prac,1,0.0,1-Back,0,m,Mon Feb 17 2025 17:29:55 GMT-0600 (Central Standard Time),155193.5,124_o_f_n_a.png,O,z,1761,5,1,2591.4000000003725,152602.09999999963,7049,VNB,A,4
3,prac,1,1.0,1-Back,0,z,Mon Feb 17 2025 17:29:55 GMT-0600 (Central Standard Time),157976.09999999963,109_y_m_n_a.png,O,m,1962,6,1,2775.0,155201.09999999963,7049,VNB,A,5
3,prac,1,0.0,1-Back,0,m,Mon Feb 17 2025 17:29:55 GMT-0600 (Central Standard Time),160775.39999999944,039_o_m_h_a.png,O,None,2001,7,1,2791.7000000001863,157983.69999999925,7049,VNB,A,6
3,prac,1,0.0,1-Back,0,m,Mon Feb 17 2025 17:29:55 GMT-0600 (Central Standard Time),162624.69999999925,139_m_f_d_a.png,O,z,1042,8,1,1841.7999999998137,160782.89999999944,7049,VNB,A,7
3,prac,1,1.0,1-Back,0,z,Mon Feb 17 2025 17:29:55 GMT-0600 (Central Standard Time),165223.69999999925,071_y_f_d_a.png,O,m,1782,9,1,2589.5999999996275,162634.09999999963,7049,VNB,A,8
3,prac,1,0.0,1-Back,0,m,Mon Feb 17 2025 17:29:55 GMT-0600 (Central Standard Time),168039.39999999944,165_m_m_n_a.png,O,None,2016,10,1,2808.2000000001863,165231.19999999925,7049,VNB,A,9
3,prac,1,0.0,1-Back,0,m,Mon Feb 17 2025 17:29:55 GMT-0600 (Central Standard Time),170505.5,124_o_f_h_a.png,O,z,1649,11,1,2458.800000000745,168046.69999999925,7049,VNB,A,10
4,prac,1,0.0,1-Back,1,m,Mon Feb 17 2025 17:29:55 GMT-0600 (Central Standard Time),173121.2999999998,109_y_m_d_a.png,O,m,1833,12,1,2608.5,170512.7999999998,7049,VNB,A,11
0,prac,2,0.0,1-Back,,,Mon Feb 17 2025 17:29:55 GMT-0600 (Central Standard Time),173121.2999999998,124_o_f_d_a.png,O,a,9244,1,1,2608.5,170512.7999999998,7049,VNB,A,0
1,prac,2,0.0,1-Back,1,m,Mon Feb 17 2025 17:29:55 GMT-0600 (Central Standard Time),187650.2999999998,071_y_f_n_a.png,O,m,1430,2,1,2224.9000000003725,185425.39999999944,7049,VNB,A,1
1,prac,2,0.0,1-Back,0,m,Mon Feb 17 2025 17:29:55 GMT-0600 (Central Standard Time),190466.0,165_m_m_h_a.png,O,None,2017,3,1,2808.2000000001863,187657.7999999998,7049,VNB,A,2
2,prac,2,0.0,1-Back,1,m,Mon Feb 17 2025 17:29:55 GMT-0600 (Central Standard Time),192398.59999999963,109_y_m_d_a.png,O,m,1152,4,1,1925.2999999998137,190473.2999999998,7049,VNB,A,3
3,prac,2,0.0,1-Back,1,m,Mon Feb 17 2025 17:29:55 GMT-0600 (Central Standard Time),194748.0,124_o_f_n_a.png,O,m,1514,5,1,2341.800000000745,192406.19999999925,7049,VNB,A,4
4,prac,2,1.0,1-Back,1,z,Mon Feb 17 2025 17:29:55 GMT-0600 (Central Standard Time),196697.19999999925,109_y_m_n_a.png,O,z,1135,6,1,1941.7999999998137,194755.39999999944,7049,VNB,A,5
5,prac,2,0.0,1-Back,1,m,Mon Feb 17 2025 17:29:55 GMT-0600 (Central Standard Time),199113.09999999963,039_o_m_h_a.png,O,m,1611,7,1,2408.7000000001863,196704.39999999944,7049,VNB,A,6
6,prac,2,0.0,1-Back,1,m,Mon Feb 17 2025 17:29:55 GMT-0600 (Central Standard Time),201329.19999999925,139_m_f_d_a.png,O,m,1408,8,1,2208.7999999998137,199120.39999999944,7049,VNB,A,7
7,prac,2,1.0,1-Back,1,z,Mon Feb 17 2025 17:29:55 GMT-0600 (Central Standard Time),203378.09999999963,071_y_f_d_a.png,O,z,1241,9,1,2041.4000000003725,201336.69999999925,7049,VNB,A,8
8,prac,2,0.0,1-Back,1,m,Mon Feb 17 2025 17:29:55 GMT-0600 (Central Standard Time),205794.2999999998,165_m_m_n_a.png,O,m,1606,10,1,2408.9000000003725,203385.39999999944,7049,VNB,A,9
9,prac,2,0.0,1-Back,1,m,Mon Feb 17 2025 17:29:55 GMT-0600 (Central Standard Time),208127.09999999963,124_o_f_h_a.png,O,m,1501,11,1,2325.0,205802.09999999963,7049,VNB,A,10
10,prac,2,0.0,1-Back,1,m,Mon Feb 17 2025 17:29:55 GMT-0600 (Central Standard Time),210009.7999999998,109_y_m_d_a.png,O,m,1099,12,1,1874.7999999998137,208135.0,7049,VNB,A,11
0,test,1,0.0,1-Back,,,Mon Feb 17 2025 17:29:55 GMT-0600 (Central Standard Time),210009.7999999998,071_y_f_d_a.png,O,space,12111,1,1,1874.7999999998137,208135.0,7049,VNB,A,0
1,test,1,0.0,1-Back,1,m,Mon Feb 17 2025 17:29:55 GMT-0600 (Central Standard Time),232486.19999999925,139_m_f_n_a.png,O,m,1854,2,1,2876.0,229610.19999999925,7049,VNB,A,1
2,test,1,0.0,1-Back,1,m,Mon Feb 17 2025 17:29:55 GMT-0600 (Central Standard Time),235418.2999999998,039_o_m_h_a.png,O,m,1915,3,1,2926.100000000559,232492.19999999925,7049,VNB,A,2
2,test,1,1.0,1-Back,0,z,Mon Feb 17 2025 17:29:55 GMT-0600 (Central Standard Time),238450.7999999998,165_m_m_h_a.png,O,None,2016,4,1,3025.9000000003725,235424.89999999944,7049,VNB,A,3
2,test,1,0.0,1-Back,0,m,Mon Feb 17 2025 17:29:55 GMT-0600 (Central Standard Time),240966.7999999998,124_o_f_n_a.png,O,z,1487,5,1,2509.600000000559,238457.19999999925,7049,VNB,A,4
3,test,1,0.0,1-Back,1,m,Mon Feb 17 2025 17:29:55 GMT-0600 (Central Standard Time),243549.2999999998,109_y_m_d_a.png,O,m,1563,6,1,2575.600000000559,240973.69999999925,7049,VNB,A,5
3,test,1,1.0,1-Back,0,z,Mon Feb 17 2025 17:29:55 GMT-0600 (Central Standard Time),245981.69999999925,139_m_f_d_a.png,O,m,1276,7,1,2426.2999999998137,243555.39999999944,7049,VNB,A,6
4,test,1,0.0,1-Back,1,m,Mon Feb 17 2025 17:29:55 GMT-0600 (Central Standard Time),248514.59999999963,071_y_f_h_a.png,O,m,1515,8,1,2526.7000000001863,245987.89999999944,7049,VNB,A,7
5,test,1,0.0,1-Back,1,m,Mon Feb 17 2025 17:29:55 GMT-0600 (Central Standard Time),250896.89999999944,039_o_m_n_a.png,O,m,1359,9,1,2376.399999999441,248520.5,7049,VNB,A,8
5,test,1,0.0,1-Back,0,m,Mon Feb 17 2025 17:29:55 GMT-0600 (Central Standard Time),253296.19999999925,109_y_m_h_a.png,O,z,1368,10,1,2392.899999999441,250903.2999999998,7049,VNB,A,9
6,test,1,0.0,1-Back,1,m,Mon Feb 17 2025 17:29:55 GMT-0600 (Central Standard Time),255895.2999999998,039_o_m_d_a.png,O,m,1577,11,1,2592.9000000003725,253302.39999999944,7049,VNB,A,10
7,test,1,1.0,1-Back,1,z,Mon Feb 17 2025 17:29:55 GMT-0600 (Central Standard Time),258511.2999999998,124_o_f_d_a.png,O,z,1586,12,1,2609.600000000559,255901.69999999925,7049,VNB,A,11
8,test,1,0.0,1-Back,1,m,Mon Feb 17 2025 17:29:55 GMT-0600 (Central Standard Time),261043.59999999963,165_m_m_n_a.png,O,m,1506,13,1,2526.4000000003725,258517.19999999925,7049,VNB,A,12
9,test,1,1.0,1-Back,1,z,Mon Feb 17 2025 17:29:55 GMT-0600 (Central Standard Time),263559.7999999998,071_y_f_n_a.png,O,z,1485,14,1,2510.0,261049.7999999998,7049,VNB,A,13
10,test,1,0.0,1-Back,1,m,Mon Feb 17 2025 17:29:55 GMT-0600 (Central Standard Time),265842.5,139_m_f_h_a.png,O,m,1266,15,1,2275.600000000559,263566.89999999944,7049,VNB,A,14
11,test,1,0.0,1-Back,1,m,Mon Feb 17 2025 17:29:55 GMT-0600 (Central Standard Time),268541.2999999998,165_m_m_d_a.png,O,m,1671,16,1,2692.2999999998137,265849.0,7049,VNB,A,15
11,test,1,0.0,1-Back,0,m,Mon Feb 17 2025 17:29:55 GMT-0600 (Central Standard Time),271240.5999999996,109_y_m_n_a.png,O,z,1676,17,1,2692.7000000001863,268547.89999999944,7049,VNB,A,16
11,test,1,0.0,1-Back,0,m,Mon Feb 17 2025 17:29:55 GMT-0600 (Central Standard Time),273689.7999999998,124_o_f_h_a.png,O,z,1424,18,1,2443.100000000559,271246.69999999925,7049,VNB,A,17
0,test,2,0.0,1-Back,,,Mon Feb 17 2025 17:29:55 GMT-0600 (Central Standard Time),273689.7999999998,109_y_m_n_a.png,O,space,1528,1,1,2443.100000000559,271246.69999999925,7049,VNB,A,0
1,test,2,0.0,1-Back,1,m,Mon Feb 17 2025 17:29:55 GMT-0600 (Central Standard Time),279438.0999999996,071_y_f_h_a.png,O,m,1178,2,1,2193.2000000001863,277244.89999999944,7049,VNB,A,1
2,test,2,1.0,1-Back,1,m,Mon Feb 17 2025 17:29:55 GMT-0600 (Central Standard Time),282153.7999999998,039_o_m_n_a.png,O,m,1683,3,1,2709.2000000001863,279444.5999999996,7049,VNB,A,2
3,test,2,0.0,1-Back,1,m,Mon Feb 17 2025 17:29:55 GMT-0600 (Central Standard Time),284886.19999999925,139_m_f_d_a.png,O,m,1703,4,1,2726.2999999998137,282159.89999999944,7049,VNB,A,3
3,test,2,0.0,1-Back,0,z,Mon Feb 17 2025 17:29:55 GMT-0600 (Central Standard Time),286969.19999999925,165_m_m_d_a.png,O,m,1051,5,1,2076.399999999441,284892.7999999998,7049,VNB,A,4
4,test,2,0.0,1-Back,1,m,Mon Feb 17 2025 17:29:55 GMT-0600 (Central Standard Time),289801.2999999998,109_y_m_h_a.png,O,m,1808,6,1,2825.5,286975.7999999998,7049,VNB,A,5
5,test,2,1.0,1-Back,1,z,Mon Feb 17 2025 17:29:55 GMT-0600 (Central Standard Time),291648.5,124_o_f_h_a.png,O,z,830,7,1,1840.800000000745,289807.69999999925,7049,VNB,A,6
6,test,2,0.0,1-Back,1,m,Mon Feb 17 2025 17:29:55 GMT-0600 (Central Standard Time),293883.19999999925,139_m_f_n_a.png,O,m,1214,8,1,2228.399999999441,291654.7999999998,7049,VNB,A,7
7,test,2,0.0,1-Back,1,m,Mon Feb 17 2025 17:29:55 GMT-0600 (Central Standard Time),296649.2999999998,071_y_f_d_a.png,O,m,1733,9,1,2760.2000000001863,293889.0999999996,7049,VNB,A,8
7,test,2,0.0,1-Back,0,m,Mon Feb 17 2025 17:29:55 GMT-0600 (Central Standard Time),298915.19999999925,165_m_m_n_a.png,O,z,1239,10,1,2259.2999999998137,296655.89999999944,7049,VNB,A,9
8,test,2,1.0,1-Back,1,m,Mon Feb 17 2025 17:29:55 GMT-0600 (Central Standard Time),301681.0999999996,139_m_f_h_a.png,O,m,1742,11,1,2759.7999999998137,298921.2999999998,7049,VNB,A,10
9,test,2,0.0,1-Back,1,z,Mon Feb 17 2025 17:29:55 GMT-0600 (Central Standard Time),303997.0999999996,039_o_m_h_a.png,O,z,1288,12,1,2309.7000000001863,301687.39999999944,7049,VNB,A,11
10,test,2,0.0,1-Back,1,m,Mon Feb 17 2025 17:29:55 GMT-0600 (Central Standard Time),306363.0,109_y_m_d_a.png,O,m,1340,13,1,2359.600000000559,304003.39999999944,7049,VNB,A,12
11,test,2,0.0,1-Back,1,m,Mon Feb 17 2025 17:29:55 GMT-0600 (Central Standard Time),309012.2999999998,124_o_f_n_a.png,O,m,1630,14,1,2642.7000000001863,306369.5999999996,7049,VNB,A,13
12,test,2,0.0,1-Back,1,z,Mon Feb 17 2025 17:29:55 GMT-0600 (Central Standard Time),311011.19999999925,071_y_f_n_a.png,O,z,981,15,1,1992.5,309018.69999999925,7049,VNB,A,14
13,test,2,1.0,1-Back,1,m,Mon Feb 17 2025 17:29:55 GMT-0600 (Central Standard Time),313293.89999999944,165_m_m_h_a.png,O,m,1262,16,1,2276.2999999998137,311017.5999999996,7049,VNB,A,15
14,test,2,0.0,1-Back,1,m,Mon Feb 17 2025 17:29:55 GMT-0600 (Central Standard Time),315909.7999999998,124_o_f_d_a.png,O,m,1595,17,1,2609.9000000003725,313299.89999999944,7049,VNB,A,16
15,test,2,1.0,1-Back,1,z,Mon Feb 17 2025 17:29:55 GMT-0600 (Central Standard Time),317992.5,039_o_m_d_a.png,O,z,1059,18,1,2076.100000000559,315916.39999999944,7049,VNB,A,17
0,test,3,1.0,1-Back,,,Mon Feb 17 2025 17:29:55 GMT-0600 (Central Standard Time),317992.5,124_o_f_h_a.png,O,space,1745,1,1,2076.100000000559,315916.39999999944,7049,VNB,A,0
1,test,3,0.0,1-Back,1,m,Mon Feb 17 2025 17:29:55 GMT-0600 (Central Standard Time),323990.5,139_m_f_d_a.png,O,m,1170,2,1,2193.300000000745,321797.19999999925,7049,VNB,A,1
2,test,3,1.0,1-Back,1,m,Mon Feb 17 2025 17:29:55 GMT-0600 (Central Standard Time),326073.5999999996,165_m_m_n_a.png,O,m,1058,3,1,2076.7000000001863,323996.89999999944,7049,VNB,A,2
3,test,3,0.0,1-Back,1,z,Mon Feb 17 2025 17:29:55 GMT-0600 (Central Standard Time),328356.0,124_o_f_n_a.png,O,z,1264,4,1,2275.7000000001863,326080.2999999998,7049,VNB,A,3
4,test,3,1.0,1-Back,1,m,Mon Feb 17 2025 17:29:55 GMT-0600 (Central Standard Time),331221.69999999925,039_o_m_d_a.png,O,m,1837,5,1,2858.2999999998137,328363.39999999944,7049,VNB,A,4
5,test,3,0.0,1-Back,1,m,Mon Feb 17 2025 17:29:55 GMT-0600 (Central Standard Time),333737.5,071_y_f_h_a.png,O,m,1491,6,1,2509.4000000003725,331228.0999999996,7049,VNB,A,5
6,test,3,0.0,1-Back,1,z,Mon Feb 17 2025 17:29:55 GMT-0600 (Central Standard Time),335987.0,109_y_m_h_a.png,O,z,1215,7,1,2243.2000000001863,333743.7999999998,7049,VNB,A,6
7,test,3,0.0,1-Back,1,m,Mon Feb 17 2025 17:29:55 GMT-0600 (Central Standard Time),338369.69999999925,139_m_f_n_a.png,O,m,1358,8,1,2376.5999999996275,335993.0999999996,7049,VNB,A,7
8,test,3,0.0,1-Back,1,m,Mon Feb 17 2025 17:29:55 GMT-0600 (Central Standard Time),341168.5999999996,071_y_f_d_a.png,O,m,1776,9,1,2792.2000000001863,338376.39999999944,7049,VNB,A,8
9,test,3,1.0,1-Back,1,m,Mon Feb 17 2025 17:29:55 GMT-0600 (Central Standard Time),343667.7999999998,039_o_m_n_a.png,O,m,1480,10,1,2493.100000000559,341174.69999999925,7049,VNB,A,9
10,test,3,0.0,1-Back,1,m,Mon Feb 17 2025 17:29:55 GMT-0600 (Central Standard Time),346633.5999999996,165_m_m_h_a.png,O,m,1934,11,1,2959.7000000001863,343673.89999999944,7049,VNB,A,10
11,test,3,0.0,1-Back,1,z,Mon Feb 17 2025 17:29:55 GMT-0600 (Central Standard Time),348633.0,139_m_f_h_a.png,O,z,977,12,1,1993.1000000005588,346639.89999999944,7049,VNB,A,11
12,test,3,1.0,1-Back,1,m,Mon Feb 17 2025 17:29:55 GMT-0600 (Central Standard Time),351298.89999999944,124_o_f_d_a.png,O,m,1640,13,1,2659.5999999996275,348639.2999999998,7049,VNB,A,12
13,test,3,0.0,1-Back,1,z,Mon Feb 17 2025 17:29:55 GMT-0600 (Central Standard Time),353648.0,165_m_m_d_a.png,O,z,1319,14,1,2342.9000000003725,351305.0999999996,7049,VNB,A,13
14,test,3,0.0,1-Back,1,m,Mon Feb 17 2025 17:29:55 GMT-0600 (Central Standard Time),355997.2999999998,109_y_m_n_a.png,O,m,1321,15,1,2342.7999999998137,353654.5,7049,VNB,A,14
15,test,3,1.0,1-Back,1,m,Mon Feb 17 2025 17:29:55 GMT-0600 (Central Standard Time),358829.5,039_o_m_h_a.png,O,m,1804,16,1,2825.800000000745,356003.69999999925,7049,VNB,A,15
16,test,3,0.0,1-Back,1,m,Mon Feb 17 2025 17:29:55 GMT-0600 (Central Standard Time),361445.69999999925,109_y_m_d_a.png,O,m,1587,17,1,2609.699999999255,358836.0,7049,VNB,A,16
17,test,3,1.0,1-Back,1,m,Mon Feb 17 2025 17:29:55 GMT-0600 (Central Standard Time),363478.19999999925,071_y_f_n_a.png,O,m,1004,18,1,2026.3999999994412,361451.7999999998,7049,VNB,A,17
0,test,4,1.0,1-Back,,,Mon Feb 17 2025 17:29:55 GMT-0600 (Central Standard Time),363478.19999999925,165_m_m_d_a.png,O,space,1475,1,1,2026.3999999994412,361451.7999999998,7049,VNB,A,0
1,test,4,0.0,1-Back,1,z,Mon Feb 17 2025 17:29:55 GMT-0600 (Central Standard Time),369159.7999999998,039_o_m_d_a.png,O,z,1119,2,1,2143.100000000559,367016.69999999925,7049,VNB,A,1
2,test,4,0.0,1-Back,1,m,Mon Feb 17 2025 17:29:55 GMT-0600 (Central Standard Time),371459.19999999925,109_y_m_h_a.png,O,m,1273,3,1,2293.0,369166.19999999925,7049,VNB,A,2
3,test,4,0.0,1-Back,1,m,Mon Feb 17 2025 17:29:55 GMT-0600 (Central Standard Time),373791.7999999998,139_m_f_n_a.png,O,m,1310,4,1,2326.2999999998137,371465.5,7049,VNB,A,3
4,test,4,1.0,1-Back,1,m,Mon Feb 17 2025 17:29:55 GMT-0600 (Central Standard Time),376407.69999999925,124_o_f_h_a.png,O,m,1593,5,1,2609.5,373798.19999999925,7049,VNB,A,4
4,test,4,0.0,1-Back,0,m,Mon Feb 17 2025 17:29:55 GMT-0600 (Central Standard Time),378623.69999999925,165_m_m_n_a.png,O,z,1194,6,1,2210.0,376413.69999999925,7049,VNB,A,5
5,test,4,0.0,1-Back,1,m,Mon Feb 17 2025 17:29:55 GMT-0600 (Central Standard Time),381039.5,109_y_m_d_a.png,O,m,1393,7,1,2409.4000000003725,378630.0999999996,7049,VNB,A,6
6,test,4,1.0,1-Back,1,z,Mon Feb 17 2025 17:29:55 GMT-0600 (Central Standard Time),383188.7999999998,071_y_f_d_a.png,O,z,1121,8,1,2142.9000000003725,381045.89999999944,7049,VNB,A,7
7,test,4,0.0,1-Back,1,m,Mon Feb 17 2025 17:29:55 GMT-0600 (Central Standard Time),386070.89999999944,139_m_f_h_a.png,O,m,1860,9,1,2875.7999999998137,383195.0999999996,7049,VNB,A,8
8,test,4,0.0,1-Back,1,z,Mon Feb 17 2025 17:29:55 GMT-0600 (Central Standard Time),388170.5999999996,039_o_m_h_a.png,O,z,1082,10,1,2091.0,386079.5999999996,7049,VNB,A,9
9,test,4,1.0,1-Back,1,m,Mon Feb 17 2025 17:29:55 GMT-0600 (Central Standard Time),390386.7999999998,124_o_f_n_a.png,O,m,1191,11,1,2209.9000000003725,388176.89999999944,7049,VNB,A,10
10,test,4,0.0,1-Back,1,m,Mon Feb 17 2025 17:29:55 GMT-0600 (Central Standard Time),393102.39999999944,139_m_f_d_a.png,O,m,1687,12,1,2709.5,390392.89999999944,7049,VNB,A,11
10,test,4,0.0,1-Back,0,m,Mon Feb 17 2025 17:29:55 GMT-0600 (Central Standard Time),395301.5999999996,071_y_f_n_a.png,O,z,1171,13,1,2192.2999999998137,393109.2999999998,7049,VNB,A,12
11,test,4,0.0,1-Back,1,m,Mon Feb 17 2025 17:29:55 GMT-0600 (Central Standard Time),397601.0,124_o_f_d_a.png,O,m,1267,14,1,2293.100000000559,395307.89999999944,7049,VNB,A,13
12,test,4,0.0,1-Back,1,m,Mon Feb 17 2025 17:29:55 GMT-0600 (Central Standard Time),400133.2999999998,071_y_f_h_a.png,O,m,1512,15,1,2525.7999999998137,397607.5,7049,VNB,A,14
13,test,4,1.0,1-Back,1,z,Mon Feb 17 2025 17:29:55 GMT-0600 (Central Standard Time),402116.19999999925,165_m_m_h_a.png,O,z,964,16,1,1976.0999999996275,400140.0999999996,7049,VNB,A,15
14,test,4,0.0,1-Back,1,m,Mon Feb 17 2025 17:29:55 GMT-0600 (Central Standard Time),404298.69999999925,039_o_m_n_a.png,O,m,1149,17,1,2176.5999999996275,402122.0999999996,7049,VNB,A,16
15,test,4,1.0,1-Back,1,z,Mon Feb 17 2025 17:29:55 GMT-0600 (Central Standard Time),406448.2999999998,109_y_m_n_a.png,O,z,1118,18,1,2142.9000000003725,404305.39999999944,7049,VNB,A,17
0,test,5,1.0,1-Back,,,Mon Feb 17 2025 17:29:55 GMT-0600 (Central Standard Time),406448.2999999998,039_o_m_n_a.png,O,space,1329,1,1,2142.9000000003725,404305.39999999944,7049,VNB,A,0
1,test,5,1.0,1-Back,1,m,Mon Feb 17 2025 17:29:55 GMT-0600 (Central Standard Time),412313.0,124_o_f_h_a.png,O,m,1492,2,1,2509.2000000001863,409803.7999999998,7049,VNB,A,1
1,test,5,0.0,1-Back,0,m,Mon Feb 17 2025 17:29:55 GMT-0600 (Central Standard Time),414495.69999999925,109_y_m_d_a.png,O,z,1152,3,1,2176.2999999998137,412319.39999999944,7049,VNB,A,2
2,test,5,0.0,1-Back,1,z,Mon Feb 17 2025 17:29:55 GMT-0600 (Central Standard Time),416912.89999999944,039_o_m_d_a.png,O,z,1394,4,1,2410.7000000001863,414502.19999999925,7049,VNB,A,3
3,test,5,0.0,1-Back,1,m,Mon Feb 17 2025 17:29:55 GMT-0600 (Central Standard Time),418994.39999999944,139_m_f_h_a.png,O,m,1050,5,1,2075.2999999998137,416919.0999999996,7049,VNB,A,4
4,test,5,0.0,1-Back,1,m,Mon Feb 17 2025 17:29:55 GMT-0600 (Central Standard Time),421510.19999999925,071_y_f_n_a.png,O,m,1487,6,1,2508.399999999441,419001.7999999998,7049,VNB,A,5
5,test,5,1.0,1-Back,1,z,Mon Feb 17 2025 17:29:55 GMT-0600 (Central Standard Time),423543.0,124_o_f_n_a.png,O,z,1011,7,1,2026.2000000001863,421516.7999999998,7049,VNB,A,6
6,test,5,0.0,1-Back,1,m,Mon Feb 17 2025 17:29:55 GMT-0600 (Central Standard Time),425908.69999999925,139_m_f_d_a.png,O,m,1338,8,1,2358.0999999996275,423550.5999999996,7049,VNB,A,7
7,test,5,0.0,1-Back,1,m,Mon Feb 17 2025 17:29:55 GMT-0600 (Central Standard Time),428408.0,109_y_m_h_a.png,O,m,1476,9,1,2492.7000000001863,425915.2999999998,7049,VNB,A,8
8,test,5,0.0,1-Back,1,m,Mon Feb 17 2025 17:29:55 GMT-0600 (Central Standard Time),430823.89999999944,071_y_f_d_a.png,O,m,1393,10,1,2410.0,428413.89999999944,7049,VNB,A,9
9,test,5,0.0,1-Back,1,m,Mon Feb 17 2025 17:29:55 GMT-0600 (Central Standard Time),433101.39999999944,165_m_m_n_a.png,O,m,1114,11,1,2271.2000000001863,430830.19999999925,7049,VNB,A,10
10,test,5,1.0,1-Back,1,z,Mon Feb 17 2025 17:29:55 GMT-0600 (Central Standard Time),435372.39999999944,139_m_f_n_a.png,O,z,1239,12,1,2264.0,433108.39999999944,7049,VNB,A,11
11,test,5,0.0,1-Back,1,m,Mon Feb 17 2025 17:29:55 GMT-0600 (Central Standard Time),437721.7999999998,039_o_m_h_a.png,O,m,1325,13,1,2343.0,435378.7999999998,7049,VNB,A,12
12,test,5,0.0,1-Back,1,z,Mon Feb 17 2025 17:29:55 GMT-0600 (Central Standard Time),439554.5999999996,165_m_m_h_a.png,O,z,800,14,1,1826.5,437728.0999999996,7049,VNB,A,13
13,test,5,1.0,1-Back,1,m,Mon Feb 17 2025 17:29:55 GMT-0600 (Central Standard Time),441770.39999999944,124_o_f_d_a.png,O,m,1199,15,1,2209.7000000001863,439560.69999999925,7049,VNB,A,14
14,test,5,0.0,1-Back,1,m,Mon Feb 17 2025 17:29:55 GMT-0600 (Central Standard Time),444103.19999999925,109_y_m_n_a.png,O,m,1311,16,1,2326.5999999996275,441776.5999999996,7049,VNB,A,15
15,test,5,0.0,1-Back,1,m,Mon Feb 17 2025 17:29:55 GMT-0600 (Central Standard Time),446452.2999999998,071_y_f_h_a.png,O,m,1322,17,1,2343.0,444109.2999999998,7049,VNB,A,16
16,test,5,0.0,1-Back,1,m,Mon Feb 17 2025 17:29:55 GMT-0600 (Central Standard Time),448685.0999999996,165_m_m_d_a.png,O,m,1205,18,1,2226.5999999996275,446458.5,7049,VNB,A,17
0,prac,1,0.0,2-Back,,,Mon Feb 17 2025 17:29:55 GMT-0600 (Central Standard Time),448685.0999999996,139_m_f_n_a.png,O,space,10871,1,1,2226.5999999996275,446458.5,7049,VNB,A,0
0,prac,1,0.0,2-Back,,,Mon Feb 17 2025 17:29:55 GMT-0600 (Central Standard Time),448685.0999999996,124_o_f_h_a.png,O,space,10871,2,1,2226.5999999996275,446458.5,7049,VNB,A,0
1,prac,1,0.0,2-Back,1,m,Mon Feb 17 2025 17:29:55 GMT-0600 (Central Standard Time),558517.5,039_o_m_d_a.png,O,m,1756,3,1,2558.9000000003725,555958.5999999996,7049,VNB,A,1
1,prac,1,1.0,2-Back,0,z,Mon Feb 17 2025 17:29:55 GMT-0600 (Central Standard Time),561333.1999999993,165_m_m_h_a.png,O,None,2017,4,1,2808.199999999255,558525.0,7049,VNB,A,2
1,prac,1,0.0,2-Back,0,m,Mon Feb 17 2025 17:29:55 GMT-0600 (Central Standard Time),564132.1999999993,071_y_f_n_a.png,O,z,1996,5,1,2792.0,561340.1999999993,7049,VNB,A,3
2,prac,1,1.0,2-Back,1,z,Mon Feb 17 2025 17:29:55 GMT-0600 (Central Standard Time),566448.2999999998,039_o_m_h_a.png,O,z,1511,6,1,2308.9000000003725,564139.3999999994,7049,VNB,A,4
2,prac,1,1.0,2-Back,0,z,Mon Feb 17 2025 17:29:55 GMT-0600 (Central Standard Time),568747.2999999998,109_y_m_n_a.png,O,m,1492,7,1,2291.7999999998137,566455.5,7049,VNB,A,5
3,prac,1,0.0,2-Back,1,m,Mon Feb 17 2025 17:29:55 GMT-0600 (Central Standard Time),571313.2999999998,139_m_f_d_a.png,O,m,1766,8,1,2558.7000000001863,568754.5999999996,7049,VNB,A,6
3,prac,1,0.0,2-Back,0,m,Mon Feb 17 2025 17:29:55 GMT-0600 (Central Standard Time),573695.8999999994,124_o_f_d_a.png,O,z,1545,9,1,2375.399999999441,571320.5,7049,VNB,A,7
4,prac,1,0.0,2-Back,1,m,Mon Feb 17 2025 17:29:55 GMT-0600 (Central Standard Time),575978.5999999996,165_m_m_h_a.png,O,m,1506,10,1,2275.2999999998137,573703.2999999998,7049,VNB,A,8
4,prac,1,1.0,2-Back,0,z,Mon Feb 17 2025 17:29:55 GMT-0600 (Central Standard Time),578711.2999999998,071_y_f_d_a.png,O,m,1911,11,1,2725.5,575985.7999999998,7049,VNB,A,9
5,prac,1,0.0,2-Back,1,m,Mon Feb 17 2025 17:29:55 GMT-0600 (Central Standard Time),580776.7999999998,039_o_m_n_a.png,O,m,1259,12,1,2058.2000000001863,578718.5999999996,7049,VNB,A,10
0,prac,2,0.0,2-Back,,,Mon Feb 17 2025 17:29:55 GMT-0600 (Central Standard Time),580776.7999999998,139_m_f_n_a.png,O,a,7566,1,1,2058.2000000001863,578718.5999999996,7049,VNB,A,0
0,prac,2,0.0,2-Back,,,Mon Feb 17 2025 17:29:55 GMT-0600 (Central Standard Time),580776.7999999998,124_o_f_h_a.png,O,a,7566,2,1,2058.2000000001863,578718.5999999996,7049,VNB,A,0
0,prac,2,0.0,2-Back,0,m,Mon Feb 17 2025 17:29:55 GMT-0600 (Central Standard Time),596255.2999999998,039_o_m_d_a.png,O,None,2002,3,1,2791.7999999998137,593463.5,7049,VNB,A,1
1,prac,2,1.0,2-Back,1,z,Mon Feb 17 2025 17:29:55 GMT-0600 (Central Standard Time),598204.7999999998,165_m_m_h_a.png,O,z,1171,4,1,1942.2000000001863,596262.5999999996,7049,VNB,A,2
1,prac,2,0.0,2-Back,0,m,Mon Feb 17 2025 17:29:55 GMT-0600 (Central Standard Time),600104.1999999993,071_y_f_n_a.png,O,z,1091,5,1,1890.8999999994412,598213.2999999998,7049,VNB,A,3
2,prac,2,1.0,2-Back,1,z,Mon Feb 17 2025 17:29:55 GMT-0600 (Central Standard Time),602070.3999999994,039_o_m_h_a.png,O,z,1162,6,1,1958.7999999998137,600111.5999999996,7049,VNB,A,4
3,prac,2,1.0,2-Back,1,z,Mon Feb 17 2025 17:29:55 GMT-0600 (Central Standard Time),604053.0999999996,109_y_m_n_a.png,O,z,1165,7,1,1975.2999999998137,602077.7999999998,7049,VNB,A,5
4,prac,2,0.0,2-Back,1,m,Mon Feb 17 2025 17:29:55 GMT-0600 (Central Standard Time),606069.1999999993,139_m_f_d_a.png,O,m,1204,8,1,2008.3999999994412,604060.7999999998,7049,VNB,A,6
4,prac,2,0.0,2-Back,0,m,Mon Feb 17 2025 17:29:55 GMT-0600 (Central Standard Time),608568.1999999993,124_o_f_d_a.png,O,z,1653,9,1,2491.5999999996275,606076.5999999996,7049,VNB,A,7
5,prac,2,0.0,2-Back,1,m,Mon Feb 17 2025 17:29:55 GMT-0600 (Central Standard Time),610685.3999999994,165_m_m_h_a.png,O,m,1330,10,1,2109.399999999441,608576.0,7049,VNB,A,8
6,prac,2,1.0,2-Back,1,z,Mon Feb 17 2025 17:29:55 GMT-0600 (Central Standard Time),612433.6999999993,071_y_f_d_a.png,O,z,940,11,1,1740.3999999994412,610693.2999999998,7049,VNB,A,9
7,prac,2,0.0,2-Back,1,m,Mon Feb 17 2025 17:29:55 GMT-0600 (Central Standard Time),614666.1999999993,039_o_m_n_a.png,O,m,1433,12,1,2224.899999999441,612441.2999999998,7049,VNB,A,10
0,test,1,0.0,2-Back,,,Mon Feb 17 2025 17:29:55 GMT-0600 (Central Standard Time),614666.1999999993,109_y_m_h_a.png,O,space,12127,1,1,2224.899999999441,612441.2999999998,7049,VNB,A,0
0,test,1,0.0,2-Back,,,Mon Feb 17 2025 17:29:55 GMT-0600 (Central Standard Time),614666.1999999993,124_o_f_n_a.png,O,space,12127,2,1,2224.899999999441,612441.2999999998,7049,VNB,A,0
1,test,1,0.0,2-Back,1,z,Mon Feb 17 2025 17:29:55 GMT-0600 (Central Standard Time),640108.1999999993,039_o_m_h_a.png,O,z,1097,3,1,2109.399999999441,637998.7999999998,7049,VNB,A,1
2,test,1,0.0,2-Back,1,m,Mon Feb 17 2025 17:29:55 GMT-0600 (Central Standard Time),642374.2999999998,139_m_f_d_a.png,O,m,1245,4,1,2259.9000000003725,640114.3999999994,7049,VNB,A,2
2,test,1,1.0,2-Back,0,m,Mon Feb 17 2025 17:29:55 GMT-0600 (Central Standard Time),645406.8999999994,109_y_m_n_a.png,O,None,2016,5,1,3026.0,642380.8999999994,7049,VNB,A,3
2,test,1,0.0,2-Back,0,z,Mon Feb 17 2025 17:29:55 GMT-0600 (Central Standard Time),647989.1999999993,071_y_f_d_a.png,O,m,1563,6,1,2576.0,645413.1999999993,7049,VNB,A,4
2,test,1,0.0,2-Back,0,m,Mon Feb 17 2025 17:29:55 GMT-0600 (Central Standard Time),650621.5999999996,165_m_m_h_a.png,O,z,1604,7,1,2625.4000000003725,647996.1999999993,7049,VNB,A,5
3,test,1,1.0,2-Back,1,m,Mon Feb 17 2025 17:29:55 GMT-0600 (Central Standard Time),653188.6999999993,071_y_f_n_a.png,O,m,1547,8,1,2560.2999999998137,650628.3999999994,7049,VNB,A,6
4,test,1,0.0,2-Back,1,z,Mon Feb 17 2025 17:29:55 GMT-0600 (Central Standard Time),655370.1999999993,124_o_f_h_a.png,O,z,1156,9,1,2174.7999999998137,653195.3999999994,7049,VNB,A,7
5,test,1,0.0,2-Back,1,m,Mon Feb 17 2025 17:29:55 GMT-0600 (Central Standard Time),657986.0,039_o_m_d_a.png,O,m,1583,10,1,2609.600000000559,655376.3999999994,7049,VNB,A,8
5,test,1,1.0,2-Back,0,m,Mon Feb 17 2025 17:29:55 GMT-0600 (Central Standard Time),660668.5,165_m_m_d_a.png,O,z,1656,11,1,2676.0,657992.5,7049,VNB,A,9
5,test,1,0.0,2-Back,0,m,Mon Feb 17 2025 17:29:55 GMT-0600 (Central Standard Time),663101.0999999996,139_m_f_n_a.png,O,z,1412,12,1,2426.0999999996275,660675.0,7049,VNB,A,10
5,test,1,0.0,2-Back,0,m,Mon Feb 17 2025 17:29:55 GMT-0600 (Central Standard Time),665617.0999999996,071_y_f_h_a.png,O,z,1484,13,1,2509.5999999996275,663107.5,7049,VNB,A,11
5,test,1,0.0,2-Back,0,z,Mon Feb 17 2025 17:29:55 GMT-0600 (Central Standard Time),667816.5,165_m_m_n_a.png,O,m,1168,14,1,2192.800000000745,665623.6999999993,7049,VNB,A,12
5,test,1,0.0,2-Back,0,m,Mon Feb 17 2025 17:29:55 GMT-0600 (Central Standard Time),670848.8999999994,109_y_m_d_a.png,O,None,2016,15,1,3026.0,667822.8999999994,7049,VNB,A,13
6,test,1,1.0,2-Back,1,m,Mon Feb 17 2025 17:29:55 GMT-0600 (Central Standard Time),673547.5,139_m_f_h_a.png,O,m,1680,16,1,2691.5,670856.0,7049,VNB,A,14
6,test,1,0.0,2-Back,0,z,Mon Feb 17 2025 17:29:55 GMT-0600 (Central Standard Time),676113.6999999993,124_o_f_d_a.png,O,m,1541,17,1,2558.0,673555.6999999993,7049,VNB,A,15
6,test,1,0.0,2-Back,0,m,Mon Feb 17 2025 17:29:55 GMT-0600 (Central Standard Time),678046.5,039_o_m_n_a.png,O,z,903,18,1,1926.0,676120.5,7049,VNB,A,16
0,test,2,0.0,2-Back,,,Mon Feb 17 2025 17:29:55 GMT-0600 (Central Standard Time),678046.5,165_m_m_h_a.png,O,space,1491,1,1,1926.0,676120.5,7049,VNB,A,0
0,test,2,0.0,2-Back,,,Mon Feb 17 2025 17:29:55 GMT-0600 (Central Standard Time),678046.5,071_y_f_n_a.png,O,space,1491,2,1,1926.0,676120.5,7049,VNB,A,0
0,test,2,1.0,2-Back,0,z,Mon Feb 17 2025 17:29:55 GMT-0600 (Central Standard Time),686860.2999999998,124_o_f_h_a.png,O,m,1205,3,1,2225.600000000559,684634.6999999993,7049,VNB,A,1
1,test,2,0.0,2-Back,1,m,Mon Feb 17 2025 17:29:55 GMT-0600 (Central Standard Time),689326.5,039_o_m_d_a.png,O,m,1445,4,1,2459.5,686867.0,7049,VNB,A,2
2,test,2,0.0,2-Back,1,m,Mon Feb 17 2025 17:29:55 GMT-0600 (Central Standard Time),692342.0999999996,139_m_f_d_a.png,O,m,1987,5,1,3009.2999999998137,689332.7999999998,7049,VNB,A,3
3,test,2,0.0,2-Back,1,m,Mon Feb 17 2025 17:29:55 GMT-0600 (Central Standard Time),695057.5999999996,109_y_m_h_a.png,O,m,1691,6,1,2709.0999999996275,692348.5,7049,VNB,A,4
3,test,2,0.0,2-Back,0,m,Mon Feb 17 2025 17:29:55 GMT-0600 (Central Standard Time),696957.0999999996,124_o_f_n_a.png,O,z,879,7,1,1892.9000000003725,695064.1999999993,7049,VNB,A,5
3,test,2,1.0,2-Back,0,z,Mon Feb 17 2025 17:29:55 GMT-0600 (Central Standard Time),699989.7999999998,039_o_m_h_a.png,O,None,2016,8,1,3026.2999999998137,696963.5,7049,VNB,A,6
4,test,2,0.0,2-Back,1,m,Mon Feb 17 2025 17:29:55 GMT-0600 (Central Standard Time),702422.0999999996,071_y_f_d_a.png,O,m,1403,9,1,2426.2000000001863,699995.8999999994,7049,VNB,A,7
4,test,2,0.0,2-Back,0,m,Mon Feb 17 2025 17:29:55 GMT-0600 (Central Standard Time),704788.1999999993,109_y_m_d_a.png,O,z,1339,10,1,2359.5999999996275,702428.5999999996,7049,VNB,A,8
4,test,2,0.0,2-Back,0,m,Mon Feb 17 2025 17:29:55 GMT-0600 (Central Standard Time),706870.7999999998,165_m_m_n_a.png,O,z,1053,11,1,2075.9000000003725,704794.8999999994,7049,VNB,A,9
5,test,2,0.0,2-Back,1,m,Mon Feb 17 2025 17:29:55 GMT-0600 (Central Standard Time),709619.8999999994,139_m_f_h_a.png,O,m,1730,12,1,2742.899999999441,706877.0,7049,VNB,A,10
5,test,2,1.0,2-Back,0,z,Mon Feb 17 2025 17:29:55 GMT-0600 (Central Standard Time),712652.1999999993,039_o_m_n_a.png,O,None,2015,13,1,3026.0,709626.1999999993,7049,VNB,A,11
5,test,2,0.0,2-Back,0,m,Mon Feb 17 2025 17:29:55 GMT-0600 (Central Standard Time),714918.3999999994,124_o_f_d_a.png,O,z,1245,14,1,2259.2000000001863,712659.1999999993,7049,VNB,A,12
6,test,2,0.0,2-Back,1,m,Mon Feb 17 2025 17:29:55 GMT-0600 (Central Standard Time),717234.0999999996,071_y_f_h_a.png,O,m,1291,15,1,2309.0,714925.0999999996,7049,VNB,A,13
6,test,2,0.0,2-Back,0,z,Mon Feb 17 2025 17:29:55 GMT-0600 (Central Standard Time),719966.8999999994,165_m_m_d_a.png,O,m,1703,16,1,2726.2999999998137,717240.5999999996,7049,VNB,A,14
6,test,2,0.0,2-Back,0,m,Mon Feb 17 2025 17:29:55 GMT-0600 (Central Standard Time),721916.0999999996,109_y_m_n_a.png,O,z,922,17,1,1942.7000000001863,719973.3999999994,7049,VNB,A,15
6,test,2,1.0,2-Back,0,m,Mon Feb 17 2025 17:29:55 GMT-0600 (Central Standard Time),724598.5,139_m_f_n_a.png,O,z,1653,18,1,2676.0,721922.5,7049,VNB,A,16
0,test,3,1.0,2-Back,,,Mon Feb 17 2025 17:29:55 GMT-0600 (Central Standard Time),724598.5,039_o_m_n_a.png,O,space,1315,1,1,2676.0,721922.5,7049,VNB,A,0
0,test,3,1.0,2-Back,,,Mon Feb 17 2025 17:29:55 GMT-0600 (Central Standard Time),724598.5,124_o_f_d_a.png,O,space,1315,2,1,2676.0,721922.5,7049,VNB,A,0
1,test,3,0.0,2-Back,1,m,Mon Feb 17 2025 17:29:55 GMT-0600 (Central Standard Time),733029.1999999993,071_y_f_h_a.png,O,m,1038,3,1,2058.399999999441,730970.7999999998,7049,VNB,A,1
2,test,3,0.0,2-Back,1,z,Mon Feb 17 2025 17:29:55 GMT-0600 (Central Standard Time),734978.7999999998,139_m_f_d_a.png,O,z,924,4,1,1942.9000000003725,733035.8999999994,7049,VNB,A,2
3,test,3,1.0,2-Back,1,m,Mon Feb 17 2025 17:29:55 GMT-0600 (Central Standard Time),737078.0999999996,109_y_m_n_a.png,O,m,1071,5,1,2092.9000000003725,734985.1999999993,7049,VNB,A,3
3,test,3,0.0,2-Back,0,m,Mon Feb 17 2025 17:29:55 GMT-0600 (Central Standard Time),739293.5999999996,039_o_m_h_a.png,O,z,1187,6,1,2208.7999999998137,737084.7999999998,7049,VNB,A,4
4,test,3,0.0,2-Back,1,z,Mon Feb 17 2025 17:29:55 GMT-0600 (Central Standard Time),741359.7999999998,071_y_f_n_a.png,O,z,1043,7,1,2057.100000000559,739302.6999999993,7049,VNB,A,5
5,test,3,1.0,2-Back,1,m,Mon Feb 17 2025 17:29:55 GMT-0600 (Central Standard Time),743759.1999999993,165_m_m_d_a.png,O,m,1377,8,1,2392.699999999255,741366.5,7049,VNB,A,6
5,test,3,0.0,2-Back,0,m,Mon Feb 17 2025 17:29:55 GMT-0600 (Central Standard Time),745825.0999999996,109_y_m_d_a.png,O,z,1034,9,1,2059.0,743766.0999999996,7049,VNB,A,7
6,test,3,0.0,2-Back,1,m,Mon Feb 17 2025 17:29:55 GMT-0600 (Central Standard Time),747908.0999999996,124_o_f_h_a.png,O,m,1064,10,1,2076.5,745831.5999999996,7049,VNB,A,8
7,test,3,1.0,2-Back,1,m,Mon Feb 17 2025 17:29:55 GMT-0600 (Central Standard Time),750290.5,139_m_f_n_a.png,O,m,1350,11,1,2375.7000000001863,747914.7999999998,7049,VNB,A,9
8,test,3,1.0,2-Back,1,z,Mon Feb 17 2025 17:29:55 GMT-0600 (Central Standard Time),752706.6999999993,165_m_m_h_a.png,O,z,1391,12,1,2409.5999999996275,750297.0999999996,7049,VNB,A,10
9,test,3,0.0,2-Back,1,m,Mon Feb 17 2025 17:29:55 GMT-0600 (Central Standard Time),754822.6999999993,071_y_f_d_a.png,O,m,1087,13,1,2109.699999999255,752713.0,7049,VNB,A,11
10,test,3,0.0,2-Back,1,m,Mon Feb 17 2025 17:29:55 GMT-0600 (Central Standard Time),757288.1999999993,124_o_f_n_a.png,O,m,1435,14,1,2459.0,754829.1999999993,7049,VNB,A,12
10,test,3,0.0,2-Back,0,z,Mon Feb 17 2025 17:29:55 GMT-0600 (Central Standard Time),759554.3999999994,039_o_m_d_a.png,O,m,1240,15,1,2259.7999999998137,757294.5999999996,7049,VNB,A,13
10,test,3,1.0,2-Back,0,m,Mon Feb 17 2025 17:29:55 GMT-0600 (Central Standard Time),761786.6999999993,139_m_f_h_a.png,O,z,1207,16,1,2226.0,759560.6999999993,7049,VNB,A,14
11,test,3,0.0,2-Back,1,m,Mon Feb 17 2025 17:29:55 GMT-0600 (Central Standard Time),764302.6999999993,165_m_m_n_a.png,O,m,1492,17,1,2509.199999999255,761793.5,7049,VNB,A,15
12,test,3,0.0,2-Back,1,z,Mon Feb 17 2025 17:29:55 GMT-0600 (Central Standard Time),767101.7999999998,109_y_m_h_a.png,O,z,1778,18,1,2792.2000000001863,764309.5999999996,7049,VNB,A,16
0,test,4,0.0,2-Back,,,Mon Feb 17 2025 17:29:55 GMT-0600 (Central Standard Time),767101.7999999998,139_m_f_n_a.png,O,space,1707,1,1,2792.2000000001863,764309.5999999996,7049,VNB,A,0
0,test,4,0.0,2-Back,,,Mon Feb 17 2025 17:29:55 GMT-0600 (Central Standard Time),767101.7999999998,039_o_m_n_a.png,O,space,1707,2,1,2792.2000000001863,764309.5999999996,7049,VNB,A,0
1,test,4,1.0,2-Back,1,m,Mon Feb 17 2025 17:29:55 GMT-0600 (Central Standard Time),776032.3999999994,109_y_m_h_a.png,O,m,1110,3,1,2125.7000000001863,773906.6999999993,7049,VNB,A,1
2,test,4,1.0,2-Back,1,m,Mon Feb 17 2025 17:29:55 GMT-0600 (Central Standard Time),778348.1999999993,124_o_f_d_a.png,O,m,1297,4,1,2309.0,776039.1999999993,7049,VNB,A,2
3,test,4,0.0,2-Back,1,z,Mon Feb 17 2025 17:29:55 GMT-0600 (Central Standard Time),780314.6999999993,039_o_m_h_a.png,O,z,934,5,1,1959.7999999998137,778354.8999999994,7049,VNB,A,3
3,test,4,0.0,2-Back,0,m,Mon Feb 17 2025 17:29:55 GMT-0600 (Central Standard Time),782597.1999999993,165_m_m_n_a.png,O,z,1255,6,1,2275.899999999441,780321.2999999998,7049,VNB,A,4
4,test,4,0.0,2-Back,1,m,Mon Feb 17 2025 17:29:55 GMT-0600 (Central Standard Time),785096.1999999993,139_m_f_d_a.png,O,m,1476,7,1,2492.5,782603.6999999993,7049,VNB,A,5
5,test,4,0.0,2-Back,1,z,Mon Feb 17 2025 17:29:55 GMT-0600 (Central Standard Time),787778.6999999993,071_y_f_n_a.png,O,z,1570,8,1,2675.899999999441,785102.7999999998,7049,VNB,A,6
6,test,4,1.0,2-Back,1,m,Mon Feb 17 2025 17:29:55 GMT-0600 (Central Standard Time),790677.7999999998,124_o_f_h_a.png,O,m,1870,9,1,2893.0,787784.7999999998,7049,VNB,A,7
6,test,4,0.0,2-Back,0,m,Mon Feb 17 2025 17:29:55 GMT-0600 (Central Standard Time),792627.0,165_m_m_h_a.png,O,z,932,10,1,1942.800000000745,790684.1999999993,7049,VNB,A,8
7,test,4,0.0,2-Back,1,m,Mon Feb 17 2025 17:29:55 GMT-0600 (Central Standard Time),794993.1999999993,071_y_f_d_a.png,O,m,1334,11,1,2359.7999999998137,792633.3999999994,7049,VNB,A,9
8,test,4,0.0,2-Back,1,m,Mon Feb 17 2025 17:29:55 GMT-0600 (Central Standard Time),797409.1999999993,109_y_m_n_a.png,O,m,1392,12,1,2409.5,794999.6999999993,7049,VNB,A,10
9,test,4,0.0,2-Back,1,z,Mon Feb 17 2025 17:29:55 GMT-0600 (Central Standard Time),799475.1999999993,039_o_m_d_a.png,O,z,1040,13,1,2059.5999999996275,797415.5999999996,7049,VNB,A,11
10,test,4,1.0,2-Back,1,m,Mon Feb 17 2025 17:29:55 GMT-0600 (Central Standard Time),801791.0999999996,139_m_f_h_a.png,O,m,1286,14,1,2309.0,799482.0999999996,7049,VNB,A,12
10,test,4,1.0,2-Back,0,m,Mon Feb 17 2025 17:29:55 GMT-0600 (Central Standard Time),804556.7999999998,071_y_f_h_a.png,O,z,1746,15,1,2759.2000000001863,801797.5999999996,7049,VNB,A,13
11,test,4,0.0,2-Back,1,m,Mon Feb 17 2025 17:29:55 GMT-0600 (Central Standard Time),807039.2999999998,124_o_f_n_a.png,O,m,1452,16,1,2474.4000000003725,804564.8999999994,7049,VNB,A,14
12,test,4,0.0,2-Back,1,m,Mon Feb 17 2025 17:29:55 GMT-0600 (Central Standard Time),809752.5999999996,109_y_m_d_a.png,O,m,1696,17,1,2706.7000000001863,807045.8999999994,7049,VNB,A,15
12,test,4,1.0,2-Back,0,m,Mon Feb 17 2025 17:29:55 GMT-0600 (Central Standard Time),811438.1999999993,165_m_m_d_a.png,O,z,654,18,1,1678.2999999998137,809759.8999999994,7049,VNB,A,16
0,test,5,1.0,2-Back,,,Mon Feb 17 2025 17:29:55 GMT-0600 (Central Standard Time),811438.1999999993,071_y_f_d_a.png,O,space,2131,1,1,1678.2999999998137,809759.8999999994,7049,VNB,A,0
0,test,5,1.0,2-Back,,,Mon Feb 17 2025 17:29:55 GMT-0600 (Central Standard Time),811438.1999999993,124_o_f_h_a.png,O,space,2131,2,1,1678.2999999998137,809759.8999999994,7049,VNB,A,0
1,test,5,1.0,2-Back,1,z,Mon Feb 17 2025 17:29:55 GMT-0600 (Central Standard Time),820451.7999999998,039_o_m_d_a.png,O,z,756,3,1,1776.2000000001863,818675.5999999996,7049,VNB,A,1
2,test,5,1.0,2-Back,1,m,Mon Feb 17 2025 17:29:55 GMT-0600 (Central Standard Time),823234.5,139_m_f_n_a.png,O,m,1765,4,1,2776.2000000001863,820458.2999999998,7049,VNB,A,2
3,test,5,0.0,2-Back,1,m,Mon Feb 17 2025 17:29:55 GMT-0600 (Central Standard Time),825866.6999999993,165_m_m_h_a.png,O,m,1607,5,1,2625.699999999255,823241.0,7049,VNB,A,3
4,test,5,0.0,2-Back,1,z,Mon Feb 17 2025 17:29:55 GMT-0600 (Central Standard Time),828532.5,071_y_f_n_a.png,O,z,1638,6,1,2659.300000000745,825873.1999999993,7049,VNB,A,4
5,test,5,0.0,2-Back,1,m,Mon Feb 17 2025 17:29:55 GMT-0600 (Central Standard Time),830748.7999999998,124_o_f_d_a.png,O,m,1188,7,1,2210.0,828538.7999999998,7049,VNB,A,5
6,test,5,0.0,2-Back,1,m,Mon Feb 17 2025 17:29:55 GMT-0600 (Central Standard Time),832931.1999999993,039_o_m_h_a.png,O,m,1156,8,1,2176.0999999996275,830755.0999999996,7049,VNB,A,6
7,test,5,1.0,2-Back,1,z,Mon Feb 17 2025 17:29:55 GMT-0600 (Central Standard Time),835130.8999999994,139_m_f_d_a.png,O,z,1174,9,1,2193.2999999998137,832937.5999999996,7049,VNB,A,7
8,test,5,0.0,2-Back,1,m,Mon Feb 17 2025 17:29:55 GMT-0600 (Central Standard Time),837629.7999999998,109_y_m_n_a.png,O,m,1479,10,1,2491.5,835138.2999999998,7049,VNB,A,8
8,test,5,0.0,2-Back,0,m,Mon Feb 17 2025 17:29:55 GMT-0600 (Central Standard Time),839545.8999999994,165_m_m_n_a.png,O,z,883,11,1,1909.0999999996275,837636.7999999998,7049,VNB,A,9
9,test,5,0.0,2-Back,1,m,Mon Feb 17 2025 17:29:55 GMT-0600 (Central Standard Time),841795.1999999993,071_y_f_h_a.png,O,m,1223,12,1,2242.5999999996275,839552.5999999996,7049,VNB,A,10
10,test,5,0.0,2-Back,1,m,Mon Feb 17 2025 17:29:55 GMT-0600 (Central Standard Time),844194.3999999994,109_y_m_d_a.png,O,m,1382,13,1,2392.399999999441,841802.0,7049,VNB,A,11
11,test,5,1.0,2-Back,1,z,Mon Feb 17 2025 17:29:55 GMT-0600 (Central Standard Time),847043.3999999994,139_m_f_h_a.png,O,z,1823,14,1,2842.899999999441,844200.5,7049,VNB,A,12
12,test,5,0.0,2-Back,1,m,Mon Feb 17 2025 17:29:55 GMT-0600 (Central Standard Time),850042.3999999994,039_o_m_n_a.png,O,m,1973,15,1,2992.2999999998137,847050.0999999996,7049,VNB,A,13
13,test,5,0.0,2-Back,1,m,Mon Feb 17 2025 17:29:55 GMT-0600 (Central Standard Time),852575.2999999998,165_m_m_d_a.png,O,m,1511,16,1,2526.2999999998137,850049.0,7049,VNB,A,14
14,test,5,0.0,2-Back,1,z,Mon Feb 17 2025 17:29:55 GMT-0600 (Central Standard Time),854291.3999999994,124_o_f_n_a.png,O,z,690,17,1,1709.5,852581.8999999994,7049,VNB,A,15
15,test,5,1.0,2-Back,1,m,Mon Feb 17 2025 17:29:55 GMT-0600 (Central Standard Time),856852.8999999994,109_y_m_h_a.png,O,m,1545,18,1,2554.7000000001863,854298.1999999993,7049,VNB,A,16
