Q,Q1,Q2,Q3,Q4,acc_sum,block,block_c,correct,correct_response,datetime,endtime,project,response,response_time,row_sel,session_number,squiggle1,squiggle1x,squiggle1y,squiggle2,squiggle2x,squiggle2y,squiggle3,squiggle3x,squiggle3y,squiggle4,squiggle4x,squiggle4y,start_end,starttime,subject_id,target_congruent,task,task_vers,testsquiggle,testsquigglex,testsquiggley,time_practice_delay,time_practice_fixation,time_practice_stimuli,time_practice_study,time_test_delay,time_test_fixation,time_test_stimuli,time_test_study,trial
1,1,0,0,0,1,prac,1,1,z,Thu Feb 20 2025 17:59:07 GMT-0600 (Central Standard Time),156962.19999999925,O,z,1539,1,1,116.bmp,-120,-120,117.bmp,120,-120,118.bmp,-120,120,119.bmp,120,120,10344.10000000149,146618.09999999776,7050,yes,SM,A,116.bmp,-120,-120,146745,140733,148762,142738,,,,,1
3,0,0,1,0,1,prac,1,0,m,Thu Feb 20 2025 17:59:07 GMT-0600 (Central Standard Time),167792.19999999925,O,None,2017,2,1,120.bmp,-120,-120,121.bmp,120,-120,122.bmp,-120,120,123.bmp,120,120,10826.10000000149,156966.09999999776,7050,no,SM,A,123.bmp,-120,120,157109,151081,159125,153093,,,,,2
4,0,0,0,1,2,prac,1,1,m,Thu Feb 20 2025 17:59:07 GMT-0600 (Central Standard Time),178122.09999999776,O,m,1514,3,1,124.bmp,-120,-120,125.bmp,120,-120,126.bmp,-120,120,127.bmp,120,120,10326.199999999255,167795.8999999985,7050,no,SM,A,124.bmp,120,120,167939,161911,169955,163923,,,,,3
2,0,1,0,0,3,prac,1,1,z,Thu Feb 20 2025 17:59:07 GMT-0600 (Central Standard Time),188152.19999999925,O,z,1208,4,1,128.bmp,-120,-120,129.bmp,120,-120,130.bmp,-120,120,131.bmp,120,120,10026.39999999851,178125.80000000075,7050,yes,SM,A,129.bmp,120,-120,178269,172241,180285,174254,,,,,4
3,0,0,1,0,3,prac,1,0,z,Thu Feb 20 2025 17:59:07 GMT-0600 (Central Standard Time),198549.19999999925,O,m,1578,5,1,132.bmp,-120,-120,133.bmp,120,-120,134.bmp,-120,120,135.bmp,120,120,10393.5,188155.69999999925,7050,yes,SM,A,134.bmp,-120,120,188299,182271,190315,184284,,,,,5
1,1,0,0,0,3,prac,1,0,m,Thu Feb 20 2025 17:59:07 GMT-0600 (Central Standard Time),208812.5,O,z,1445,6,1,136.bmp,-120,-120,137.bmp,120,-120,138.bmp,-120,120,139.bmp,120,120,10260.10000000149,198552.3999999985,7050,no,SM,A,139.bmp,-120,-120,198696,192668,200712,194681,,,,,6
2,0,1,0,0,3,prac,1,0,m,Thu Feb 20 2025 17:59:07 GMT-0600 (Central Standard Time),219642.59999999776,O,None,2016,7,1,140.bmp,-120,-120,141.bmp,120,-120,142.bmp,-120,120,143.bmp,120,120,10826.29999999702,208816.30000000075,7050,no,SM,A,140.bmp,120,-120,208959,202932,210975,204944,,,,,7
4,0,0,0,1,4,prac,1,1,z,Thu Feb 20 2025 17:59:07 GMT-0600 (Central Standard Time),230056.09999999776,O,z,1584,8,1,144.bmp,-120,-120,145.bmp,120,-120,146.bmp,-120,120,147.bmp,120,120,10409.89999999851,219646.19999999925,7050,yes,SM,A,147.bmp,120,120,219789,213762,221805,215774,,,,,8
1,1,0,0,0,1,prac,2,1,z,Thu Feb 20 2025 17:59:07 GMT-0600 (Central Standard Time),245118.09999999776,O,z,869,1,1,116.bmp,-120,-120,117.bmp,120,-120,118.bmp,-120,120,119.bmp,120,120,9694.099999997765,235424.0,7050,yes,SM,A,116.bmp,-120,-120,235568,229539,237584,231552,,,,,1
3,0,0,1,0,1,prac,2,0,m,Thu Feb 20 2025 17:59:07 GMT-0600 (Central Standard Time),255497.80000000075,O,z,1564,2,1,120.bmp,-120,-120,121.bmp,120,-120,122.bmp,-120,120,123.bmp,120,120,10376.800000000745,245121.0,7050,no,SM,A,123.bmp,-120,120,245265,239236,247281,241249,,,,,2
4,0,0,0,1,2,prac,2,1,m,Thu Feb 20 2025 17:59:07 GMT-0600 (Central Standard Time),266258.69999999925,O,m,1912,3,1,124.bmp,-120,-120,125.bmp,120,-120,126.bmp,-120,120,127.bmp,120,120,10757.39999999851,255501.30000000075,7050,no,SM,A,124.bmp,120,120,255644,249617,257661,251629,,,,,3
2,0,1,0,0,2,prac,2,0,z,Thu Feb 20 2025 17:59:07 GMT-0600 (Central Standard Time),276591.5,O,m,1508,4,1,128.bmp,-120,-120,129.bmp,120,-120,130.bmp,-120,120,131.bmp,120,120,10328.900000002235,266262.59999999776,7050,yes,SM,A,129.bmp,120,-120,266408,260378,268425,262393,,,,,4
3,0,0,1,0,3,prac,2,1,z,Thu Feb 20 2025 17:59:07 GMT-0600 (Central Standard Time),286705.30000000075,O,z,1299,5,1,132.bmp,-120,-120,133.bmp,120,-120,134.bmp,-120,120,135.bmp,120,120,10110.10000000149,276595.19999999925,7050,yes,SM,A,134.bmp,-120,120,276738,270710,278754,272724,,,,,5
1,1,0,0,0,4,prac,2,1,m,Thu Feb 20 2025 17:59:07 GMT-0600 (Central Standard Time),297134.8999999985,O,m,1609,6,1,136.bmp,-120,-120,137.bmp,120,-120,138.bmp,-120,120,139.bmp,120,120,10426.199999999255,286708.69999999925,7050,no,SM,A,139.bmp,-120,-120,286852,280824,288868,282836,,,,,6
2,0,1,0,0,5,prac,2,1,m,Thu Feb 20 2025 17:59:07 GMT-0600 (Central Standard Time),307548.59999999776,O,m,1595,7,1,140.bmp,-120,-120,141.bmp,120,-120,142.bmp,-120,120,143.bmp,120,120,10410.29999999702,297138.30000000075,7050,no,SM,A,140.bmp,120,-120,297282,291254,299298,293266,,,,,7
4,0,0,0,1,6,prac,2,1,z,Thu Feb 20 2025 17:59:07 GMT-0600 (Central Standard Time),317661.8999999985,O,z,1302,8,1,144.bmp,-120,-120,145.bmp,120,-120,146.bmp,-120,120,147.bmp,120,120,10109.89999999851,307552.0,7050,yes,SM,A,147.bmp,120,120,307689,301667,309695,303680,,,,,8
4,0,0,0,1,1,test,1,1,m,Thu Feb 20 2025 17:59:07 GMT-0600 (Central Standard Time),342237.59999999776,O,m,1495,1,1,148.bmp,-120,-120,149.bmp,120,-120,150.bmp,-120,120,143.bmp,120,120,9544.39999999851,332693.19999999925,7050,no,SM,A,150.bmp,120,120,307689,301667,309695,303680,332837.0,326808.0,334854.0,328822.0,1
2,0,1,0,0,2,test,1,1,m,Thu Feb 20 2025 17:59:07 GMT-0600 (Central Standard Time),352001.09999999776,O,m,1700,2,1,101.bmp,-120,-120,102.bmp,120,-120,103.bmp,-120,120,104.bmp,120,120,9760.099999997765,342241.0,7050,no,SM,A,103.bmp,120,-120,307689,301667,309695,303680,342384.0,336356.0,344401.0,338369.0,2
1,1,0,0,0,3,test,1,1,z,Thu Feb 20 2025 17:59:07 GMT-0600 (Central Standard Time),361214.80000000075,O,z,1161,3,1,105.bmp,-120,-120,106.bmp,120,-120,107.bmp,-120,120,108.bmp,120,120,9210.800000000745,352004.0,7050,yes,SM,A,105.bmp,-120,-120,307689,301667,309695,303680,352148.0,346119.0,354164.0,348133.0,3
3,0,0,1,0,3,test,1,0,m,Thu Feb 20 2025 17:59:07 GMT-0600 (Central Standard Time),370162.59999999776,O,z,899,4,1,109.bmp,-120,-120,110.bmp,120,-120,111.bmp,-120,120,112.bmp,120,120,8944.89999999851,361217.69999999925,7050,no,SM,A,109.bmp,-120,120,307689,301667,309695,303680,361361.0,355333.0,363378.0,357346.0,4
2,0,1,0,0,4,test,1,1,z,Thu Feb 20 2025 17:59:07 GMT-0600 (Central Standard Time),379809.30000000075,O,z,1592,5,1,113.bmp,-120,-120,114.bmp,120,-120,115.bmp,-120,120,116.bmp,120,120,9643.900000002235,370165.3999999985,7050,yes,SM,A,114.bmp,120,-120,307689,301667,309695,303680,370309.0,364281.0,372325.0,366293.0,5
3,0,0,1,0,5,test,1,1,z,Thu Feb 20 2025 17:59:07 GMT-0600 (Central Standard Time),389106.19999999925,O,z,1249,6,1,117.bmp,-120,-120,118.bmp,120,-120,119.bmp,-120,120,120.bmp,120,120,9293.89999999851,379812.30000000075,7050,yes,SM,A,119.bmp,-120,120,307689,301667,309695,303680,379956.0,373927.0,381972.0,375941.0,6
4,0,0,0,1,6,test,1,1,z,Thu Feb 20 2025 17:59:07 GMT-0600 (Central Standard Time),398119.8999999985,O,z,952,7,1,121.bmp,-120,-120,122.bmp,120,-120,123.bmp,-120,120,124.bmp,120,120,9011.0,389108.8999999985,7050,yes,SM,A,124.bmp,120,120,307689,301667,309695,303680,389253.0,383224.0,391269.0,385238.0,7
2,0,1,0,0,6,test,1,0,m,Thu Feb 20 2025 17:59:07 GMT-0600 (Central Standard Time),407450.59999999776,O,z,1282,8,1,125.bmp,-120,-120,126.bmp,120,-120,127.bmp,-120,120,128.bmp,120,120,9327.099999997765,398123.5,7050,no,SM,A,125.bmp,120,-120,307689,301667,309695,303680,398267.0,392239.0,400283.0,394252.0,8
3,0,0,1,0,6,test,1,0,m,Thu Feb 20 2025 17:59:07 GMT-0600 (Central Standard Time),417130.80000000075,O,z,1624,9,1,129.bmp,-120,-120,130.bmp,120,-120,131.bmp,-120,120,132.bmp,120,120,9677.20000000298,407453.59999999776,7050,no,SM,A,130.bmp,-120,120,307689,301667,309695,303680,407597.0,401569.0,409613.0,403582.0,9
4,0,0,0,1,7,test,1,1,z,Thu Feb 20 2025 17:59:07 GMT-0600 (Central Standard Time),426528.0,O,z,1343,10,1,137.bmp,-120,-120,138.bmp,120,-120,139.bmp,-120,120,140.bmp,120,120,9393.800000000745,417134.19999999925,7050,yes,SM,A,140.bmp,120,120,307689,301667,309695,303680,417277.0,411249.0,419294.0,413262.0,10
3,0,0,1,0,8,test,1,1,z,Thu Feb 20 2025 17:59:07 GMT-0600 (Central Standard Time),435391.8999999985,O,z,801,11,1,133.bmp,-120,-120,134.bmp,120,-120,135.bmp,-120,120,136.bmp,120,120,8860.599999997765,426531.30000000075,7050,yes,SM,A,135.bmp,-120,120,307689,301667,309695,303680,426674.0,420646.0,428692.0,422659.0,11
2,0,1,0,0,8,test,1,0,m,Thu Feb 20 2025 17:59:07 GMT-0600 (Central Standard Time),445172.0,O,z,1730,12,1,141.bmp,-120,-120,142.bmp,120,-120,143.bmp,-120,120,144.bmp,120,120,9776.699999999255,435395.30000000075,7050,no,SM,A,141.bmp,120,-120,307689,301667,309695,303680,435539.0,429511.0,437555.0,431523.0,12
3,0,0,1,0,9,test,1,1,m,Thu Feb 20 2025 17:59:07 GMT-0600 (Central Standard Time),454680.8999999985,O,m,1460,13,1,145.bmp,-120,-120,146.bmp,120,-120,147.bmp,-120,120,148.bmp,120,120,9505.599999997765,445175.30000000075,7050,no,SM,A,146.bmp,-120,120,307689,301667,309695,303680,445319.0,439290.0,447335.0,441303.0,13
1,1,0,0,0,9,test,1,0,z,Thu Feb 20 2025 17:59:07 GMT-0600 (Central Standard Time),464582.59999999776,O,m,1836,14,1,149.bmp,-120,-120,150.bmp,120,-120,104.bmp,-120,120,101.bmp,120,120,9898.099999997765,454684.5,7050,yes,SM,A,149.bmp,-120,-120,307689,301667,309695,303680,454832.0,448800.0,456849.0,450817.0,14
4,0,0,0,1,9,test,1,0,m,Thu Feb 20 2025 17:59:07 GMT-0600 (Central Standard Time),474646.09999999776,O,None,2015,15,1,110.bmp,-120,-120,111.bmp,120,-120,112.bmp,-120,120,113.bmp,120,120,10060.599999997765,464585.5,7050,no,SM,A,111.bmp,120,120,307689,301667,309695,303680,464729.0,458701.0,466746.0,460714.0,15
1,1,0,0,0,10,test,1,1,m,Thu Feb 20 2025 17:59:07 GMT-0600 (Central Standard Time),483676.59999999776,O,m,972,16,1,102.bmp,-120,-120,103.bmp,120,-120,104.bmp,-120,120,105.bmp,120,120,9027.39999999851,474649.19999999925,7050,no,SM,A,105.bmp,-120,-120,307689,301667,309695,303680,474794.0,468764.0,476809.0,470778.0,16
3,0,0,1,0,11,test,1,1,m,Thu Feb 20 2025 17:59:07 GMT-0600 (Central Standard Time),492740.3999999985,O,m,1005,17,1,122.bmp,-120,-120,123.bmp,120,-120,124.bmp,-120,120,125.bmp,120,120,9060.599999997765,483679.80000000075,7050,no,SM,A,122.bmp,-120,120,307689,301667,309695,303680,483823.0,477795.0,485840.0,479808.0,17
1,1,0,0,0,12,test,1,1,z,Thu Feb 20 2025 17:59:07 GMT-0600 (Central Standard Time),501939.0,O,z,1150,18,1,106.bmp,-120,-120,107.bmp,120,-120,108.bmp,-120,120,109.bmp,120,120,9195.199999999255,492743.80000000075,7050,yes,SM,A,106.bmp,-120,-120,307689,301667,309695,303680,492887.0,486859.0,494903.0,488872.0,18
2,0,1,0,0,13,test,1,1,z,Thu Feb 20 2025 17:59:07 GMT-0600 (Central Standard Time),510835.0,O,z,840,19,1,126.bmp,-120,-120,127.bmp,120,-120,128.bmp,-120,120,129.bmp,120,120,8886.300000000745,501948.69999999925,7050,yes,SM,A,127.bmp,120,-120,307689,301667,309695,303680,502084.0,496064.0,504101.0,498070.0,19
3,0,0,1,0,14,test,1,1,z,Thu Feb 20 2025 17:59:07 GMT-0600 (Central Standard Time),520481.80000000075,O,z,1583,20,1,130.bmp,-120,-120,131.bmp,120,-120,132.bmp,-120,120,133.bmp,120,120,9643.5,510838.30000000075,7050,yes,SM,A,132.bmp,-120,120,307689,301667,309695,303680,510982.0,504954.0,512998.0,506967.0,20
1,1,0,0,0,15,test,1,1,m,Thu Feb 20 2025 17:59:07 GMT-0600 (Central Standard Time),529662.3000000007,O,m,1120,21,1,114.bmp,-120,-120,115.bmp,120,-120,116.bmp,-120,120,117.bmp,120,120,9177.60000000149,520484.69999999925,7050,no,SM,A,116.bmp,-120,-120,307689,301667,309695,303680,520628.0,514600.0,522645.0,516613.0,21
4,0,0,0,1,15,test,1,0,z,Thu Feb 20 2025 17:59:07 GMT-0600 (Central Standard Time),539426.1999999993,O,m,1700,22,1,118.bmp,-120,-120,119.bmp,120,-120,120.bmp,-120,120,121.bmp,120,120,9760.89999999851,529665.3000000007,7050,yes,SM,A,121.bmp,120,120,307689,301667,309695,303680,529809.0,523781.0,531825.0,525794.0,22
1,1,0,0,0,15,test,1,0,m,Thu Feb 20 2025 17:59:07 GMT-0600 (Central Standard Time),549389.3999999985,O,z,1904,23,1,134.bmp,-120,-120,135.bmp,120,-120,136.bmp,-120,120,137.bmp,120,120,9960.199999999255,539429.1999999993,7050,no,SM,A,137.bmp,-120,-120,307689,301667,309695,303680,539572.0,533544.0,541589.0,535557.0,23
2,0,1,0,0,16,test,1,1,z,Thu Feb 20 2025 17:59:07 GMT-0600 (Central Standard Time),559369.6999999993,O,z,1925,24,1,142.bmp,-120,-120,143.bmp,120,-120,144.bmp,-120,120,145.bmp,120,120,9977.39999999851,549392.3000000007,7050,yes,SM,A,143.bmp,120,-120,307689,301667,309695,303680,549536.0,543508.0,551552.0,545521.0,24
4,0,0,0,1,17,test,1,1,m,Thu Feb 20 2025 17:59:07 GMT-0600 (Central Standard Time),568433.5999999978,O,m,1000,25,1,146.bmp,-120,-120,147.bmp,120,-120,148.bmp,-120,120,149.bmp,120,120,9060.599999997765,559373.0,7050,no,SM,A,148.bmp,120,120,307689,301667,309695,303680,559516.0,553488.0,561533.0,555501.0,25
1,1,0,0,0,18,test,1,1,z,Thu Feb 20 2025 17:59:07 GMT-0600 (Central Standard Time),577581.0,O,z,1089,26,1,138.bmp,-120,-120,139.bmp,120,-120,140.bmp,-120,120,141.bmp,120,120,9143.900000002235,568437.0999999978,7050,yes,SM,A,138.bmp,-120,-120,307689,301667,309695,303680,568580.0,562552.0,570596.0,564565.0,26
4,0,0,0,1,19,test,1,1,z,Thu Feb 20 2025 17:59:07 GMT-0600 (Central Standard Time),586927.8000000007,O,z,1293,27,1,150.bmp,-120,-120,111.bmp,120,-120,101.bmp,-120,120,102.bmp,120,120,9343.60000000149,577584.1999999993,7050,yes,SM,A,102.bmp,120,120,307689,301667,309695,303680,577727.0,571699.0,579744.0,573712.0,27
3,0,0,1,0,19,test,1,0,m,Thu Feb 20 2025 17:59:07 GMT-0600 (Central Standard Time),595691.6999999993,O,z,707,28,1,103.bmp,-120,-120,104.bmp,120,-120,105.bmp,-120,120,106.bmp,120,120,8760.89999999851,586930.8000000007,7050,no,SM,A,103.bmp,-120,120,307689,301667,309695,303680,587074.0,581046.0,589090.0,583059.0,28
2,0,1,0,0,20,test,1,1,z,Thu Feb 20 2025 17:59:07 GMT-0600 (Central Standard Time),604989.0,O,z,1239,29,1,107.bmp,-120,-120,108.bmp,120,-120,109.bmp,-120,120,110.bmp,120,120,9294.60000000149,595694.3999999985,7050,yes,SM,A,108.bmp,120,-120,307689,301667,309695,303680,595838.0,589810.0,597855.0,591823.0,29
3,0,0,1,0,21,test,1,1,z,Thu Feb 20 2025 17:59:07 GMT-0600 (Central Standard Time),613969.3999999985,O,z,917,30,1,111.bmp,-120,-120,112.bmp,120,-120,113.bmp,-120,120,114.bmp,120,120,8977.39999999851,604992.0,7050,yes,SM,A,113.bmp,-120,120,307689,301667,309695,303680,605135.0,599107.0,607152.0,601120.0,30
1,1,0,0,0,22,test,1,1,z,Thu Feb 20 2025 17:59:07 GMT-0600 (Central Standard Time),622999.8000000007,O,z,969,31,1,115.bmp,-120,-120,116.bmp,120,-120,117.bmp,-120,120,118.bmp,120,120,9027.0,613972.8000000007,7050,yes,SM,A,115.bmp,-120,-120,307689,301667,309695,303680,614116.0,608088.0,616132.0,610101.0,31
2,0,1,0,0,23,test,1,1,m,Thu Feb 20 2025 17:59:07 GMT-0600 (Central Standard Time),632547.0,O,m,1483,32,1,119.bmp,-120,-120,120.bmp,120,-120,121.bmp,-120,120,122.bmp,120,120,9544.300000000745,623002.6999999993,7050,no,SM,A,119.bmp,120,-120,307689,301667,309695,303680,623146.0,617118.0,625163.0,619131.0,32
4,0,0,0,1,24,test,1,1,z,Thu Feb 20 2025 17:59:07 GMT-0600 (Central Standard Time),642410.5999999978,O,z,1831,33,1,131.bmp,-120,-120,132.bmp,120,-120,133.bmp,-120,120,134.bmp,120,120,9860.29999999702,632550.3000000007,7050,yes,SM,A,134.bmp,120,120,307689,301667,309695,303680,632693.0,626665.0,634694.0,628678.0,33
2,0,1,0,0,25,test,1,1,z,Thu Feb 20 2025 17:59:07 GMT-0600 (Central Standard Time),651924.1999999993,O,z,1456,34,1,123.bmp,-120,-120,124.bmp,120,-120,125.bmp,-120,120,126.bmp,120,120,9510.89999999851,642413.3000000007,7050,yes,SM,A,124.bmp,120,-120,307689,301667,309695,303680,642557.0,636528.0,644573.0,638542.0,34
4,0,0,0,1,25,test,1,0,m,Thu Feb 20 2025 17:59:07 GMT-0600 (Central Standard Time),661254.1999999993,O,z,1278,35,1,127.bmp,-120,-120,128.bmp,120,-120,129.bmp,-120,120,130.bmp,120,120,9326.5,651927.6999999993,7050,no,SM,A,129.bmp,120,120,307689,301667,309695,303680,652071.0,646043.0,654087.0,648055.0,35
3,0,0,1,0,26,test,1,1,m,Thu Feb 20 2025 17:59:07 GMT-0600 (Central Standard Time),670518.3000000007,O,m,1203,36,1,135.bmp,-120,-120,136.bmp,120,-120,137.bmp,-120,120,138.bmp,120,120,9261.300000000745,661257.0,7050,no,SM,A,135.bmp,-120,120,307689,301667,309695,303680,661401.0,655372.0,663418.0,657386.0,36
1,1,0,0,0,27,test,1,1,m,Thu Feb 20 2025 17:59:07 GMT-0600 (Central Standard Time),679915.3000000007,O,m,1340,37,1,139.bmp,-120,-120,140.bmp,120,-120,141.bmp,-120,120,142.bmp,120,120,9394.20000000298,670521.0999999978,7050,no,SM,A,140.bmp,-120,-120,307689,301667,309695,303680,670665.0,664636.0,672681.0,666650.0,37
2,0,1,0,0,28,test,1,1,m,Thu Feb 20 2025 17:59:07 GMT-0600 (Central Standard Time),689179.1999999993,O,m,1208,38,1,143.bmp,-120,-120,144.bmp,120,-120,145.bmp,-120,120,146.bmp,120,120,9261.0,679918.1999999993,7050,no,SM,A,145.bmp,120,-120,307689,301667,309695,303680,680062.0,674033.0,682078.0,676047.0,38
4,0,0,0,1,29,test,1,1,z,Thu Feb 20 2025 17:59:07 GMT-0600 (Central Standard Time),698643.0,O,z,1399,39,1,147.bmp,-120,-120,148.bmp,120,-120,149.bmp,-120,120,150.bmp,120,120,9456.5,689186.5,7050,yes,SM,A,150.bmp,120,120,307689,301667,309695,303680,689326.0,683302.0,691342.0,685311.0,39
3,0,0,1,0,30,test,1,1,m,Thu Feb 20 2025 17:59:07 GMT-0600 (Central Standard Time),708156.6999999993,O,m,1463,40,1,104.bmp,-120,-120,105.bmp,120,-120,106.bmp,-120,120,107.bmp,120,120,9510.699999999255,698646.0,7050,no,SM,A,105.bmp,-120,120,307689,301667,309695,303680,698790.0,692761.0,700806.0,694774.0,40
1,1,0,0,0,31,test,1,1,z,Thu Feb 20 2025 17:59:07 GMT-0600 (Central Standard Time),717353.8000000007,O,z,1143,41,1,108.bmp,-120,-120,109.bmp,120,-120,110.bmp,-120,120,111.bmp,120,120,9194.20000000298,708159.5999999978,7050,yes,SM,A,108.bmp,-120,-120,307689,301667,309695,303680,708303.0,702275.0,710319.0,704288.0,41
4,0,0,0,1,32,test,1,1,z,Thu Feb 20 2025 17:59:07 GMT-0600 (Central Standard Time),726450.6999999993,O,z,1033,42,1,112.bmp,-120,-120,113.bmp,120,-120,114.bmp,-120,120,115.bmp,120,120,9093.699999999255,717357.0,7050,yes,SM,A,115.bmp,120,120,307689,301667,309695,303680,717500.0,711472.0,719517.0,713485.0,42
1,1,0,0,0,33,test,1,1,z,Thu Feb 20 2025 17:59:07 GMT-0600 (Central Standard Time),735614.6999999993,O,z,1111,43,1,116.bmp,-120,-120,117.bmp,120,-120,118.bmp,-120,120,119.bmp,120,120,9160.800000000745,726453.8999999985,7050,yes,SM,A,116.bmp,-120,-120,307689,301667,309695,303680,726598.0,720569.0,728614.0,722582.0,43
4,0,0,0,1,34,test,1,1,m,Thu Feb 20 2025 17:59:07 GMT-0600 (Central Standard Time),745294.8999999985,O,m,1628,44,1,104.bmp,-120,-120,101.bmp,120,-120,102.bmp,-120,120,103.bmp,120,120,9677.199999999255,735617.6999999993,7050,no,SM,A,104.bmp,120,120,307689,301667,309695,303680,735761.0,729733.0,737778.0,731747.0,44
1,1,0,0,0,35,test,1,1,m,Thu Feb 20 2025 17:59:07 GMT-0600 (Central Standard Time),754158.8000000007,O,m,803,45,1,128.bmp,-120,-120,129.bmp,120,-120,130.bmp,-120,120,131.bmp,120,120,8860.70000000298,745298.0999999978,7050,no,SM,A,131.bmp,-120,-120,307689,301667,309695,303680,745442.0,739413.0,747458.0,741426.0,45
1,1,0,0,0,35,test,1,0,m,Thu Feb 20 2025 17:59:07 GMT-0600 (Central Standard Time),764222.3000000007,O,None,2015,46,1,120.bmp,-120,-120,121.bmp,120,-120,122.bmp,-120,120,123.bmp,120,120,10060.400000002235,754161.8999999985,7050,no,SM,A,121.bmp,-120,-120,307689,301667,309695,303680,754305.0,748277.0,756322.0,750291.0,46
3,0,0,1,0,36,test,1,1,z,Thu Feb 20 2025 17:59:07 GMT-0600 (Central Standard Time),773053.0,O,z,780,47,1,124.bmp,-120,-120,125.bmp,120,-120,126.bmp,-120,120,127.bmp,120,120,8827.900000002235,764225.0999999978,7050,yes,SM,A,126.bmp,-120,120,307689,301667,309695,303680,764369.0,758340.0,766385.0,760355.0,47
3,0,0,1,0,37,test,1,1,z,Thu Feb 20 2025 17:59:07 GMT-0600 (Central Standard Time),781950.3000000007,O,z,846,48,1,140.bmp,-120,-120,141.bmp,120,-120,142.bmp,-120,120,143.bmp,120,120,8894.400000002235,773055.8999999985,7050,yes,SM,A,142.bmp,-120,120,307689,301667,309695,303680,773200.0,767171.0,775216.0,769185.0,48
2,0,1,0,0,37,test,1,0,z,Thu Feb 20 2025 17:59:07 GMT-0600 (Central Standard Time),791097.3999999985,O,m,1092,49,1,136.bmp,-120,-120,137.bmp,120,-120,138.bmp,-120,120,139.bmp,120,120,9144.300000000745,781953.0999999978,7050,yes,SM,A,137.bmp,120,-120,307689,301667,309695,303680,782097.0,776068.0,784113.0,778082.0,49
3,0,0,1,0,38,test,1,1,m,Thu Feb 20 2025 17:59:07 GMT-0600 (Central Standard Time),800144.3999999985,O,m,986,50,1,132.bmp,-120,-120,133.bmp,120,-120,134.bmp,-120,120,135.bmp,120,120,9044.099999997765,791100.3000000007,7050,no,SM,A,132.bmp,-120,120,307689,301667,309695,303680,791244.0,785216.0,793260.0,787229.0,50
2,0,1,0,0,39,test,1,1,z,Thu Feb 20 2025 17:59:07 GMT-0600 (Central Standard Time),808875.0,O,z,681,51,1,144.bmp,-120,-120,145.bmp,120,-120,146.bmp,-120,120,147.bmp,120,120,8727.5,800147.5,7050,yes,SM,A,145.bmp,120,-120,307689,301667,309695,303680,800291.0,794263.0,802308.0,796276.0,51
4,0,0,0,1,40,test,1,1,m,Thu Feb 20 2025 17:59:07 GMT-0600 (Central Standard Time),818105.5999999978,O,m,1167,52,1,148.bmp,-120,-120,149.bmp,120,-120,150.bmp,-120,120,131.bmp,120,120,9227.79999999702,808877.8000000007,7050,no,SM,A,148.bmp,120,120,307689,301667,309695,303680,809022.0,802993.0,811038.0,805007.0,52
3,0,0,1,0,41,test,1,1,z,Thu Feb 20 2025 17:59:07 GMT-0600 (Central Standard Time),826836.3000000007,O,z,672,53,1,101.bmp,-120,-120,102.bmp,120,-120,103.bmp,-120,120,104.bmp,120,120,8727.60000000149,818108.6999999993,7050,yes,SM,A,103.bmp,-120,120,307689,301667,309695,303680,818252.0,812224.0,820269.0,814237.0,53
1,1,0,0,0,41,test,1,0,m,Thu Feb 20 2025 17:59:07 GMT-0600 (Central Standard Time),836682.8000000007,O,z,1799,54,1,105.bmp,-120,-120,106.bmp,120,-120,107.bmp,-120,120,108.bmp,120,120,9843.60000000149,826839.1999999993,7050,no,SM,A,107.bmp,-120,-120,307689,301667,309695,303680,826983.0,820954.0,828999.0,822968.0,54
4,0,0,0,1,42,test,1,1,z,Thu Feb 20 2025 17:59:07 GMT-0600 (Central Standard Time),845646.8999999985,O,z,912,55,1,109.bmp,-120,-120,110.bmp,120,-120,111.bmp,-120,120,112.bmp,120,120,8961.099999997765,836685.8000000007,7050,yes,SM,A,112.bmp,120,120,307689,301667,309695,303680,836830.0,830801.0,838846.0,832814.0,55
2,0,1,0,0,43,test,1,1,m,Thu Feb 20 2025 17:59:07 GMT-0600 (Central Standard Time),854543.8999999985,O,m,836,56,1,113.bmp,-120,-120,114.bmp,120,-120,115.bmp,-120,120,116.bmp,120,120,8894.0,845649.8999999985,7050,no,SM,A,113.bmp,120,-120,307689,301667,309695,303680,845794.0,839765.0,847810.0,841778.0,56
4,0,0,0,1,44,test,1,1,m,Thu Feb 20 2025 17:59:07 GMT-0600 (Central Standard Time),863474.6999999993,O,m,883,57,1,117.bmp,-120,-120,118.bmp,120,-120,119.bmp,-120,120,120.bmp,120,120,8927.89999999851,854546.8000000007,7050,no,SM,A,118.bmp,120,120,307689,301667,309695,303680,854691.0,848662.0,856707.0,850676.0,57
3,0,0,1,0,45,test,1,1,z,Thu Feb 20 2025 17:59:07 GMT-0600 (Central Standard Time),872188.6999999993,O,z,656,58,1,121.bmp,-120,-120,122.bmp,120,-120,123.bmp,-120,120,124.bmp,120,120,8711.10000000149,863477.5999999978,7050,yes,SM,A,123.bmp,-120,120,307689,301667,309695,303680,863622.0,857593.0,865638.0,859606.0,58
2,0,1,0,0,45,test,1,0,m,Thu Feb 20 2025 17:59:07 GMT-0600 (Central Standard Time),882252.1999999993,O,None,2015,59,1,125.bmp,-120,-120,126.bmp,120,-120,127.bmp,-120,120,128.bmp,120,120,10059.89999999851,872192.3000000007,7050,no,SM,A,128.bmp,120,-120,307689,301667,309695,303680,872335.0,866307.0,874352.0,868320.0,59
1,1,0,0,0,45,test,1,0,z,Thu Feb 20 2025 17:59:07 GMT-0600 (Central Standard Time),891649.1999999993,O,m,1342,60,1,129.bmp,-120,-120,130.bmp,120,-120,131.bmp,-120,120,132.bmp,120,120,9394.10000000149,882255.0999999978,7050,yes,SM,A,129.bmp,-120,-120,307689,301667,309695,303680,882399.0,876370.0,884415.0,878383.0,60
2,0,1,0,0,45,test,1,0,z,Thu Feb 20 2025 17:59:07 GMT-0600 (Central Standard Time),900779.8000000007,O,m,1073,61,1,133.bmp,-120,-120,134.bmp,120,-120,135.bmp,-120,120,136.bmp,120,120,9127.60000000149,891652.1999999993,7050,yes,SM,A,134.bmp,120,-120,307689,301667,309695,303680,891796.0,885767.0,893812.0,887781.0,61
4,0,0,0,1,46,test,1,1,z,Thu Feb 20 2025 17:59:07 GMT-0600 (Central Standard Time),909577.0,O,z,742,62,1,141.bmp,-120,-120,142.bmp,120,-120,143.bmp,-120,120,144.bmp,120,120,8794.300000000745,900782.6999999993,7050,yes,SM,A,144.bmp,120,120,307689,301667,309695,303680,900926.0,894898.0,902943.0,896911.0,62
1,1,0,0,0,47,test,1,1,m,Thu Feb 20 2025 17:59:07 GMT-0600 (Central Standard Time),918974.0,O,m,1338,63,1,145.bmp,-120,-120,146.bmp,120,-120,147.bmp,-120,120,148.bmp,120,120,9393.699999999255,909580.3000000007,7050,no,SM,A,145.bmp,-120,120,307689,301667,309695,303680,909723.0,903696.0,911740.0,905708.0,63
2,0,1,0,0,48,test,1,1,z,Thu Feb 20 2025 17:59:07 GMT-0600 (Central Standard Time),928137.8999999985,O,z,1109,64,1,149.bmp,-120,-120,150.bmp,120,-120,112.bmp,-120,120,101.bmp,120,120,9160.800000000745,918977.0999999978,7050,yes,SM,A,150.bmp,120,-120,307689,301667,309695,303680,919121.0,913092.0,921137.0,915106.0,64
4,0,0,0,1,49,test,1,1,m,Thu Feb 20 2025 17:59:07 GMT-0600 (Central Standard Time),936985.0999999978,O,m,793,65,1,102.bmp,-120,-120,103.bmp,120,-120,104.bmp,-120,120,105.bmp,120,120,8844.29999999702,928140.8000000007,7050,no,SM,A,104.bmp,120,120,307689,301667,309695,303680,928284.0,922256.0,930301.0,924270.0,65
3,0,0,1,0,50,test,1,1,m,Thu Feb 20 2025 17:59:07 GMT-0600 (Central Standard Time),945832.3000000007,O,m,786,66,1,106.bmp,-120,-120,107.bmp,120,-120,108.bmp,-120,120,109.bmp,120,120,8843.400000002235,936988.8999999985,7050,no,SM,A,109.bmp,-120,120,307689,301667,309695,303680,937132.0,931104.0,939148.0,933117.0,66
2,0,1,0,0,51,test,1,1,m,Thu Feb 20 2025 17:59:07 GMT-0600 (Central Standard Time),954946.0999999978,O,m,1050,67,1,137.bmp,-120,-120,138.bmp,120,-120,139.bmp,-120,120,140.bmp,120,120,9109.79999999702,945836.3000000007,7050,no,SM,A,139.bmp,120,-120,307689,301667,309695,303680,945979.0,939952.0,947995.0,941964.0,67
3,0,0,1,0,52,test,1,1,z,Thu Feb 20 2025 17:59:07 GMT-0600 (Central Standard Time),964093.6999999993,O,z,1089,68,1,110.bmp,-120,-120,111.bmp,120,-120,112.bmp,-120,120,113.bmp,120,120,9144.10000000149,954949.5999999978,7050,yes,SM,A,112.bmp,-120,120,307689,301667,309695,303680,955093.0,949065.0,957109.0,951078.0,68
1,1,0,0,0,52,test,1,0,m,Thu Feb 20 2025 17:59:07 GMT-0600 (Central Standard Time),972840.3000000007,O,z,685,69,1,114.bmp,-120,-120,115.bmp,120,-120,116.bmp,-120,120,117.bmp,120,120,8743.800000000745,964096.5,7050,no,SM,A,115.bmp,-120,-120,307689,301667,309695,303680,964240.0,958212.0,966256.0,960225.0,69
2,0,1,0,0,53,test,1,1,m,Thu Feb 20 2025 17:59:07 GMT-0600 (Central Standard Time),982121.0,O,m,1227,70,1,118.bmp,-120,-120,119.bmp,120,-120,120.bmp,-120,120,121.bmp,120,120,9274.800000000745,972846.1999999993,7050,no,SM,A,120.bmp,120,-120,307689,301667,309695,303680,972987.0,966961.0,975003.0,968972.0,70
4,0,0,0,1,54,test,1,1,z,Thu Feb 20 2025 17:59:07 GMT-0600 (Central Standard Time),991268.0999999978,O,z,1097,71,1,122.bmp,-120,-120,123.bmp,120,-120,124.bmp,-120,120,125.bmp,120,120,9144.29999999702,982123.8000000007,7050,yes,SM,A,125.bmp,120,120,307689,301667,309695,303680,982267.0,976239.0,984284.0,978253.0,71
1,1,0,0,0,55,test,1,1,z,Thu Feb 20 2025 17:59:07 GMT-0600 (Central Standard Time),1000581.8000000007,O,z,1263,72,1,126.bmp,-120,-120,127.bmp,120,-120,128.bmp,-120,120,129.bmp,120,120,9310.5,991271.3000000007,7050,yes,SM,A,126.bmp,-120,-120,307689,301667,309695,303680,991415.0,985387.0,993431.0,987400.0,72
2,0,1,0,0,56,test,1,1,z,Thu Feb 20 2025 17:59:07 GMT-0600 (Central Standard Time),1009429.1999999993,O,z,789,73,1,130.bmp,-120,-120,131.bmp,120,-120,132.bmp,-120,120,133.bmp,120,120,8844.60000000149,1000584.5999999978,7050,yes,SM,A,131.bmp,120,-120,307689,301667,309695,303680,1000728.0,994700.0,1002745.0,996713.0,73
4,0,0,0,1,56,test,1,0,m,Thu Feb 20 2025 17:59:07 GMT-0600 (Central Standard Time),1019309.3999999985,O,z,1830,74,1,134.bmp,-120,-120,135.bmp,120,-120,136.bmp,-120,120,137.bmp,120,120,9876.800000000745,1009432.5999999978,7050,no,SM,A,136.bmp,120,120,307689,301667,309695,303680,1009575.0,1003548.0,1011592.0,1005561.0,74
2,0,1,0,0,56,test,1,0,m,Thu Feb 20 2025 17:59:07 GMT-0600 (Central Standard Time),1029373.0999999978,O,None,2016,75,1,138.bmp,-120,-120,139.bmp,120,-120,140.bmp,-120,120,141.bmp,120,120,10060.699999999255,1019312.3999999985,7050,no,SM,A,141.bmp,120,-120,307689,301667,309695,303680,1019456.0,1013427.0,1021472.0,1015441.0,75
1,1,0,0,0,57,test,1,1,z,Thu Feb 20 2025 17:59:07 GMT-0600 (Central Standard Time),1038353.5,O,z,918,76,1,142.bmp,-120,-120,143.bmp,120,-120,144.bmp,-120,120,145.bmp,120,120,8977.60000000149,1029375.8999999985,7050,yes,SM,A,142.bmp,-120,-120,307689,301667,309695,303680,1029520.0,1023491.0,1031536.0,1025504.0,76
3,0,0,1,0,58,test,1,1,z,Thu Feb 20 2025 17:59:07 GMT-0600 (Central Standard Time),1047267.3999999985,O,z,858,77,1,150.bmp,-120,-120,111.bmp,120,-120,101.bmp,-120,120,102.bmp,120,120,8911.0,1038356.3999999985,7050,yes,SM,A,101.bmp,-120,120,307689,301667,309695,303680,1038500.0,1032472.0,1040516.0,1034485.0,77
1,1,0,0,0,59,test,1,1,m,Thu Feb 20 2025 17:59:07 GMT-0600 (Central Standard Time),1056581.0,O,m,1263,78,1,146.bmp,-120,-120,147.bmp,120,-120,148.bmp,-120,120,149.bmp,120,120,9310.800000000745,1047270.1999999993,7050,no,SM,A,147.bmp,-120,-120,307689,301667,309695,303680,1047414.0,1041385.0,1049430.0,1043399.0,78
4,0,0,0,1,60,test,1,1,m,Thu Feb 20 2025 17:59:07 GMT-0600 (Central Standard Time),1065894.6999999993,O,m,1262,79,1,107.bmp,-120,-120,108.bmp,120,-120,109.bmp,-120,120,110.bmp,120,120,9310.60000000149,1056584.0999999978,7050,no,SM,A,107.bmp,120,120,307689,301667,309695,303680,1056728.0,1050699.0,1058744.0,1052713.0,79
3,0,0,1,0,61,test,1,1,m,Thu Feb 20 2025 17:59:07 GMT-0600 (Central Standard Time),1074808.8000000007,O,m,852,80,1,103.bmp,-120,-120,104.bmp,120,-120,105.bmp,-120,120,106.bmp,120,120,8910.900000002235,1065897.8999999985,7050,no,SM,A,106.bmp,-120,120,307689,301667,309695,303680,1066042.0,1060013.0,1068058.0,1062026.0,80
