block_c,block_dur,condition,countdown,datetime,endtime,list,multichar_response,project,response,response_time,session_number,start_end,starttime,subject_id,task,task_vers,trial
,,,,Wed Apr 02 2025 17:18:09 GMT-0400 (Eastern Daylight Time),,,,I,space,1394,1,,,9010,WL,C,
prac,,0,,Wed Apr 02 2025 17:18:09 GMT-0400 (Eastern Daylight Time),,NA,b,I,b,1987,1,,,9010,WL,C,1.0
prac,,0,,Wed Apr 02 2025 17:18:09 GMT-0400 (Eastern Daylight Time),,NA,bo,I,o,181,1,,,9010,WL,C,1.0
prac,,0,,Wed Apr 02 2025 17:18:09 GMT-0400 (Eastern Daylight Time),,NA,boo,I,o,151,1,,,9010,WL,C,1.0
prac,,0,,Wed Apr 02 2025 17:18:09 GMT-0400 (Eastern Daylight Time),,NA,boos,I,s,63,1,,,9010,WL,C,1.0
prac,,0,,Wed Apr 02 2025 17:18:09 GMT-0400 (Eastern Daylight Time),,NA,boost,I,t,455,1,,,9010,WL,C,1.0
prac,,0,,Wed Apr 02 2025 17:18:09 GMT-0400 (Eastern Daylight Time),,NA,boostenter,I,enter,225,1,,,9010,WL,C,1.0
1,0.46700000762939453,learn,59532.999992370605,Wed Apr 02 2025 17:18:09 GMT-0400 (Eastern Daylight Time),124004.19999980927,A,t,I,t,453,1,465.69999980926514,123538.5,9010,WL,C,1.0
1,0.6500000953674316,learn,59349.99990463257,Wed Apr 02 2025 17:18:09 GMT-0400 (Eastern Daylight Time),124187.80000019073,A,to,I,o,162,1,649.3000001907349,123538.5,9010,WL,C,1.0
1,0.7829999923706055,learn,59217.000007629395,Wed Apr 02 2025 17:18:09 GMT-0400 (Eastern Daylight Time),124320.80000019073,A,tow,I,w,107,1,782.3000001907349,123538.5,9010,WL,C,1.0
1,1.1170001029968262,learn,58882.999897003174,Wed Apr 02 2025 17:18:09 GMT-0400 (Eastern Daylight Time),124654.30000019073,A,towe,I,e,302,1,1115.8000001907349,123538.5,9010,WL,C,1.0
1,1.75,learn,58250.0,Wed Apr 02 2025 17:18:09 GMT-0400 (Eastern Daylight Time),125287.40000009537,A,tower,I,r,617,1,1748.9000000953674,123538.5,9010,WL,C,1.0
1,2.4660000801086426,learn,57533.99991989136,Wed Apr 02 2025 17:18:09 GMT-0400 (Eastern Daylight Time),126003.69999980927,A,towerenter,I,enter,703,1,2465.199999809265,123538.5,9010,WL,C,1.0
1,2.9170000553131104,learn,57082.99994468689,Wed Apr 02 2025 17:18:09 GMT-0400 (Eastern Daylight Time),126454.09999990463,A,w,I,w,438,1,449.90000009536743,126004.19999980927,9010,WL,C,2.0
1,4.383000135421753,learn,55616.99986457825,Wed Apr 02 2025 17:18:09 GMT-0400 (Eastern Daylight Time),127920.69999980927,A,wh,I,h,1441,1,1916.5,126004.19999980927,9010,WL,C,2.0
1,4.517000198364258,learn,55482.99980163574,Wed Apr 02 2025 17:18:09 GMT-0400 (Eastern Daylight Time),128054.0,A,whe,I,e,118,1,2049.800000190735,126004.19999980927,9010,WL,C,2.0
1,4.66700005531311,learn,55332.99994468689,Wed Apr 02 2025 17:18:09 GMT-0400 (Eastern Daylight Time),128204.09999990463,A,whea,I,a,124,1,2199.9000000953674,126004.19999980927,9010,WL,C,2.0
1,4.815999984741211,learn,55184.00001525879,Wed Apr 02 2025 17:18:09 GMT-0400 (Eastern Daylight Time),128353.80000019073,A,wheat,I,t,111,1,2349.6000003814697,126004.19999980927,9010,WL,C,2.0
1,5.216000080108643,learn,54783.99991989136,Wed Apr 02 2025 17:18:09 GMT-0400 (Eastern Daylight Time),128753.80000019073,A,wheatenter,I,enter,387,1,2749.6000003814697,126004.19999980927,9010,WL,C,2.0
1,5.75,learn,54250.0,Wed Apr 02 2025 17:18:09 GMT-0400 (Eastern Daylight Time),129287.59999990463,A,s,I,s,521,1,533.4000000953674,128754.19999980927,9010,WL,C,3.0
1,6.0329999923706055,learn,53967.000007629395,Wed Apr 02 2025 17:18:09 GMT-0400 (Eastern Daylight Time),129570.90000009537,A,su,I,u,255,1,816.7000002861023,128754.19999980927,9010,WL,C,3.0
1,6.450000047683716,learn,53549.999952316284,Wed Apr 02 2025 17:18:09 GMT-0400 (Eastern Daylight Time),129987.0,A,sug,I,g,405,1,1232.8000001907349,128754.19999980927,9010,WL,C,3.0
1,6.666000127792358,learn,53333.99987220764,Wed Apr 02 2025 17:18:09 GMT-0400 (Eastern Daylight Time),130203.59999990463,A,suga,I,a,196,1,1449.4000000953674,128754.19999980927,9010,WL,C,3.0
1,6.833000183105469,learn,53166.99981689453,Wed Apr 02 2025 17:18:09 GMT-0400 (Eastern Daylight Time),130370.69999980927,A,sugar,I,r,157,1,1616.5,128754.19999980927,9010,WL,C,3.0
1,7.183000087738037,learn,52816.99991226196,Wed Apr 02 2025 17:18:09 GMT-0400 (Eastern Daylight Time),130720.19999980927,A,sugarenter,I,enter,314,1,1966.0,128754.19999980927,9010,WL,C,3.0
1,7.950000047683716,learn,52049.999952316284,Wed Apr 02 2025 17:18:09 GMT-0400 (Eastern Daylight Time),131487.40000009537,A,c,I,c,745,1,766.7000002861023,130720.69999980927,9010,WL,C,4.0
1,8.117000102996826,learn,51882.999897003174,Wed Apr 02 2025 17:18:09 GMT-0400 (Eastern Daylight Time),131654.30000019073,A,co,I,o,151,1,933.6000003814697,130720.69999980927,9010,WL,C,4.0
1,8.300000190734863,learn,51699.99980926514,Wed Apr 02 2025 17:18:09 GMT-0400 (Eastern Daylight Time),131837.59999990463,A,cor,I,r,153,1,1116.9000000953674,130720.69999980927,9010,WL,C,4.0
1,8.64900016784668,learn,51350.99983215332,Wed Apr 02 2025 17:18:09 GMT-0400 (Eastern Daylight Time),132186.5,A,corn,I,n,329,1,1465.8000001907349,130720.69999980927,9010,WL,C,4.0
1,9.049000024795532,learn,50950.99997520447,Wed Apr 02 2025 17:18:09 GMT-0400 (Eastern Daylight Time),132586.90000009537,A,cornenter,I,enter,376,1,1866.2000002861023,130720.69999980927,9010,WL,C,4.0
1,9.599000215530396,learn,50400.999784469604,Wed Apr 02 2025 17:18:09 GMT-0400 (Eastern Daylight Time),133136.90000009537,A,b,I,b,526,1,549.5,132587.40000009537,9010,WL,C,5.0
1,9.767000198364258,learn,50232.99980163574,Wed Apr 02 2025 17:18:09 GMT-0400 (Eastern Daylight Time),133304.19999980927,A,bo,I,o,154,1,716.7999997138977,132587.40000009537,9010,WL,C,5.0
1,10.034000158309937,learn,49965.99984169006,Wed Apr 02 2025 17:18:09 GMT-0400 (Eastern Daylight Time),133571.0,A,boy,I,y,246,1,983.5999999046326,132587.40000009537,9010,WL,C,5.0
1,10.383000135421753,learn,49616.99986457825,Wed Apr 02 2025 17:18:09 GMT-0400 (Eastern Daylight Time),133920.30000019073,A,boyenter,I,enter,325,1,1332.9000000953674,132587.40000009537,9010,WL,C,5.0
1,10.849000215530396,learn,49150.999784469604,Wed Apr 02 2025 17:18:09 GMT-0400 (Eastern Daylight Time),134387.0,A,d,I,d,458,1,466.19999980926514,133920.80000019073,9010,WL,C,6.0
1,11.300000190734863,learn,48699.99980926514,Wed Apr 02 2025 17:18:09 GMT-0400 (Eastern Daylight Time),134837.30000019073,A,dc,I,c,438,1,916.5,133920.80000019073,9010,WL,C,6.0
1,11.583000183105469,learn,48416.99981689453,Wed Apr 02 2025 17:18:09 GMT-0400 (Eastern Daylight Time),135120.80000019073,A,dct,I,t,257,1,1200.0,133920.80000019073,9010,WL,C,6.0
1,11.700000047683716,learn,48299.999952316284,Wed Apr 02 2025 17:18:09 GMT-0400 (Eastern Daylight Time),135237.30000019073,A,dcto,I,o,102,1,1316.5,133920.80000019073,9010,WL,C,6.0
1,11.983000040054321,learn,48016.99995994568,Wed Apr 02 2025 17:18:09 GMT-0400 (Eastern Daylight Time),135520.90000009537,A,dctor,I,r,248,1,1600.0999999046326,133920.80000019073,9010,WL,C,6.0
1,12.199000120162964,learn,47800.999879837036,Wed Apr 02 2025 17:18:09 GMT-0400 (Eastern Daylight Time),135736.90000009537,A,dctorenter,I,enter,198,1,1816.0999999046326,133920.80000019073,9010,WL,C,6.0
1,14.433000087738037,learn,45566.99991226196,Wed Apr 02 2025 17:18:09 GMT-0400 (Eastern Daylight Time),137970.09999990463,A,q,I,q,2210,1,2232.7999997138977,135737.30000019073,9010,WL,C,7.0
1,14.700000047683716,learn,45299.999952316284,Wed Apr 02 2025 17:18:09 GMT-0400 (Eastern Daylight Time),138237.09999990463,A,qu,I,u,245,1,2499.7999997138977,135737.30000019073,9010,WL,C,7.0
1,15.416000127792358,learn,44583.99987220764,Wed Apr 02 2025 17:18:09 GMT-0400 (Eastern Daylight Time),138953.19999980927,A,que,I,e,690,1,3215.8999996185303,135737.30000019073,9010,WL,C,7.0
1,15.616000175476074,learn,44383.999824523926,Wed Apr 02 2025 17:18:09 GMT-0400 (Eastern Daylight Time),139153.80000019073,A,quee,I,e,176,1,3416.5,135737.30000019073,9010,WL,C,7.0
1,15.799000024795532,learn,44200.99997520447,Wed Apr 02 2025 17:18:09 GMT-0400 (Eastern Daylight Time),139336.59999990463,A,queen,I,n,158,1,3599.2999997138977,135737.30000019073,9010,WL,C,7.0
1,16.48300004005432,learn,43516.99995994568,Wed Apr 02 2025 17:18:09 GMT-0400 (Eastern Daylight Time),140020.19999980927,A,queenenter,I,enter,674,1,4282.89999961853,135737.30000019073,9010,WL,C,7.0
1,17.883000135421753,learn,42116.99986457825,Wed Apr 02 2025 17:18:09 GMT-0400 (Eastern Daylight Time),141420.90000009537,A,b,I,b,1383,1,1400.3000001907349,140020.59999990463,9010,WL,C,8.0
1,18.032999992370605,learn,41967.000007629395,Wed Apr 02 2025 17:18:09 GMT-0400 (Eastern Daylight Time),141570.80000019073,A,bo,I,o,139,1,1550.2000002861023,140020.59999990463,9010,WL,C,8.0
1,18.217000007629395,learn,41782.999992370605,Wed Apr 02 2025 17:18:09 GMT-0400 (Eastern Daylight Time),141754.0,A,bod,I,d,156,1,1733.4000000953674,140020.59999990463,9010,WL,C,8.0
1,18.433000087738037,learn,41566.99991226196,Wed Apr 02 2025 17:18:09 GMT-0400 (Eastern Daylight Time),141970.80000019073,A,body,I,y,189,1,1950.2000002861023,140020.59999990463,9010,WL,C,8.0
1,18.766000032424927,learn,41233.99996757507,Wed Apr 02 2025 17:18:09 GMT-0400 (Eastern Daylight Time),142303.5,A,bodyenter,I,enter,308,1,2282.9000000953674,140020.59999990463,9010,WL,C,8.0
1,19.032999992370605,learn,40967.000007629395,Wed Apr 02 2025 17:18:09 GMT-0400 (Eastern Daylight Time),142570.90000009537,A,f,I,f,251,1,266.90000009536743,142304.0,9010,WL,C,9.0
1,19.16700005531311,learn,40832.99994468689,Wed Apr 02 2025 17:18:09 GMT-0400 (Eastern Daylight Time),142704.09999990463,A,fl,I,l,109,1,400.09999990463257,142304.0,9010,WL,C,9.0
1,19.41700005531311,learn,40582.99994468689,Wed Apr 02 2025 17:18:09 GMT-0400 (Eastern Daylight Time),142954.0,A,fla,I,a,231,1,650.0,142304.0,9010,WL,C,9.0
1,19.716000080108643,learn,40283.99991989136,Wed Apr 02 2025 17:18:09 GMT-0400 (Eastern Daylight Time),143254.0,A,flag,I,g,286,1,950.0,142304.0,9010,WL,C,9.0
1,19.98300004005432,learn,40016.99995994568,Wed Apr 02 2025 17:18:09 GMT-0400 (Eastern Daylight Time),143520.19999980927,A,flagenter,I,enter,241,1,1216.1999998092651,142304.0,9010,WL,C,9.0
1,20.466000080108643,learn,39533.99991989136,Wed Apr 02 2025 17:18:09 GMT-0400 (Eastern Daylight Time),144004.0,A,n,I,n,475,1,483.40000009536743,143520.59999990463,9010,WL,C,10.0
1,20.617000102996826,learn,39382.999897003174,Wed Apr 02 2025 17:18:09 GMT-0400 (Eastern Daylight Time),144154.09999990463,A,na,I,a,132,1,633.5,143520.59999990463,9010,WL,C,10.0
1,20.83300018310547,learn,39166.99981689453,Wed Apr 02 2025 17:18:09 GMT-0400 (Eastern Daylight Time),144370.69999980927,A,nai,I,i,182,1,850.0999999046326,143520.59999990463,9010,WL,C,10.0
1,21.08300018310547,learn,38916.99981689453,Wed Apr 02 2025 17:18:09 GMT-0400 (Eastern Daylight Time),144620.80000019073,A,nail,I,l,229,1,1100.2000002861023,143520.59999990463,9010,WL,C,10.0
1,21.499000072479248,learn,38500.99992752075,Wed Apr 02 2025 17:18:09 GMT-0400 (Eastern Daylight Time),145036.80000019073,A,nailenter,I,enter,395,1,1516.2000002861023,143520.59999990463,9010,WL,C,10.0
1,22.33300018310547,learn,37666.99981689453,Wed Apr 02 2025 17:18:09 GMT-0400 (Eastern Daylight Time),145870.69999980927,A,l,I,l,814,1,833.5,145037.19999980927,9010,WL,C,11.0
1,22.451000213623047,learn,37548.99978637695,Wed Apr 02 2025 17:18:09 GMT-0400 (Eastern Daylight Time),145988.40000009537,A,le,I,e,105,1,951.2000002861023,145037.19999980927,9010,WL,C,11.0
1,22.633000135421753,learn,37366.99986457825,Wed Apr 02 2025 17:18:09 GMT-0400 (Eastern Daylight Time),146170.90000009537,A,let,I,t,156,1,1133.7000002861023,145037.19999980927,9010,WL,C,11.0
1,22.83300018310547,learn,37166.99981689453,Wed Apr 02 2025 17:18:09 GMT-0400 (Eastern Daylight Time),146370.80000019073,A,lett,I,t,166,1,1333.6000003814697,145037.19999980927,9010,WL,C,11.0
1,23.016000032424927,learn,36983.99996757507,Wed Apr 02 2025 17:18:09 GMT-0400 (Eastern Daylight Time),146553.59999990463,A,lette,I,e,164,1,1516.4000000953674,145037.19999980927,9010,WL,C,11.0
1,23.100000143051147,learn,36899.99985694885,Wed Apr 02 2025 17:18:09 GMT-0400 (Eastern Daylight Time),146637.5,A,letter,I,r,66,1,1600.3000001907349,145037.19999980927,9010,WL,C,11.0
1,23.449000120162964,learn,36550.999879837036,Wed Apr 02 2025 17:18:09 GMT-0400 (Eastern Daylight Time),146986.90000009537,A,letterenter,I,enter,330,1,1949.7000002861023,145037.19999980927,9010,WL,C,11.0
1,31.850000143051147,learn,28149.999856948853,Wed Apr 02 2025 17:18:09 GMT-0400 (Eastern Daylight Time),155387.30000019073,A,h,I,h,8384,1,8400.0,146987.30000019073,9010,WL,C,12.0
1,32.15000009536743,learn,27849.99990463257,Wed Apr 02 2025 17:18:09 GMT-0400 (Eastern Daylight Time),155687.5,A,ho,I,o,285,1,8700.199999809265,146987.30000019073,9010,WL,C,12.0
1,32.40000009536743,learn,27599.99990463257,Wed Apr 02 2025 17:18:09 GMT-0400 (Eastern Daylight Time),155937.40000009537,A,hom,I,m,226,1,8950.099999904633,146987.30000019073,9010,WL,C,12.0
1,32.58300018310547,learn,27416.99981689453,Wed Apr 02 2025 17:18:09 GMT-0400 (Eastern Daylight Time),156120.90000009537,A,home,I,e,167,1,9133.599999904633,146987.30000019073,9010,WL,C,12.0
1,32.81599998474121,learn,27184.00001525879,Wed Apr 02 2025 17:18:09 GMT-0400 (Eastern Daylight Time),156353.30000019073,A,homeenter,I,enter,198,1,9366.0,146987.30000019073,9010,WL,C,12.0
1,36.73300004005432,learn,23266.99995994568,Wed Apr 02 2025 17:18:09 GMT-0400 (Eastern Daylight Time),160270.30000019073,A,enter,I,enter,3897,1,3916.7000002861023,156353.59999990463,9010,WL,C,13.0
1,37.116000175476074,learn,22883.999824523926,Wed Apr 02 2025 17:18:09 GMT-0400 (Eastern Daylight Time),160653.59999990463,A,enter,I,enter,364,1,382.7999997138977,160270.80000019073,9010,WL,C,14.0
1,37.83300018310547,learn,22166.99981689453,Wed Apr 02 2025 17:18:09 GMT-0400 (Eastern Daylight Time),161370.19999980927,A,enter,I,enter,700,1,716.0999999046326,160654.09999990463,9010,WL,C,15.0
2,0.36699986457824707,learn,59633.00013542175,Wed Apr 02 2025 17:18:09 GMT-0400 (Eastern Daylight Time),237237.19999980927,A,c,I,c,354,1,365.8999996185303,236871.30000019073,9010,WL,C,1.0
2,0.5329999923706055,learn,59467.000007629395,Wed Apr 02 2025 17:18:09 GMT-0400 (Eastern Daylight Time),237403.80000019073,A,ca,I,a,146,1,532.5,236871.30000019073,9010,WL,C,1.0
2,0.6999998092651367,learn,59300.00019073486,Wed Apr 02 2025 17:18:09 GMT-0400 (Eastern Daylight Time),237570.5,A,cam,I,m,141,1,699.1999998092651,236871.30000019073,9010,WL,C,1.0
2,0.9169998168945312,learn,59083.00018310547,Wed Apr 02 2025 17:18:09 GMT-0400 (Eastern Daylight Time),237787.40000009537,A,camp,I,p,190,1,916.0999999046326,236871.30000019073,9010,WL,C,1.0
2,1.3499999046325684,learn,58650.00009536743,Wed Apr 02 2025 17:18:09 GMT-0400 (Eastern Daylight Time),238220.09999990463,A,campenter,I,enter,406,1,1348.7999997138977,236871.30000019073,9010,WL,C,1.0
2,1.7999999523162842,learn,58200.000047683716,Wed Apr 02 2025 17:18:09 GMT-0400 (Eastern Daylight Time),238670.59999990463,A,s,I,s,431,1,450.09999990463257,238220.5,9010,WL,C,2.0
2,2.049999952316284,learn,57950.000047683716,Wed Apr 02 2025 17:18:09 GMT-0400 (Eastern Daylight Time),238920.80000019073,A,sh,I,h,228,1,700.3000001907349,238220.5,9010,WL,C,2.0
2,2.25,learn,57750.0,Wed Apr 02 2025 17:18:09 GMT-0400 (Eastern Daylight Time),239120.59999990463,A,sho,I,o,175,1,900.0999999046326,238220.5,9010,WL,C,2.0
2,2.4169998168945312,learn,57583.00018310547,Wed Apr 02 2025 17:18:09 GMT-0400 (Eastern Daylight Time),239287.09999990463,A,shor,I,r,152,1,1066.5999999046326,238220.5,9010,WL,C,2.0
2,2.482999801635742,learn,57517.00019836426,Wed Apr 02 2025 17:18:09 GMT-0400 (Eastern Daylight Time),239353.59999990463,A,shore,I,e,48,1,1133.0999999046326,238220.5,9010,WL,C,2.0
2,2.815999984741211,learn,57184.00001525879,Wed Apr 02 2025 17:18:09 GMT-0400 (Eastern Daylight Time),239686.80000019073,A,shoreenter,I,enter,318,1,1466.3000001907349,238220.5,9010,WL,C,2.0
2,3.25,learn,56750.0,Wed Apr 02 2025 17:18:09 GMT-0400 (Eastern Daylight Time),240120.69999980927,A,b,I,b,420,1,433.3999996185303,239687.30000019073,9010,WL,C,3.0
2,3.5,learn,56500.0,Wed Apr 02 2025 17:18:09 GMT-0400 (Eastern Daylight Time),240370.59999990463,A,bo,I,o,223,1,683.2999997138977,239687.30000019073,9010,WL,C,3.0
2,3.6499998569488525,learn,56350.00014305115,Wed Apr 02 2025 17:18:09 GMT-0400 (Eastern Daylight Time),240520.69999980927,A,bod,I,d,134,1,833.3999996185303,239687.30000019073,9010,WL,C,3.0
2,3.8499999046325684,learn,56150.00009536743,Wed Apr 02 2025 17:18:09 GMT-0400 (Eastern Daylight Time),240720.59999990463,A,body,I,y,175,1,1033.2999997138977,239687.30000019073,9010,WL,C,3.0
2,4.2159998416900635,learn,55784.00015830994,Wed Apr 02 2025 17:18:09 GMT-0400 (Eastern Daylight Time),241086.80000019073,A,bodyenter,I,enter,343,1,1399.5,239687.30000019073,9010,WL,C,3.0
2,4.516999959945679,learn,55483.00004005432,Wed Apr 02 2025 17:18:09 GMT-0400 (Eastern Daylight Time),241387.40000009537,A,c,I,c,284,1,300.30000019073486,241087.09999990463,9010,WL,C,4.0
2,4.699999809265137,learn,55300.00019073486,Wed Apr 02 2025 17:18:09 GMT-0400 (Eastern Daylight Time),241570.40000009537,A,ca,I,a,170,1,483.30000019073486,241087.09999990463,9010,WL,C,4.0
2,4.8999998569488525,learn,55100.00014305115,Wed Apr 02 2025 17:18:09 GMT-0400 (Eastern Daylight Time),241770.59999990463,A,cat,I,t,182,1,683.5,241087.09999990463,9010,WL,C,4.0
2,5.083999872207642,learn,54916.00012779236,Wed Apr 02 2025 17:18:09 GMT-0400 (Eastern Daylight Time),241954.0,A,catt,I,t,156,1,866.9000000953674,241087.09999990463,9010,WL,C,4.0
2,5.616999864578247,learn,54383.00013542175,Wed Apr 02 2025 17:18:09 GMT-0400 (Eastern Daylight Time),242487.30000019073,A,cattl,I,l,517,1,1400.2000002861023,241087.09999990463,9010,WL,C,4.0
2,5.7829999923706055,learn,54217.000007629395,Wed Apr 02 2025 17:18:09 GMT-0400 (Eastern Daylight Time),242653.90000009537,A,cattle,I,e,144,1,1566.8000001907349,241087.09999990463,9010,WL,C,4.0
2,5.982999801635742,learn,54017.00019836426,Wed Apr 02 2025 17:18:09 GMT-0400 (Eastern Daylight Time),242853.40000009537,A,cattleenter,I,enter,185,1,1766.3000001907349,241087.09999990463,9010,WL,C,4.0
2,6.5,learn,53500.0,Wed Apr 02 2025 17:18:09 GMT-0400 (Eastern Daylight Time),243370.69999980927,A,s,I,s,502,1,516.7999997138977,242853.90000009537,9010,WL,C,5.0
2,6.833999872207642,learn,53166.00012779236,Wed Apr 02 2025 17:18:09 GMT-0400 (Eastern Daylight Time),243704.0,A,su,I,u,317,1,850.0999999046326,242853.90000009537,9010,WL,C,5.0
2,6.982999801635742,learn,53017.00019836426,Wed Apr 02 2025 17:18:09 GMT-0400 (Eastern Daylight Time),243853.80000019073,A,sug,I,g,128,1,999.9000000953674,242853.90000009537,9010,WL,C,5.0
2,7.266999959945679,learn,52733.00004005432,Wed Apr 02 2025 17:18:09 GMT-0400 (Eastern Daylight Time),244137.30000019073,A,suga,I,a,266,1,1283.4000000953674,242853.90000009537,9010,WL,C,5.0
2,7.449999809265137,learn,52550.00019073486,Wed Apr 02 2025 17:18:09 GMT-0400 (Eastern Daylight Time),244320.59999990463,A,sugar,I,r,157,1,1466.6999998092651,242853.90000009537,9010,WL,C,5.0
2,7.682999849319458,learn,52317.00015068054,Wed Apr 02 2025 17:18:09 GMT-0400 (Eastern Daylight Time),244553.59999990463,A,sugarenter,I,enter,212,1,1699.6999998092651,242853.90000009537,9010,WL,C,5.0
2,7.915999889373779,learn,52084.00011062622,Wed Apr 02 2025 17:18:09 GMT-0400 (Eastern Daylight Time),244786.80000019073,A,w,I,w,225,1,232.90000009536743,244553.90000009537,9010,WL,C,6.0
2,8.132999897003174,learn,51867.000102996826,Wed Apr 02 2025 17:18:09 GMT-0400 (Eastern Daylight Time),245003.90000009537,A,wh,I,h,197,1,450.0,244553.90000009537,9010,WL,C,6.0
2,8.25,learn,51750.0,Wed Apr 02 2025 17:18:09 GMT-0400 (Eastern Daylight Time),245120.69999980927,A,whe,I,e,92,1,566.7999997138977,244553.90000009537,9010,WL,C,6.0
2,8.399999856948853,learn,51600.00014305115,Wed Apr 02 2025 17:18:09 GMT-0400 (Eastern Daylight Time),245270.59999990463,A,whea,I,a,135,1,716.6999998092651,244553.90000009537,9010,WL,C,6.0
2,8.532999992370605,learn,51467.000007629395,Wed Apr 02 2025 17:18:09 GMT-0400 (Eastern Daylight Time),245403.90000009537,A,wheat,I,t,112,1,850.0,244553.90000009537,9010,WL,C,6.0
2,8.882999897003174,learn,51117.000102996826,Wed Apr 02 2025 17:18:09 GMT-0400 (Eastern Daylight Time),245753.5,A,wheatenter,I,enter,331,1,1199.5999999046326,244553.90000009537,9010,WL,C,6.0
2,9.233999967575073,learn,50766.00003242493,Wed Apr 02 2025 17:18:09 GMT-0400 (Eastern Daylight Time),246104.09999990463,A,d,I,d,338,1,350.19999980926514,245753.90000009537,9010,WL,C,7.0
2,9.449999809265137,learn,50550.00019073486,Wed Apr 02 2025 17:18:09 GMT-0400 (Eastern Daylight Time),246320.59999990463,A,do,I,o,191,1,566.6999998092651,245753.90000009537,9010,WL,C,7.0
2,9.58299994468689,learn,50417.00005531311,Wed Apr 02 2025 17:18:09 GMT-0400 (Eastern Daylight Time),246453.90000009537,A,doc,I,c,119,1,700.0,245753.90000009537,9010,WL,C,7.0
2,9.83299994468689,learn,50167.00005531311,Wed Apr 02 2025 17:18:09 GMT-0400 (Eastern Daylight Time),246703.90000009537,A,doct,I,t,224,1,950.0,245753.90000009537,9010,WL,C,7.0
2,9.949999809265137,learn,50050.00019073486,Wed Apr 02 2025 17:18:09 GMT-0400 (Eastern Daylight Time),246820.5,A,docto,I,o,103,1,1066.5999999046326,245753.90000009537,9010,WL,C,7.0
2,10.116999864578247,learn,49883.00013542175,Wed Apr 02 2025 17:18:09 GMT-0400 (Eastern Daylight Time),246987.19999980927,A,doctor,I,r,141,1,1233.2999997138977,245753.90000009537,9010,WL,C,7.0
2,10.365999937057495,learn,49634.000062942505,Wed Apr 02 2025 17:18:09 GMT-0400 (Eastern Daylight Time),247236.69999980927,A,doctorenter,I,enter,229,1,1482.7999997138977,245753.90000009537,9010,WL,C,7.0
2,10.866999864578247,learn,49133.00013542175,Wed Apr 02 2025 17:18:09 GMT-0400 (Eastern Daylight Time),247737.19999980927,A,b,I,b,486,1,500.09999990463257,247237.09999990463,9010,WL,C,8.0
2,11.099999904632568,learn,48900.00009536743,Wed Apr 02 2025 17:18:09 GMT-0400 (Eastern Daylight Time),247970.40000009537,A,bo,I,o,220,1,733.3000001907349,247237.09999990463,9010,WL,C,8.0
2,11.382999897003174,learn,48617.000102996826,Wed Apr 02 2025 17:18:09 GMT-0400 (Eastern Daylight Time),248253.80000019073,A,boy,I,y,261,1,1016.7000002861023,247237.09999990463,9010,WL,C,8.0
2,11.699999809265137,learn,48300.00019073486,Wed Apr 02 2025 17:18:09 GMT-0400 (Eastern Daylight Time),248570.09999990463,A,boyenter,I,enter,296,1,1333.0,247237.09999990463,9010,WL,C,8.0
2,12.032999992370605,learn,47967.000007629395,Wed Apr 02 2025 17:18:09 GMT-0400 (Eastern Daylight Time),248903.90000009537,A,q,I,q,320,1,333.40000009536743,248570.5,9010,WL,C,9.0
2,12.232999801635742,learn,47767.00019836426,Wed Apr 02 2025 17:18:09 GMT-0400 (Eastern Daylight Time),249103.80000019073,A,qu,I,u,176,1,533.3000001907349,248570.5,9010,WL,C,9.0
2,12.382999897003174,learn,47617.000102996826,Wed Apr 02 2025 17:18:09 GMT-0400 (Eastern Daylight Time),249253.90000009537,A,que,I,e,128,1,683.4000000953674,248570.5,9010,WL,C,9.0
2,12.649999856948853,learn,47350.00014305115,Wed Apr 02 2025 17:18:09 GMT-0400 (Eastern Daylight Time),249520.40000009537,A,quen,I,n,235,1,949.9000000953674,248570.5,9010,WL,C,9.0
2,12.849999904632568,learn,47150.00009536743,Wed Apr 02 2025 17:18:09 GMT-0400 (Eastern Daylight Time),249720.59999990463,A,quenn,I,n,184,1,1150.0999999046326,248570.5,9010,WL,C,9.0
2,13.316999912261963,learn,46683.00008773804,Wed Apr 02 2025 17:18:09 GMT-0400 (Eastern Daylight Time),250187.40000009537,A,quen,I,backspace,448,1,1616.9000000953674,248570.5,9010,WL,C,9.0
2,13.483999967575073,learn,46516.00003242493,Wed Apr 02 2025 17:18:09 GMT-0400 (Eastern Daylight Time),250354.19999980927,A,que,I,backspace,157,1,1783.6999998092651,248570.5,9010,WL,C,9.0
2,13.632999897003174,learn,46367.000102996826,Wed Apr 02 2025 17:18:09 GMT-0400 (Eastern Daylight Time),250503.90000009537,A,quee,I,e,135,1,1933.4000000953674,248570.5,9010,WL,C,9.0
2,14.58299994468689,learn,45417.00005531311,Wed Apr 02 2025 17:18:09 GMT-0400 (Eastern Daylight Time),251453.90000009537,A,queen,I,n,920,1,2883.4000000953674,248570.5,9010,WL,C,9.0
2,14.882999897003174,learn,45117.000102996826,Wed Apr 02 2025 17:18:09 GMT-0400 (Eastern Daylight Time),251753.40000009537,A,queenenter,I,enter,282,1,3182.9000000953674,248570.5,9010,WL,C,9.0
2,15.266999959945679,learn,44733.00004005432,Wed Apr 02 2025 17:18:09 GMT-0400 (Eastern Daylight Time),252137.19999980927,A,f,I,f,370,1,383.3999996185303,251753.80000019073,9010,WL,C,10.0
2,15.549999952316284,learn,44450.000047683716,Wed Apr 02 2025 17:18:09 GMT-0400 (Eastern Daylight Time),252420.5,A,fl,I,l,271,1,666.6999998092651,251753.80000019073,9010,WL,C,10.0
2,15.715999841690063,learn,44284.00015830994,Wed Apr 02 2025 17:18:09 GMT-0400 (Eastern Daylight Time),252586.40000009537,A,fla,I,a,146,1,832.5999999046326,251753.80000019073,9010,WL,C,10.0
2,16.049999952316284,learn,43950.000047683716,Wed Apr 02 2025 17:18:09 GMT-0400 (Eastern Daylight Time),252920.59999990463,A,flag,I,g,320,1,1166.7999997138977,251753.80000019073,9010,WL,C,10.0
2,16.300999879837036,learn,43699.000120162964,Wed Apr 02 2025 17:18:09 GMT-0400 (Eastern Daylight Time),253171.0,A,flagenter,I,enter,238,1,1417.1999998092651,251753.80000019073,9010,WL,C,10.0
2,16.899999856948853,learn,43100.00014305115,Wed Apr 02 2025 17:18:09 GMT-0400 (Eastern Daylight Time),253770.5,A,n,I,n,584,1,599.0999999046326,253171.40000009537,9010,WL,C,11.0
2,17.032999992370605,learn,42967.000007629395,Wed Apr 02 2025 17:18:09 GMT-0400 (Eastern Daylight Time),253903.69999980927,A,na,I,a,108,1,732.2999997138977,253171.40000009537,9010,WL,C,11.0
2,17.217000007629395,learn,42782.999992370605,Wed Apr 02 2025 17:18:09 GMT-0400 (Eastern Daylight Time),254087.19999980927,A,nai,I,i,161,1,915.7999997138977,253171.40000009537,9010,WL,C,11.0
2,17.482999801635742,learn,42517.00019836426,Wed Apr 02 2025 17:18:09 GMT-0400 (Eastern Daylight Time),254353.69999980927,A,nail,I,l,239,1,1182.2999997138977,253171.40000009537,9010,WL,C,11.0
2,17.81599998474121,learn,42184.00001525879,Wed Apr 02 2025 17:18:09 GMT-0400 (Eastern Daylight Time),254686.80000019073,A,nailenter,I,enter,310,1,1515.4000000953674,253171.40000009537,9010,WL,C,11.0
2,18.31599998474121,learn,41684.00001525879,Wed Apr 02 2025 17:18:09 GMT-0400 (Eastern Daylight Time),255186.69999980927,A,t,I,t,492,1,499.59999990463257,254687.09999990463,9010,WL,C,12.0
2,18.549999952316284,learn,41450.000047683716,Wed Apr 02 2025 17:18:09 GMT-0400 (Eastern Daylight Time),255420.59999990463,A,to,I,o,215,1,733.5,254687.09999990463,9010,WL,C,12.0
2,18.649999856948853,learn,41350.00014305115,Wed Apr 02 2025 17:18:09 GMT-0400 (Eastern Daylight Time),255520.5,A,tow,I,w,73,1,833.4000000953674,254687.09999990463,9010,WL,C,12.0
2,18.899999856948853,learn,41100.00014305115,Wed Apr 02 2025 17:18:09 GMT-0400 (Eastern Daylight Time),255770.59999990463,A,towe,I,e,225,1,1083.5,254687.09999990463,9010,WL,C,12.0
2,19.032999992370605,learn,40967.000007629395,Wed Apr 02 2025 17:18:09 GMT-0400 (Eastern Daylight Time),255903.69999980927,A,tower,I,r,103,1,1216.5999999046326,254687.09999990463,9010,WL,C,12.0
2,19.399999856948853,learn,40600.00014305115,Wed Apr 02 2025 17:18:09 GMT-0400 (Eastern Daylight Time),256270.19999980927,A,towerenter,I,enter,336,1,1583.0999999046326,254687.09999990463,9010,WL,C,12.0
2,24.866999864578247,learn,35133.00013542175,Wed Apr 02 2025 17:18:09 GMT-0400 (Eastern Daylight Time),261737.19999980927,A,c,I,c,5453,1,5466.699999809265,256270.5,9010,WL,C,13.0
2,25.01699995994568,learn,34983.00004005432,Wed Apr 02 2025 17:18:09 GMT-0400 (Eastern Daylight Time),261887.5,A,co,I,o,125,1,5617.0,256270.5,9010,WL,C,13.0
2,25.16699981689453,learn,34833.00018310547,Wed Apr 02 2025 17:18:09 GMT-0400 (Eastern Daylight Time),262037.19999980927,A,cor,I,r,128,1,5766.699999809265,256270.5,9010,WL,C,13.0
2,25.449999809265137,learn,34550.00019073486,Wed Apr 02 2025 17:18:09 GMT-0400 (Eastern Daylight Time),262320.59999990463,A,corn,I,n,252,1,6050.099999904633,256270.5,9010,WL,C,13.0
2,25.848999977111816,learn,34151.00002288818,Wed Apr 02 2025 17:18:09 GMT-0400 (Eastern Daylight Time),262719.90000009537,A,cornenter,I,enter,374,1,6449.400000095367,256270.5,9010,WL,C,13.0
2,33.782999992370605,learn,26217.000007629395,Wed Apr 02 2025 17:18:09 GMT-0400 (Eastern Daylight Time),270653.69999980927,A,d,I,d,7915,1,7933.39999961853,262720.30000019073,9010,WL,C,14.0
2,34.14999985694885,learn,25850.000143051147,Wed Apr 02 2025 17:18:09 GMT-0400 (Eastern Daylight Time),271020.59999990463,A,do,I,o,347,1,8300.299999713898,262720.30000019073,9010,WL,C,14.0
2,34.34999990463257,learn,25650.00009536743,Wed Apr 02 2025 17:18:09 GMT-0400 (Eastern Daylight Time),271220.5,A,doc,I,c,188,1,8500.199999809265,262720.30000019073,9010,WL,C,14.0
2,34.64999985694885,learn,25350.000143051147,Wed Apr 02 2025 17:18:09 GMT-0400 (Eastern Daylight Time),271520.5,A,doct,I,t,275,1,8800.199999809265,262720.30000019073,9010,WL,C,14.0
2,34.81699991226196,learn,25183.000087738037,Wed Apr 02 2025 17:18:09 GMT-0400 (Eastern Daylight Time),271687.30000019073,A,docto,I,o,152,1,8967.0,262720.30000019073,9010,WL,C,14.0
2,34.967000007629395,learn,25032.999992370605,Wed Apr 02 2025 17:18:09 GMT-0400 (Eastern Daylight Time),271837.30000019073,A,doctor,I,r,122,1,9117.0,262720.30000019073,9010,WL,C,14.0
2,35.48399996757507,learn,24516.000032424927,Wed Apr 02 2025 17:18:09 GMT-0400 (Eastern Daylight Time),272354.5,A,doctorenter,I,enter,481,1,9634.199999809265,262720.30000019073,9010,WL,C,14.0
2,37.18299984931946,learn,22817.000150680542,Wed Apr 02 2025 17:18:09 GMT-0400 (Eastern Daylight Time),274053.5,A,enter,I,enter,1686,1,1698.5,272355.0,9010,WL,C,15.0
3,0.750999927520752,learn,59249.00007247925,Wed Apr 02 2025 17:18:09 GMT-0400 (Eastern Daylight Time),347537.30000019073,A,h,I,h,727,1,750.4000000953674,346786.90000009537,9010,WL,C,1.0
3,1.184000015258789,learn,58815.99998474121,Wed Apr 02 2025 17:18:09 GMT-0400 (Eastern Daylight Time),347970.5,A,ho,I,o,406,1,1183.5999999046326,346786.90000009537,9010,WL,C,1.0
3,1.4509999752044678,learn,58549.00002479553,Wed Apr 02 2025 17:18:09 GMT-0400 (Eastern Daylight Time),348237.19999980927,A,hom,I,m,246,1,1450.2999997138977,346786.90000009537,9010,WL,C,1.0
3,1.6000001430511475,learn,58399.99985694885,Wed Apr 02 2025 17:18:09 GMT-0400 (Eastern Daylight Time),348386.90000009537,A,home,I,e,138,1,1600.0,346786.90000009537,9010,WL,C,1.0
3,2.0180001258850098,learn,57981.99987411499,Wed Apr 02 2025 17:18:09 GMT-0400 (Eastern Daylight Time),348804.40000009537,A,homeenter,I,enter,402,1,2017.5,346786.90000009537,9010,WL,C,1.0
3,2.500999927520752,learn,57499.00007247925,Wed Apr 02 2025 17:18:09 GMT-0400 (Eastern Daylight Time),349287.0,A,b,I,b,471,1,482.19999980926514,348804.80000019073,9010,WL,C,2.0
3,2.6510000228881836,learn,57348.99997711182,Wed Apr 02 2025 17:18:09 GMT-0400 (Eastern Daylight Time),349437.09999990463,A,bo,I,o,130,1,632.2999997138977,348804.80000019073,9010,WL,C,2.0
3,2.9509999752044678,learn,57049.00002479553,Wed Apr 02 2025 17:18:09 GMT-0400 (Eastern Daylight Time),349737.09999990463,A,boy,I,y,275,1,932.2999997138977,348804.80000019073,9010,WL,C,2.0
3,3.367000102996826,learn,56632.999897003174,Wed Apr 02 2025 17:18:09 GMT-0400 (Eastern Daylight Time),350153.30000019073,A,boyenter,I,enter,398,1,1348.5,348804.80000019073,9010,WL,C,2.0
3,3.7669999599456787,learn,56233.00004005432,Wed Apr 02 2025 17:18:09 GMT-0400 (Eastern Daylight Time),350553.80000019073,A,b,I,b,385,1,400.1000003814697,350153.69999980927,9010,WL,C,3.0
3,3.9839999675750732,learn,56016.00003242493,Wed Apr 02 2025 17:18:09 GMT-0400 (Eastern Daylight Time),350770.5,A,bo,I,o,188,1,616.8000001907349,350153.69999980927,9010,WL,C,3.0
3,4.151000022888184,learn,55848.99997711182,Wed Apr 02 2025 17:18:09 GMT-0400 (Eastern Daylight Time),350937.0,A,bod,I,d,142,1,783.3000001907349,350153.69999980927,9010,WL,C,3.0
3,4.384000062942505,learn,55615.999937057495,Wed Apr 02 2025 17:18:09 GMT-0400 (Eastern Daylight Time),351170.59999990463,A,body,I,y,207,1,1016.9000000953674,350153.69999980927,9010,WL,C,3.0
3,4.766999959945679,learn,55233.00004005432,Wed Apr 02 2025 17:18:09 GMT-0400 (Eastern Daylight Time),351553.40000009537,A,bodyenter,I,enter,357,1,1399.7000002861023,350153.69999980927,9010,WL,C,3.0
3,5.16700005531311,learn,54832.99994468689,Wed Apr 02 2025 17:18:09 GMT-0400 (Eastern Daylight Time),351953.80000019073,A,c,I,c,378,1,400.2000002861023,351553.59999990463,9010,WL,C,4.0
3,5.301000118255615,learn,54698.999881744385,Wed Apr 02 2025 17:18:09 GMT-0400 (Eastern Daylight Time),352087.09999990463,A,ca,I,a,118,1,533.5,351553.59999990463,9010,WL,C,4.0
3,5.651000022888184,learn,54348.99997711182,Wed Apr 02 2025 17:18:09 GMT-0400 (Eastern Daylight Time),352437.09999990463,A,cam,I,m,329,1,883.5,351553.59999990463,9010,WL,C,4.0
3,5.9670000076293945,learn,54032.999992370605,Wed Apr 02 2025 17:18:09 GMT-0400 (Eastern Daylight Time),352753.59999990463,A,camp,I,p,291,1,1200.0,351553.59999990463,9010,WL,C,4.0
3,6.283999919891357,learn,53716.00008010864,Wed Apr 02 2025 17:18:09 GMT-0400 (Eastern Daylight Time),353070.0,A,campenter,I,enter,294,1,1516.4000000953674,351553.59999990463,9010,WL,C,4.0
3,6.566999912261963,learn,53433.00008773804,Wed Apr 02 2025 17:18:09 GMT-0400 (Eastern Daylight Time),353353.80000019073,A,s,I,s,269,1,283.40000009536743,353070.40000009537,9010,WL,C,5.0
3,6.783999919891357,learn,53216.00008010864,Wed Apr 02 2025 17:18:09 GMT-0400 (Eastern Daylight Time),353570.40000009537,A,sh,I,h,207,1,500.0,353070.40000009537,9010,WL,C,5.0
3,6.983999967575073,learn,53016.00003242493,Wed Apr 02 2025 17:18:09 GMT-0400 (Eastern Daylight Time),353770.5,A,sho,I,o,174,1,700.0999999046326,353070.40000009537,9010,WL,C,5.0
3,7.151000022888184,learn,52848.99997711182,Wed Apr 02 2025 17:18:09 GMT-0400 (Eastern Daylight Time),353937.09999990463,A,shor,I,r,141,1,866.6999998092651,353070.40000009537,9010,WL,C,5.0
3,7.171000003814697,learn,52828.9999961853,Wed Apr 02 2025 17:18:09 GMT-0400 (Eastern Daylight Time),353957.30000019073,A,shore,I,e,1,1,886.9000000953674,353070.40000009537,9010,WL,C,5.0
3,7.5329999923706055,learn,52467.000007629395,Wed Apr 02 2025 17:18:09 GMT-0400 (Eastern Daylight Time),354319.80000019073,A,shoreenter,I,enter,339,1,1249.4000000953674,353070.40000009537,9010,WL,C,5.0
3,7.91700005531311,learn,52082.99994468689,Wed Apr 02 2025 17:18:09 GMT-0400 (Eastern Daylight Time),354703.69999980927,A,d,I,d,363,1,383.3999996185303,354320.30000019073,9010,WL,C,6.0
3,8.200999975204468,learn,51799.00002479553,Wed Apr 02 2025 17:18:09 GMT-0400 (Eastern Daylight Time),354987.09999990463,A,do,I,o,258,1,666.7999997138977,354320.30000019073,9010,WL,C,6.0
3,8.33400011062622,learn,51665.99988937378,Wed Apr 02 2025 17:18:09 GMT-0400 (Eastern Daylight Time),355120.5,A,doc,I,c,109,1,800.1999998092651,354320.30000019073,9010,WL,C,6.0
3,8.58400011062622,learn,51415.99988937378,Wed Apr 02 2025 17:18:09 GMT-0400 (Eastern Daylight Time),355370.40000009537,A,doct,I,t,230,1,1050.0999999046326,354320.30000019073,9010,WL,C,6.0
3,8.733999967575073,learn,51266.00003242493,Wed Apr 02 2025 17:18:09 GMT-0400 (Eastern Daylight Time),355520.0,A,docto,I,o,127,1,1199.6999998092651,354320.30000019073,9010,WL,C,6.0
3,8.901000022888184,learn,51098.99997711182,Wed Apr 02 2025 17:18:09 GMT-0400 (Eastern Daylight Time),355687.0,A,doctor,I,r,156,1,1366.6999998092651,354320.30000019073,9010,WL,C,6.0
3,9.367000102996826,learn,50632.999897003174,Wed Apr 02 2025 17:18:09 GMT-0400 (Eastern Daylight Time),356153.40000009537,A,doctorenter,I,enter,439,1,1833.0999999046326,354320.30000019073,9010,WL,C,6.0
3,10.516999959945679,learn,49483.00004005432,Wed Apr 02 2025 17:18:09 GMT-0400 (Eastern Daylight Time),357303.80000019073,A,c,I,c,1138,1,1150.1000003814697,356153.69999980927,9010,WL,C,7.0
3,10.750999927520752,learn,49249.00007247925,Wed Apr 02 2025 17:18:09 GMT-0400 (Eastern Daylight Time),357537.19999980927,A,ca,I,a,208,1,1383.5,356153.69999980927,9010,WL,C,7.0
3,10.983999967575073,learn,49016.00003242493,Wed Apr 02 2025 17:18:09 GMT-0400 (Eastern Daylight Time),357770.30000019073,A,cat,I,t,214,1,1616.6000003814697,356153.69999980927,9010,WL,C,7.0
3,11.16700005531311,learn,48832.99994468689,Wed Apr 02 2025 17:18:09 GMT-0400 (Eastern Daylight Time),357953.69999980927,A,catt,I,t,158,1,1800.0,356153.69999980927,9010,WL,C,7.0
3,11.316999912261963,learn,48683.00008773804,Wed Apr 02 2025 17:18:09 GMT-0400 (Eastern Daylight Time),358103.69999980927,A,cattl,I,l,127,1,1950.0,356153.69999980927,9010,WL,C,7.0
3,11.5,learn,48500.0,Wed Apr 02 2025 17:18:09 GMT-0400 (Eastern Daylight Time),358286.90000009537,A,cattle,I,e,160,1,2133.2000002861023,356153.69999980927,9010,WL,C,7.0
3,11.733999967575073,learn,48266.00003242493,Wed Apr 02 2025 17:18:09 GMT-0400 (Eastern Daylight Time),358520.0,A,cattleenter,I,enter,209,1,2366.300000190735,356153.69999980927,9010,WL,C,7.0
3,12.316999912261963,learn,47683.00008773804,Wed Apr 02 2025 17:18:09 GMT-0400 (Eastern Daylight Time),359103.69999980927,A,f,I,f,563,1,583.3999996185303,358520.30000019073,9010,WL,C,8.0
3,12.450999975204468,learn,47549.00002479553,Wed Apr 02 2025 17:18:09 GMT-0400 (Eastern Daylight Time),359237.09999990463,A,fl,I,l,120,1,716.7999997138977,358520.30000019073,9010,WL,C,8.0
3,12.634000062942505,learn,47365.999937057495,Wed Apr 02 2025 17:18:09 GMT-0400 (Eastern Daylight Time),359420.5,A,fla,I,a,156,1,900.1999998092651,358520.30000019073,9010,WL,C,8.0
3,12.901000022888184,learn,47098.99997711182,Wed Apr 02 2025 17:18:09 GMT-0400 (Eastern Daylight Time),359687.09999990463,A,flag,I,g,251,1,1166.7999997138977,358520.30000019073,9010,WL,C,8.0
3,13.08400011062622,learn,46915.99988937378,Wed Apr 02 2025 17:18:09 GMT-0400 (Eastern Daylight Time),359869.90000009537,A,flagenter,I,enter,159,1,1349.5999999046326,358520.30000019073,9010,WL,C,8.0
3,14.051000118255615,learn,45948.999881744385,Wed Apr 02 2025 17:18:09 GMT-0400 (Eastern Daylight Time),360837.0,A,n,I,n,957,1,966.5999999046326,359870.40000009537,9010,WL,C,9.0
3,14.16700005531311,learn,45832.99994468689,Wed Apr 02 2025 17:18:09 GMT-0400 (Eastern Daylight Time),360953.69999980927,A,na,I,a,98,1,1083.2999997138977,359870.40000009537,9010,WL,C,9.0
3,14.3510000705719,learn,45648.9999294281,Wed Apr 02 2025 17:18:09 GMT-0400 (Eastern Daylight Time),361137.0,A,nai,I,i,150,1,1266.5999999046326,359870.40000009537,9010,WL,C,9.0
3,14.6010000705719,learn,45398.9999294281,Wed Apr 02 2025 17:18:09 GMT-0400 (Eastern Daylight Time),361387.09999990463,A,nail,I,l,229,1,1516.6999998092651,359870.40000009537,9010,WL,C,9.0
3,14.950000047683716,learn,45049.999952316284,Wed Apr 02 2025 17:18:09 GMT-0400 (Eastern Daylight Time),361736.59999990463,A,nailenter,I,enter,331,1,1866.1999998092651,359870.40000009537,9010,WL,C,9.0
3,17.401000022888184,learn,42598.99997711182,Wed Apr 02 2025 17:18:09 GMT-0400 (Eastern Daylight Time),364187.19999980927,A,q,I,q,2435,1,2450.199999809265,361737.0,9010,WL,C,10.0
3,17.60199999809265,learn,42398.00000190735,Wed Apr 02 2025 17:18:09 GMT-0400 (Eastern Daylight Time),364388.09999990463,A,qu,I,u,189,1,2651.0999999046326,361737.0,9010,WL,C,10.0
3,17.733999967575073,learn,42266.00003242493,Wed Apr 02 2025 17:18:09 GMT-0400 (Eastern Daylight Time),364520.40000009537,A,que,I,e,116,1,2783.4000000953674,361737.0,9010,WL,C,10.0
3,17.983999967575073,learn,42016.00003242493,Wed Apr 02 2025 17:18:09 GMT-0400 (Eastern Daylight Time),364770.40000009537,A,quee,I,e,222,1,3033.4000000953674,361737.0,9010,WL,C,10.0
3,18.301000118255615,learn,41698.999881744385,Wed Apr 02 2025 17:18:09 GMT-0400 (Eastern Daylight Time),365087.19999980927,A,queen,I,n,292,1,3350.199999809265,361737.0,9010,WL,C,10.0
3,18.633000135421753,learn,41366.99986457825,Wed Apr 02 2025 17:18:09 GMT-0400 (Eastern Daylight Time),365419.90000009537,A,queenenter,I,enter,311,1,3682.9000000953674,361737.0,9010,WL,C,10.0
3,19.134000062942505,learn,40865.999937057495,Wed Apr 02 2025 17:18:09 GMT-0400 (Eastern Daylight Time),365920.5,A,t,I,t,480,1,500.19999980926514,365420.30000019073,9010,WL,C,11.0
3,19.26699995994568,learn,40733.00004005432,Wed Apr 02 2025 17:18:09 GMT-0400 (Eastern Daylight Time),366053.69999980927,A,to,I,o,120,1,633.3999996185303,365420.30000019073,9010,WL,C,11.0
3,19.401000022888184,learn,40598.99997711182,Wed Apr 02 2025 17:18:09 GMT-0400 (Eastern Daylight Time),366187.0,A,tow,I,w,115,1,766.6999998092651,365420.30000019073,9010,WL,C,11.0
3,19.58400011062622,learn,40415.99988937378,Wed Apr 02 2025 17:18:09 GMT-0400 (Eastern Daylight Time),366370.40000009537,A,towe,I,e,165,1,950.0999999046326,365420.30000019073,9010,WL,C,11.0
3,19.68400001525879,learn,40315.99998474121,Wed Apr 02 2025 17:18:09 GMT-0400 (Eastern Daylight Time),366470.40000009537,A,tower,I,r,87,1,1050.0999999046326,365420.30000019073,9010,WL,C,11.0
3,20.16700005531311,learn,39832.99994468689,Wed Apr 02 2025 17:18:09 GMT-0400 (Eastern Daylight Time),366953.40000009537,A,towerenter,I,enter,458,1,1533.0999999046326,365420.30000019073,9010,WL,C,11.0
3,20.93400001525879,learn,39065.99998474121,Wed Apr 02 2025 17:18:09 GMT-0400 (Eastern Daylight Time),367719.90000009537,A,c,I,c,753,1,766.2000002861023,366953.69999980927,9010,WL,C,12.0
3,21.051000118255615,learn,38948.999881744385,Wed Apr 02 2025 17:18:09 GMT-0400 (Eastern Daylight Time),367837.0,A,co,I,o,99,1,883.3000001907349,366953.69999980927,9010,WL,C,12.0
3,21.233999967575073,learn,38766.00003242493,Wed Apr 02 2025 17:18:09 GMT-0400 (Eastern Daylight Time),368020.5,A,cor,I,r,163,1,1066.8000001907349,366953.69999980927,9010,WL,C,12.0
3,21.43400001525879,learn,38565.99998474121,Wed Apr 02 2025 17:18:09 GMT-0400 (Eastern Daylight Time),368220.5,A,corn,I,n,172,1,1266.8000001907349,366953.69999980927,9010,WL,C,12.0
3,21.799999952316284,learn,38200.000047683716,Wed Apr 02 2025 17:18:09 GMT-0400 (Eastern Daylight Time),368586.59999990463,A,cornenter,I,enter,339,1,1632.9000000953674,366953.69999980927,9010,WL,C,12.0
3,22.16700005531311,learn,37832.99994468689,Wed Apr 02 2025 17:18:09 GMT-0400 (Eastern Daylight Time),368953.5,A,s,I,s,352,1,366.59999990463257,368586.90000009537,9010,WL,C,13.0
3,22.68400001525879,learn,37315.99998474121,Wed Apr 02 2025 17:18:09 GMT-0400 (Eastern Daylight Time),369470.40000009537,A,su,I,u,494,1,883.5,368586.90000009537,9010,WL,C,13.0
3,22.816999912261963,learn,37183.00008773804,Wed Apr 02 2025 17:18:09 GMT-0400 (Eastern Daylight Time),369603.59999990463,A,sug,I,g,122,1,1016.6999998092651,368586.90000009537,9010,WL,C,13.0
3,23.000999927520752,learn,36999.00007247925,Wed Apr 02 2025 17:18:09 GMT-0400 (Eastern Daylight Time),369787.09999990463,A,suga,I,a,163,1,1200.1999998092651,368586.90000009537,9010,WL,C,13.0
3,23.16700005531311,learn,36832.99994468689,Wed Apr 02 2025 17:18:09 GMT-0400 (Eastern Daylight Time),369953.69999980927,A,sugar,I,r,140,1,1366.7999997138977,368586.90000009537,9010,WL,C,13.0
3,23.40000009536743,learn,36599.99990463257,Wed Apr 02 2025 17:18:09 GMT-0400 (Eastern Daylight Time),370186.59999990463,A,sugarenter,I,enter,205,1,1599.6999998092651,368586.90000009537,9010,WL,C,13.0
3,23.850000143051147,learn,36149.99985694885,Wed Apr 02 2025 17:18:09 GMT-0400 (Eastern Daylight Time),370637.0,A,w,I,w,433,1,450.0,370187.0,9010,WL,C,14.0
3,24.066999912261963,learn,35933.00008773804,Wed Apr 02 2025 17:18:09 GMT-0400 (Eastern Daylight Time),370853.69999980927,A,wh,I,h,203,1,666.6999998092651,370187.0,9010,WL,C,14.0
3,24.233999967575073,learn,35766.00003242493,Wed Apr 02 2025 17:18:09 GMT-0400 (Eastern Daylight Time),371020.40000009537,A,whe,I,e,147,1,833.4000000953674,370187.0,9010,WL,C,14.0
3,24.40000009536743,learn,35599.99990463257,Wed Apr 02 2025 17:18:09 GMT-0400 (Eastern Daylight Time),371186.59999990463,A,whea,I,a,155,1,999.5999999046326,370187.0,9010,WL,C,14.0
3,24.533999919891357,learn,35466.00008010864,Wed Apr 02 2025 17:18:09 GMT-0400 (Eastern Daylight Time),371320.40000009537,A,wheat,I,t,111,1,1133.4000000953674,370187.0,9010,WL,C,14.0
3,25.134000062942505,learn,34865.999937057495,Wed Apr 02 2025 17:18:09 GMT-0400 (Eastern Daylight Time),371919.90000009537,A,wheatenter,I,enter,576,1,1732.9000000953674,370187.0,9010,WL,C,14.0
3,39.58400011062622,learn,20415.99988937378,Wed Apr 02 2025 17:18:09 GMT-0400 (Eastern Daylight Time),386370.19999980927,A,t,I,t,14426,1,14449.89999961853,371920.30000019073,9010,WL,C,15.0
3,39.801000118255615,learn,20198.999881744385,Wed Apr 02 2025 17:18:09 GMT-0400 (Eastern Daylight Time),386587.09999990463,A,to,I,o,198,1,14666.799999713898,371920.30000019073,9010,WL,C,15.0
3,39.91700005531311,learn,20082.99994468689,Wed Apr 02 2025 17:18:09 GMT-0400 (Eastern Daylight Time),386703.59999990463,A,tow,I,w,94,1,14783.299999713898,371920.30000019073,9010,WL,C,15.0
3,40.01699995994568,learn,19983.00004005432,Wed Apr 02 2025 17:18:09 GMT-0400 (Eastern Daylight Time),386803.69999980927,A,towe,I,e,88,1,14883.39999961853,371920.30000019073,9010,WL,C,15.0
3,40.10000014305115,learn,19899.999856948853,Wed Apr 02 2025 17:18:09 GMT-0400 (Eastern Daylight Time),386886.5,A,tower,I,r,60,1,14966.199999809265,371920.30000019073,9010,WL,C,15.0
3,40.40000009536743,learn,19599.99990463257,Wed Apr 02 2025 17:18:09 GMT-0400 (Eastern Daylight Time),387186.40000009537,A,towerenter,I,enter,291,1,15266.099999904633,371920.30000019073,9010,WL,C,15.0
4,1.633000135421753,learn,58366.99986457825,Wed Apr 02 2025 17:18:09 GMT-0400 (Eastern Daylight Time),460903.80000019073,A,h,I,h,1619,1,1633.2000002861023,459270.59999990463,9010,WL,C,1.0
4,1.9000000953674316,learn,58099.99990463257,Wed Apr 02 2025 17:18:09 GMT-0400 (Eastern Daylight Time),461170.40000009537,A,ho,I,o,241,1,1899.8000001907349,459270.59999990463,9010,WL,C,1.0
4,2.133000135421753,learn,57866.99986457825,Wed Apr 02 2025 17:18:09 GMT-0400 (Eastern Daylight Time),461403.59999990463,A,hom,I,m,214,1,2133.0,459270.59999990463,9010,WL,C,1.0
4,2.299999952316284,learn,57700.000047683716,Wed Apr 02 2025 17:18:09 GMT-0400 (Eastern Daylight Time),461570.40000009537,A,home,I,e,149,1,2299.800000190735,459270.59999990463,9010,WL,C,1.0
4,2.565999984741211,learn,57434.00001525879,Wed Apr 02 2025 17:18:09 GMT-0400 (Eastern Daylight Time),461836.5,A,homeenter,I,enter,242,1,2565.9000000953674,459270.59999990463,9010,WL,C,1.0
4,3.0329999923706055,learn,56967.000007629395,Wed Apr 02 2025 17:18:09 GMT-0400 (Eastern Daylight Time),462303.59999990463,A,b,I,b,447,1,466.7999997138977,461836.80000019073,9010,WL,C,2.0
4,3.2170000076293945,learn,56782.999992370605,Wed Apr 02 2025 17:18:09 GMT-0400 (Eastern Daylight Time),462487.0,A,bo,I,o,169,1,650.1999998092651,461836.80000019073,9010,WL,C,2.0
4,3.5329999923706055,learn,56467.000007629395,Wed Apr 02 2025 17:18:09 GMT-0400 (Eastern Daylight Time),462803.5,A,boy,I,y,298,1,966.6999998092651,461836.80000019073,9010,WL,C,2.0
4,4.08299994468689,learn,55917.00005531311,Wed Apr 02 2025 17:18:09 GMT-0400 (Eastern Daylight Time),463353.19999980927,A,boyenter,I,enter,530,1,1516.3999996185303,461836.80000019073,9010,WL,C,2.0
4,4.5,learn,55500.0,Wed Apr 02 2025 17:18:09 GMT-0400 (Eastern Daylight Time),463770.19999980927,A,d,I,d,402,1,416.69999980926514,463353.5,9010,WL,C,3.0
4,4.700000047683716,learn,55299.999952316284,Wed Apr 02 2025 17:18:09 GMT-0400 (Eastern Daylight Time),463970.19999980927,A,do,I,o,190,1,616.6999998092651,463353.5,9010,WL,C,3.0
4,4.8500001430511475,learn,55149.99985694885,Wed Apr 02 2025 17:18:09 GMT-0400 (Eastern Daylight Time),464120.5,A,doc,I,c,135,1,767.0,463353.5,9010,WL,C,3.0
4,5.08299994468689,learn,54917.00005531311,Wed Apr 02 2025 17:18:09 GMT-0400 (Eastern Daylight Time),464353.40000009537,A,doct,I,t,223,1,999.9000000953674,463353.5,9010,WL,C,3.0
4,5.233000040054321,learn,54766.99995994568,Wed Apr 02 2025 17:18:09 GMT-0400 (Eastern Daylight Time),464503.5,A,docto,I,o,133,1,1150.0,463353.5,9010,WL,C,3.0
4,5.450000047683716,learn,54549.999952316284,Wed Apr 02 2025 17:18:09 GMT-0400 (Eastern Daylight Time),464720.30000019073,A,doctor,I,r,192,1,1366.8000001907349,463353.5,9010,WL,C,3.0
4,5.799000024795532,learn,54200.99997520447,Wed Apr 02 2025 17:18:09 GMT-0400 (Eastern Daylight Time),465069.69999980927,A,doctorenter,I,enter,323,1,1716.1999998092651,463353.5,9010,WL,C,3.0
4,10.183000087738037,learn,49816.99991226196,Wed Apr 02 2025 17:18:09 GMT-0400 (Eastern Daylight Time),469453.59999990463,A,c,I,c,4366,1,4383.5,465070.09999990463,9010,WL,C,4.0
4,10.315999984741211,learn,49684.00001525879,Wed Apr 02 2025 17:18:09 GMT-0400 (Eastern Daylight Time),469586.5,A,ca,I,a,123,1,4516.400000095367,465070.09999990463,9010,WL,C,4.0
4,10.600000143051147,learn,49399.99985694885,Wed Apr 02 2025 17:18:09 GMT-0400 (Eastern Daylight Time),469870.09999990463,A,cam,I,m,262,1,4800.0,465070.09999990463,9010,WL,C,4.0
4,10.900000095367432,learn,49099.99990463257,Wed Apr 02 2025 17:18:09 GMT-0400 (Eastern Daylight Time),470170.19999980927,A,camp,I,p,282,1,5100.099999904633,465070.09999990463,9010,WL,C,4.0
4,11.233000040054321,learn,48766.99995994568,Wed Apr 02 2025 17:18:09 GMT-0400 (Eastern Daylight Time),470503.09999990463,A,campenter,I,enter,317,1,5433.0,465070.09999990463,9010,WL,C,4.0
4,12.565999984741211,learn,47434.00001525879,Wed Apr 02 2025 17:18:09 GMT-0400 (Eastern Daylight Time),471836.90000009537,A,c,I,c,1316,1,1333.4000000953674,470503.5,9010,WL,C,5.0
4,12.717000007629395,learn,47282.999992370605,Wed Apr 02 2025 17:18:09 GMT-0400 (Eastern Daylight Time),471987.90000009537,A,ca,I,a,138,1,1484.4000000953674,470503.5,9010,WL,C,5.0
4,12.950000047683716,learn,47049.999952316284,Wed Apr 02 2025 17:18:09 GMT-0400 (Eastern Daylight Time),472220.40000009537,A,cat,I,t,212,1,1716.9000000953674,470503.5,9010,WL,C,5.0
4,13.100000143051147,learn,46899.99985694885,Wed Apr 02 2025 17:18:09 GMT-0400 (Eastern Daylight Time),472370.30000019073,A,catt,I,t,140,1,1866.8000001907349,470503.5,9010,WL,C,5.0
4,13.433000087738037,learn,46566.99991226196,Wed Apr 02 2025 17:18:09 GMT-0400 (Eastern Daylight Time),472703.5,A,cattl,I,l,309,1,2200.0,470503.5,9010,WL,C,5.0
4,13.600000143051147,learn,46399.99985694885,Wed Apr 02 2025 17:18:09 GMT-0400 (Eastern Daylight Time),472870.30000019073,A,cattle,I,e,153,1,2366.800000190735,470503.5,9010,WL,C,5.0
4,13.815999984741211,learn,46184.00001525879,Wed Apr 02 2025 17:18:09 GMT-0400 (Eastern Daylight Time),473086.40000009537,A,cattleenter,I,enter,190,1,2582.9000000953674,470503.5,9010,WL,C,5.0
4,14.016999959945679,learn,45983.00004005432,Wed Apr 02 2025 17:18:09 GMT-0400 (Eastern Daylight Time),473287.0,A,s,I,s,188,1,200.30000019073486,473086.69999980927,9010,WL,C,6.0
4,14.266000032424927,learn,45733.99996757507,Wed Apr 02 2025 17:18:09 GMT-0400 (Eastern Daylight Time),473536.90000009537,A,su,I,u,223,1,450.2000002861023,473086.69999980927,9010,WL,C,6.0
4,14.433000087738037,learn,45566.99991226196,Wed Apr 02 2025 17:18:09 GMT-0400 (Eastern Daylight Time),473703.59999990463,A,sug,I,g,151,1,616.9000000953674,473086.69999980927,9010,WL,C,6.0
4,14.58299994468689,learn,45417.00005531311,Wed Apr 02 2025 17:18:09 GMT-0400 (Eastern Daylight Time),473853.5,A,suga,I,a,128,1,766.8000001907349,473086.69999980927,9010,WL,C,6.0
4,14.716000080108643,learn,45283.99991989136,Wed Apr 02 2025 17:18:09 GMT-0400 (Eastern Daylight Time),473986.69999980927,A,sugar,I,r,115,1,900.0,473086.69999980927,9010,WL,C,6.0
4,14.933000087738037,learn,45066.99991226196,Wed Apr 02 2025 17:18:09 GMT-0400 (Eastern Daylight Time),474203.09999990463,A,sugarenter,I,enter,198,1,1116.4000000953674,473086.69999980927,9010,WL,C,6.0
4,15.166000127792358,learn,44833.99987220764,Wed Apr 02 2025 17:18:09 GMT-0400 (Eastern Daylight Time),474436.09999990463,A,w,I,w,223,1,232.5,474203.59999990463,9010,WL,C,7.0
4,15.366000175476074,learn,44633.999824523926,Wed Apr 02 2025 17:18:09 GMT-0400 (Eastern Daylight Time),474636.30000019073,A,wh,I,h,183,1,432.7000002861023,474203.59999990463,9010,WL,C,7.0
4,15.483000040054321,learn,44516.99995994568,Wed Apr 02 2025 17:18:09 GMT-0400 (Eastern Daylight Time),474753.40000009537,A,whe,I,e,93,1,549.8000001907349,474203.59999990463,9010,WL,C,7.0
4,15.616000175476074,learn,44383.999824523926,Wed Apr 02 2025 17:18:09 GMT-0400 (Eastern Daylight Time),474886.80000019073,A,whea,I,a,118,1,683.2000002861023,474203.59999990463,9010,WL,C,7.0
4,15.799999952316284,learn,44200.000047683716,Wed Apr 02 2025 17:18:09 GMT-0400 (Eastern Daylight Time),475070.09999990463,A,wheat,I,t,162,1,866.5,474203.59999990463,9010,WL,C,7.0
4,16.14900016784668,learn,43850.99983215332,Wed Apr 02 2025 17:18:09 GMT-0400 (Eastern Daylight Time),475419.80000019073,A,wheatenter,I,enter,322,1,1216.2000002861023,474203.59999990463,9010,WL,C,7.0
4,16.516000032424927,learn,43483.99996757507,Wed Apr 02 2025 17:18:09 GMT-0400 (Eastern Daylight Time),475786.90000009537,A,c,I,c,351,1,366.7000002861023,475420.19999980927,9010,WL,C,8.0
4,16.683000087738037,learn,43316.99991226196,Wed Apr 02 2025 17:18:09 GMT-0400 (Eastern Daylight Time),475953.59999990463,A,co,I,o,141,1,533.4000000953674,475420.19999980927,9010,WL,C,8.0
4,16.850000143051147,learn,43149.99985694885,Wed Apr 02 2025 17:18:09 GMT-0400 (Eastern Daylight Time),476120.40000009537,A,cor,I,r,144,1,700.2000002861023,475420.19999980927,9010,WL,C,8.0
4,17.08299994468689,learn,42917.00005531311,Wed Apr 02 2025 17:18:09 GMT-0400 (Eastern Daylight Time),476353.59999990463,A,corn,I,n,207,1,933.4000000953674,475420.19999980927,9010,WL,C,8.0
4,17.449000120162964,learn,42550.999879837036,Wed Apr 02 2025 17:18:09 GMT-0400 (Eastern Daylight Time),476719.80000019073,A,cornenter,I,enter,335,1,1299.6000003814697,475420.19999980927,9010,WL,C,8.0
4,19.216000080108643,learn,40783.99991989136,Wed Apr 02 2025 17:18:09 GMT-0400 (Eastern Daylight Time),478486.80000019073,A,b,I,b,1756,1,1766.6000003814697,476720.19999980927,9010,WL,C,9.0
4,19.383000135421753,learn,40616.99986457825,Wed Apr 02 2025 17:18:09 GMT-0400 (Eastern Daylight Time),478653.5,A,bo,I,o,144,1,1933.3000001907349,476720.19999980927,9010,WL,C,9.0
4,19.549999952316284,learn,40450.000047683716,Wed Apr 02 2025 17:18:09 GMT-0400 (Eastern Daylight Time),478820.19999980927,A,bod,I,d,155,1,2100.0,476720.19999980927,9010,WL,C,9.0
4,19.73300004005432,learn,40266.99995994568,Wed Apr 02 2025 17:18:09 GMT-0400 (Eastern Daylight Time),479003.69999980927,A,body,I,y,164,1,2283.5,476720.19999980927,9010,WL,C,9.0
4,20.016000032424927,learn,39983.99996757507,Wed Apr 02 2025 17:18:09 GMT-0400 (Eastern Daylight Time),479286.40000009537,A,bodyenter,I,enter,266,1,2566.2000002861023,476720.19999980927,9010,WL,C,9.0
4,20.383000135421753,learn,39616.99986457825,Wed Apr 02 2025 17:18:09 GMT-0400 (Eastern Daylight Time),479653.59999990463,A,f,I,f,357,1,366.90000009536743,479286.69999980927,9010,WL,C,10.0
4,20.5,learn,39500.0,Wed Apr 02 2025 17:18:09 GMT-0400 (Eastern Daylight Time),479770.0,A,fl,I,l,98,1,483.30000019073486,479286.69999980927,9010,WL,C,10.0
4,20.683000087738037,learn,39316.99991226196,Wed Apr 02 2025 17:18:09 GMT-0400 (Eastern Daylight Time),479953.59999990463,A,fla,I,a,150,1,666.9000000953674,479286.69999980927,9010,WL,C,10.0
4,20.950000047683716,learn,39049.999952316284,Wed Apr 02 2025 17:18:09 GMT-0400 (Eastern Daylight Time),480220.19999980927,A,flag,I,g,246,1,933.5,479286.69999980927,9010,WL,C,10.0
4,21.183000087738037,learn,38816.99991226196,Wed Apr 02 2025 17:18:09 GMT-0400 (Eastern Daylight Time),480453.19999980927,A,flagenter,I,enter,219,1,1166.5,479286.69999980927,9010,WL,C,10.0
4,21.549999952316284,learn,38450.000047683716,Wed Apr 02 2025 17:18:09 GMT-0400 (Eastern Daylight Time),480820.19999980927,A,l,I,l,358,1,366.69999980926514,480453.5,9010,WL,C,11.0
4,21.700000047683716,learn,38299.999952316284,Wed Apr 02 2025 17:18:09 GMT-0400 (Eastern Daylight Time),480970.19999980927,A,le,I,e,132,1,516.6999998092651,480453.5,9010,WL,C,11.0
4,21.917999982833862,learn,38082.00001716614,Wed Apr 02 2025 17:18:09 GMT-0400 (Eastern Daylight Time),481188.80000019073,A,let,I,t,206,1,735.3000001907349,480453.5,9010,WL,C,11.0
4,22.100000143051147,learn,37899.99985694885,Wed Apr 02 2025 17:18:09 GMT-0400 (Eastern Daylight Time),481370.19999980927,A,lett,I,t,163,1,916.6999998092651,480453.5,9010,WL,C,11.0
4,22.282999992370605,learn,37717.000007629395,Wed Apr 02 2025 17:18:09 GMT-0400 (Eastern Daylight Time),481553.5,A,lette,I,e,157,1,1100.0,480453.5,9010,WL,C,11.0
4,22.332000017166138,learn,37667.99998283386,Wed Apr 02 2025 17:18:09 GMT-0400 (Eastern Daylight Time),481602.90000009537,A,letter,I,r,31,1,1149.4000000953674,480453.5,9010,WL,C,11.0
4,22.64900016784668,learn,37350.99983215332,Wed Apr 02 2025 17:18:09 GMT-0400 (Eastern Daylight Time),481919.69999980927,A,letterenter,I,enter,296,1,1466.1999998092651,480453.5,9010,WL,C,11.0
4,23.100000143051147,learn,36899.99985694885,Wed Apr 02 2025 17:18:09 GMT-0400 (Eastern Daylight Time),482370.09999990463,A,n,I,n,426,1,450.0,481920.09999990463,9010,WL,C,12.0
4,23.266000032424927,learn,36733.99996757507,Wed Apr 02 2025 17:18:09 GMT-0400 (Eastern Daylight Time),482536.90000009537,A,na,I,a,150,1,616.8000001907349,481920.09999990463,9010,WL,C,12.0
4,23.450000047683716,learn,36549.999952316284,Wed Apr 02 2025 17:18:09 GMT-0400 (Eastern Daylight Time),482720.19999980927,A,nai,I,i,157,1,800.0999999046326,481920.09999990463,9010,WL,C,12.0
4,23.683000087738037,learn,36316.99991226196,Wed Apr 02 2025 17:18:09 GMT-0400 (Eastern Daylight Time),482953.59999990463,A,nail,I,l,208,1,1033.5,481920.09999990463,9010,WL,C,12.0
4,24.016000032424927,learn,35983.99996757507,Wed Apr 02 2025 17:18:09 GMT-0400 (Eastern Daylight Time),483286.40000009537,A,nailenter,I,enter,318,1,1366.3000001907349,481920.09999990463,9010,WL,C,12.0
4,24.466000080108643,learn,35533.99991989136,Wed Apr 02 2025 17:18:09 GMT-0400 (Eastern Daylight Time),483737.0,A,t,I,t,437,1,450.30000019073486,483286.69999980927,9010,WL,C,13.0
4,24.66700005531311,learn,35332.99994468689,Wed Apr 02 2025 17:18:09 GMT-0400 (Eastern Daylight Time),483937.0,A,to,I,o,173,1,650.3000001907349,483286.69999980927,9010,WL,C,13.0
4,24.782999992370605,learn,35217.000007629395,Wed Apr 02 2025 17:18:09 GMT-0400 (Eastern Daylight Time),484053.59999990463,A,tow,I,w,103,1,766.9000000953674,483286.69999980927,9010,WL,C,13.0
4,24.850000143051147,learn,35149.99985694885,Wed Apr 02 2025 17:18:09 GMT-0400 (Eastern Daylight Time),484119.90000009537,A,towe,I,e,50,1,833.2000002861023,483286.69999980927,9010,WL,C,13.0
4,24.933000087738037,learn,35066.99991226196,Wed Apr 02 2025 17:18:09 GMT-0400 (Eastern Daylight Time),484203.09999990463,A,tower,I,r,61,1,916.4000000953674,483286.69999980927,9010,WL,C,13.0
4,25.23300004005432,learn,34766.99995994568,Wed Apr 02 2025 17:18:09 GMT-0400 (Eastern Daylight Time),484503.19999980927,A,towerenter,I,enter,285,1,1216.5,483286.69999980927,9010,WL,C,13.0
4,25.549999952316284,learn,34450.000047683716,Wed Apr 02 2025 17:18:09 GMT-0400 (Eastern Daylight Time),484820.19999980927,A,q,I,q,307,1,316.69999980926514,484503.5,9010,WL,C,14.0
4,25.782999992370605,learn,34217.000007629395,Wed Apr 02 2025 17:18:09 GMT-0400 (Eastern Daylight Time),485053.69999980927,A,qu,I,u,212,1,550.1999998092651,484503.5,9010,WL,C,14.0
4,25.883000135421753,learn,34116.99986457825,Wed Apr 02 2025 17:18:09 GMT-0400 (Eastern Daylight Time),485153.59999990463,A,que,I,e,74,1,650.0999999046326,484503.5,9010,WL,C,14.0
4,26.848999977111816,learn,33151.00002288818,Wed Apr 02 2025 17:18:09 GMT-0400 (Eastern Daylight Time),486119.5,A,quee,I,e,941,1,1616.0,484503.5,9010,WL,C,14.0
4,27.049000024795532,learn,32950.99997520447,Wed Apr 02 2025 17:18:09 GMT-0400 (Eastern Daylight Time),486319.5,A,queen,I,n,178,1,1816.0,484503.5,9010,WL,C,14.0
4,27.466000080108643,learn,32533.999919891357,Wed Apr 02 2025 17:18:09 GMT-0400 (Eastern Daylight Time),486736.40000009537,A,queenenter,I,enter,394,1,2232.9000000953674,484503.5,9010,WL,C,14.0
4,38.949000120162964,learn,21050.999879837036,Wed Apr 02 2025 17:18:09 GMT-0400 (Eastern Daylight Time),498219.80000019073,A,b,I,b,11466,1,11483.10000038147,486736.69999980927,9010,WL,C,15.0
4,39.13300013542175,learn,20866.999864578247,Wed Apr 02 2025 17:18:09 GMT-0400 (Eastern Daylight Time),498403.40000009537,A,bo,I,o,175,1,11666.700000286102,486736.69999980927,9010,WL,C,15.0
4,39.33299994468689,learn,20667.00005531311,Wed Apr 02 2025 17:18:09 GMT-0400 (Eastern Daylight Time),498603.5,A,bod,I,d,172,1,11866.800000190735,486736.69999980927,9010,WL,C,15.0
4,39.532999992370605,learn,20467.000007629395,Wed Apr 02 2025 17:18:09 GMT-0400 (Eastern Daylight Time),498803.59999990463,A,body,I,y,188,1,12066.900000095367,486736.69999980927,9010,WL,C,15.0
4,39.89900016784668,learn,20100.99983215332,Wed Apr 02 2025 17:18:09 GMT-0400 (Eastern Daylight Time),499169.5,A,bodyenter,I,enter,349,1,12432.800000190735,486736.69999980927,9010,WL,C,15.0
5,0.6339998245239258,learn,60000.0,Wed Apr 02 2025 17:18:09 GMT-0400 (Eastern Daylight Time),571570.5,A,b,I,b,624,1,633.5,570937.0,9010,WL,C,1.0
5,0.8169999122619629,learn,60000.0,Wed Apr 02 2025 17:18:09 GMT-0400 (Eastern Daylight Time),571753.8000001907,A,bo,I,o,166,1,816.8000001907349,570937.0,9010,WL,C,1.0
5,1.0839998722076416,learn,60000.0,Wed Apr 02 2025 17:18:09 GMT-0400 (Eastern Daylight Time),572020.1999998093,A,boy,I,y,246,1,1083.1999998092651,570937.0,9010,WL,C,1.0
5,1.4670000076293945,learn,60000.0,Wed Apr 02 2025 17:18:09 GMT-0400 (Eastern Daylight Time),572403.6999998093,A,boyb,I,b,363,1,1466.6999998092651,570937.0,9010,WL,C,1.0
5,1.616999864578247,learn,60000.0,Wed Apr 02 2025 17:18:09 GMT-0400 (Eastern Daylight Time),572553.5,A,boybo,I,o,132,1,1616.5,570937.0,9010,WL,C,1.0
5,1.8999998569488525,learn,60000.0,Wed Apr 02 2025 17:18:09 GMT-0400 (Eastern Daylight Time),572836.9000000954,A,boybod,I,d,262,1,1899.9000000953674,570937.0,9010,WL,C,1.0
5,2.0999999046325684,learn,60000.0,Wed Apr 02 2025 17:18:09 GMT-0400 (Eastern Daylight Time),573036.9000000954,A,boybody,I,y,179,1,2099.9000000953674,570937.0,9010,WL,C,1.0
5,3.5169999599456787,learn,60000.0,Wed Apr 02 2025 17:18:09 GMT-0400 (Eastern Daylight Time),574453.4000000954,A,boybod,I,backspace,1400,1,3516.4000000953674,570937.0,9010,WL,C,1.0
5,3.700000047683716,learn,60000.0,Wed Apr 02 2025 17:18:09 GMT-0400 (Eastern Daylight Time),574636.9000000954,A,boybo,I,backspace,163,1,3699.9000000953674,570937.0,9010,WL,C,1.0
5,3.866999864578247,learn,60000.0,Wed Apr 02 2025 17:18:09 GMT-0400 (Eastern Daylight Time),574803.4000000954,A,boyb,I,backspace,147,1,3866.4000000953674,570937.0,9010,WL,C,1.0
5,4.066999912261963,learn,60000.0,Wed Apr 02 2025 17:18:09 GMT-0400 (Eastern Daylight Time),575003.3000001907,A,boy,I,backspace,172,1,4066.300000190735,570937.0,9010,WL,C,1.0
5,4.58299994468689,learn,60000.0,Wed Apr 02 2025 17:18:09 GMT-0400 (Eastern Daylight Time),575519.5999999046,A,boyenter,I,enter,491,1,4582.599999904633,570937.0,9010,WL,C,1.0
5,5.200000047683716,learn,60000.0,Wed Apr 02 2025 17:18:09 GMT-0400 (Eastern Daylight Time),576136.8000001907,A,b,I,b,603,1,616.8000001907349,575520.0,9010,WL,C,2.0
5,5.3999998569488525,learn,60000.0,Wed Apr 02 2025 17:18:09 GMT-0400 (Eastern Daylight Time),576336.6999998093,A,bo,I,o,174,1,816.6999998092651,575520.0,9010,WL,C,2.0
5,5.533999919891357,learn,60000.0,Wed Apr 02 2025 17:18:09 GMT-0400 (Eastern Daylight Time),576470.0999999046,A,bod,I,d,120,1,950.0999999046326,575520.0,9010,WL,C,2.0
5,5.7170000076293945,learn,60000.0,Wed Apr 02 2025 17:18:09 GMT-0400 (Eastern Daylight Time),576653.4000000954,A,body,I,y,157,1,1133.4000000953674,575520.0,9010,WL,C,2.0
5,6.065999984741211,learn,60000.0,Wed Apr 02 2025 17:18:09 GMT-0400 (Eastern Daylight Time),577002.8000001907,A,bodyenter,I,enter,330,1,1482.8000001907349,575520.0,9010,WL,C,2.0
5,9.899999856948853,learn,60000.0,Wed Apr 02 2025 17:18:09 GMT-0400 (Eastern Daylight Time),580836.8000001907,A,b,I,b,3824,1,3833.7000002861023,577003.0999999046,9010,WL,C,3.0
5,10.349999904632568,learn,60000.0,Wed Apr 02 2025 17:18:09 GMT-0400 (Eastern Daylight Time),581286.8000001907,A,bo,I,o,434,1,4283.700000286102,577003.0999999046,9010,WL,C,3.0
5,10.633999824523926,learn,60000.0,Wed Apr 02 2025 17:18:09 GMT-0400 (Eastern Daylight Time),581570.0999999046,A,boy,I,y,271,1,4567.0,577003.0999999046,9010,WL,C,3.0
5,11.08299994468689,learn,60000.0,Wed Apr 02 2025 17:18:09 GMT-0400 (Eastern Daylight Time),582019.5999999046,A,boyenter,I,enter,437,1,5016.5,577003.0999999046,9010,WL,C,3.0
5,11.450000047683716,learn,60000.0,Wed Apr 02 2025 17:18:09 GMT-0400 (Eastern Daylight Time),582386.1999998093,A,d,I,d,359,1,366.2999997138977,582019.9000000954,9010,WL,C,4.0
5,11.700000047683716,learn,60000.0,Wed Apr 02 2025 17:18:09 GMT-0400 (Eastern Daylight Time),582636.6999998093,A,do,I,o,230,1,616.7999997138977,582019.9000000954,9010,WL,C,4.0
5,11.833999872207642,learn,60000.0,Wed Apr 02 2025 17:18:09 GMT-0400 (Eastern Daylight Time),582770.0999999046,A,doc,I,c,123,1,750.1999998092651,582019.9000000954,9010,WL,C,4.0
5,12.217000007629395,learn,60000.0,Wed Apr 02 2025 17:18:09 GMT-0400 (Eastern Daylight Time),583153.5,A,doct,I,t,357,1,1133.5999999046326,582019.9000000954,9010,WL,C,4.0
5,12.434000015258789,learn,60000.0,Wed Apr 02 2025 17:18:09 GMT-0400 (Eastern Daylight Time),583370.0999999046,A,docto,I,o,197,1,1350.1999998092651,582019.9000000954,9010,WL,C,4.0
5,12.633999824523926,learn,60000.0,Wed Apr 02 2025 17:18:09 GMT-0400 (Eastern Daylight Time),583570.0999999046,A,doctor,I,r,165,1,1550.1999998092651,582019.9000000954,9010,WL,C,4.0
5,13.33299994468689,learn,60000.0,Wed Apr 02 2025 17:18:09 GMT-0400 (Eastern Daylight Time),584269.5999999046,A,doctorenter,I,enter,677,1,2249.699999809265,582019.9000000954,9010,WL,C,4.0
5,13.717000007629395,learn,60000.0,Wed Apr 02 2025 17:18:09 GMT-0400 (Eastern Daylight Time),584653.5,A,c,I,c,364,1,383.5,584270.0,9010,WL,C,5.0
5,13.866999864578247,learn,60000.0,Wed Apr 02 2025 17:18:09 GMT-0400 (Eastern Daylight Time),584803.3000001907,A,ca,I,a,138,1,533.3000001907349,584270.0,9010,WL,C,5.0
5,14.616999864578247,learn,60000.0,Wed Apr 02 2025 17:18:09 GMT-0400 (Eastern Daylight Time),585553.3000001907,A,c,I,backspace,716,1,1283.3000001907349,584270.0,9010,WL,C,5.0
5,14.899999856948853,learn,60000.0,Wed Apr 02 2025 17:18:09 GMT-0400 (Eastern Daylight Time),585836.6999998093,A,cm,I,m,262,1,1566.6999998092651,584270.0,9010,WL,C,5.0
5,15.434000015258789,learn,60000.0,Wed Apr 02 2025 17:18:09 GMT-0400 (Eastern Daylight Time),586370.0999999046,A,c,I,backspace,499,1,2100.0999999046326,584270.0,9010,WL,C,5.0
5,15.566999912261963,learn,60000.0,Wed Apr 02 2025 17:18:09 GMT-0400 (Eastern Daylight Time),586503.4000000954,A,ca,I,a,118,1,2233.4000000953674,584270.0,9010,WL,C,5.0
5,15.75,learn,60000.0,Wed Apr 02 2025 17:18:09 GMT-0400 (Eastern Daylight Time),586686.6999998093,A,cam,I,m,160,1,2416.699999809265,584270.0,9010,WL,C,5.0
5,16.467000007629395,learn,60000.0,Wed Apr 02 2025 17:18:09 GMT-0400 (Eastern Daylight Time),587403.4000000954,A,camp,I,p,696,1,3133.4000000953674,584270.0,9010,WL,C,5.0
5,16.73300004005432,learn,60000.0,Wed Apr 02 2025 17:18:09 GMT-0400 (Eastern Daylight Time),587669.5999999046,A,campenter,I,enter,252,1,3399.5999999046326,584270.0,9010,WL,C,5.0
5,17.382999897003174,learn,60000.0,Wed Apr 02 2025 17:18:09 GMT-0400 (Eastern Daylight Time),588319.9000000954,A,s,I,s,629,1,649.9000000953674,587670.0,9010,WL,C,6.0
5,17.566999912261963,learn,60000.0,Wed Apr 02 2025 17:18:09 GMT-0400 (Eastern Daylight Time),588503.5,A,sh,I,h,167,1,833.5,587670.0,9010,WL,C,6.0
5,17.783999919891357,learn,60000.0,Wed Apr 02 2025 17:18:09 GMT-0400 (Eastern Daylight Time),588720.0,A,sho,I,o,183,1,1050.0,587670.0,9010,WL,C,6.0
5,17.983999967575073,learn,60000.0,Wed Apr 02 2025 17:18:09 GMT-0400 (Eastern Daylight Time),588920.0999999046,A,shor,I,r,183,1,1250.0999999046326,587670.0,9010,WL,C,6.0
5,18.0,learn,60000.0,Wed Apr 02 2025 17:18:09 GMT-0400 (Eastern Daylight Time),588936.0,A,shore,I,e,0,1,1266.0,587670.0,9010,WL,C,6.0
5,18.48300004005432,learn,60000.0,Wed Apr 02 2025 17:18:09 GMT-0400 (Eastern Daylight Time),589419.5,A,shoreenter,I,enter,464,1,1749.5,587670.0,9010,WL,C,6.0
5,19.717000007629395,learn,60000.0,Wed Apr 02 2025 17:18:09 GMT-0400 (Eastern Daylight Time),590653.5,A,t,I,t,1215,1,1233.5999999046326,589419.9000000954,9010,WL,C,7.0
5,19.882999897003174,learn,60000.0,Wed Apr 02 2025 17:18:09 GMT-0400 (Eastern Daylight Time),590820.0,A,to,I,o,153,1,1400.0999999046326,589419.9000000954,9010,WL,C,7.0
5,19.983999967575073,learn,60000.0,Wed Apr 02 2025 17:18:09 GMT-0400 (Eastern Daylight Time),590920.0999999046,A,tow,I,w,84,1,1500.1999998092651,589419.9000000954,9010,WL,C,7.0
5,20.06599998474121,learn,60000.0,Wed Apr 02 2025 17:18:09 GMT-0400 (Eastern Daylight Time),591002.9000000954,A,towe,I,e,56,1,1583.0,589419.9000000954,9010,WL,C,7.0
5,20.151000022888184,learn,60000.0,Wed Apr 02 2025 17:18:09 GMT-0400 (Eastern Daylight Time),591087.0999999046,A,tower,I,r,62,1,1667.1999998092651,589419.9000000954,9010,WL,C,7.0
5,20.467000007629395,learn,60000.0,Wed Apr 02 2025 17:18:09 GMT-0400 (Eastern Daylight Time),591403.0,A,towerenter,I,enter,289,1,1983.0999999046326,589419.9000000954,9010,WL,C,7.0
5,20.799999952316284,learn,60000.0,Wed Apr 02 2025 17:18:09 GMT-0400 (Eastern Daylight Time),591736.6999998093,A,q,I,q,321,1,333.2999997138977,591403.4000000954,9010,WL,C,8.0
5,20.983999967575073,learn,60000.0,Wed Apr 02 2025 17:18:09 GMT-0400 (Eastern Daylight Time),591920.0999999046,A,qu,I,u,159,1,516.6999998092651,591403.4000000954,9010,WL,C,8.0
5,21.09999990463257,learn,60000.0,Wed Apr 02 2025 17:18:09 GMT-0400 (Eastern Daylight Time),592036.5999999046,A,que,I,e,105,1,633.1999998092651,591403.4000000954,9010,WL,C,8.0
5,22.16699981689453,learn,60000.0,Wed Apr 02 2025 17:18:09 GMT-0400 (Eastern Daylight Time),593103.4000000954,A,quee,I,e,1043,1,1700.0,591403.4000000954,9010,WL,C,8.0
5,22.316999912261963,learn,60000.0,Wed Apr 02 2025 17:18:09 GMT-0400 (Eastern Daylight Time),593253.3000001907,A,queen,I,n,136,1,1849.9000000953674,591403.4000000954,9010,WL,C,8.0
5,23.049999952316284,learn,60000.0,Wed Apr 02 2025 17:18:09 GMT-0400 (Eastern Daylight Time),593986.1999998093,A,queenenter,I,enter,720,1,2582.7999997138977,591403.4000000954,9010,WL,C,8.0
5,23.532999992370605,learn,60000.0,Wed Apr 02 2025 17:18:09 GMT-0400 (Eastern Daylight Time),594469.4000000954,A,d,I,d,472,1,482.90000009536743,593986.5,9010,WL,C,9.0
5,23.733999967575073,learn,60000.0,Wed Apr 02 2025 17:18:09 GMT-0400 (Eastern Daylight Time),594670.0999999046,A,do,I,o,181,1,683.5999999046326,593986.5,9010,WL,C,9.0
5,23.866999864578247,learn,60000.0,Wed Apr 02 2025 17:18:09 GMT-0400 (Eastern Daylight Time),594803.4000000954,A,doc,I,c,114,1,816.9000000953674,593986.5,9010,WL,C,9.0
5,24.116999864578247,learn,60000.0,Wed Apr 02 2025 17:18:09 GMT-0400 (Eastern Daylight Time),595053.5,A,doct,I,t,221,1,1067.0,593986.5,9010,WL,C,9.0
5,24.233999967575073,learn,60000.0,Wed Apr 02 2025 17:18:09 GMT-0400 (Eastern Daylight Time),595170.0,A,docto,I,o,90,1,1183.5,593986.5,9010,WL,C,9.0
5,24.383999824523926,learn,60000.0,Wed Apr 02 2025 17:18:09 GMT-0400 (Eastern Daylight Time),595320.0999999046,A,doctor,I,r,126,1,1333.5999999046326,593986.5,9010,WL,C,9.0
5,24.632999897003174,learn,60000.0,Wed Apr 02 2025 17:18:09 GMT-0400 (Eastern Daylight Time),595569.3000001907,A,doctorenter,I,enter,233,1,1582.8000001907349,593986.5,9010,WL,C,9.0
5,25.41699981689453,learn,60000.0,Wed Apr 02 2025 17:18:09 GMT-0400 (Eastern Daylight Time),596353.5,A,w,I,w,762,1,783.9000000953674,595569.5999999046,9010,WL,C,10.0
5,25.549999952316284,learn,60000.0,Wed Apr 02 2025 17:18:09 GMT-0400 (Eastern Daylight Time),596486.6999998093,A,wh,I,h,117,1,917.0999999046326,595569.5999999046,9010,WL,C,10.0
5,26.91699981689453,learn,60000.0,Wed Apr 02 2025 17:18:09 GMT-0400 (Eastern Daylight Time),597853.5,A,whe,I,e,1341,1,2283.9000000953674,595569.5999999046,9010,WL,C,10.0
5,27.050999879837036,learn,60000.0,Wed Apr 02 2025 17:18:09 GMT-0400 (Eastern Daylight Time),597987.6999998093,A,whea,I,a,122,1,2418.0999999046326,595569.5999999046,9010,WL,C,10.0
5,27.16699981689453,learn,60000.0,Wed Apr 02 2025 17:18:09 GMT-0400 (Eastern Daylight Time),598103.4000000954,A,wheat,I,t,99,1,2533.800000190735,595569.5999999046,9010,WL,C,10.0
5,27.649999856948853,learn,60000.0,Wed Apr 02 2025 17:18:09 GMT-0400 (Eastern Daylight Time),598586.3000001907,A,wheatenter,I,enter,464,1,3016.7000002861023,595569.5999999046,9010,WL,C,10.0
5,27.950000047683716,learn,60000.0,Wed Apr 02 2025 17:18:09 GMT-0400 (Eastern Daylight Time),598886.8000001907,A,s,I,s,288,1,300.1000003814697,598586.6999998093,9010,WL,C,11.0
5,28.26699995994568,learn,60000.0,Wed Apr 02 2025 17:18:09 GMT-0400 (Eastern Daylight Time),599203.3000001907,A,su,I,u,304,1,616.6000003814697,598586.6999998093,9010,WL,C,11.0
5,28.41699981689453,learn,60000.0,Wed Apr 02 2025 17:18:09 GMT-0400 (Eastern Daylight Time),599353.4000000954,A,sug,I,g,132,1,766.7000002861023,598586.6999998093,9010,WL,C,11.0
5,28.58399987220764,learn,60000.0,Wed Apr 02 2025 17:18:09 GMT-0400 (Eastern Daylight Time),599520.0999999046,A,suga,I,a,142,1,933.4000000953674,598586.6999998093,9010,WL,C,11.0
5,28.950000047683716,learn,60000.0,Wed Apr 02 2025 17:18:09 GMT-0400 (Eastern Daylight Time),599886.8000001907,A,sugar,I,r,335,1,1300.1000003814697,598586.6999998093,9010,WL,C,11.0
5,29.34999990463257,learn,60000.0,Wed Apr 02 2025 17:18:09 GMT-0400 (Eastern Daylight Time),600286.1999998093,A,sugarenter,I,enter,376,1,1699.5,598586.6999998093,9010,WL,C,11.0
5,29.75,learn,60000.0,Wed Apr 02 2025 17:18:09 GMT-0400 (Eastern Daylight Time),600686.9000000954,A,c,I,c,381,1,400.30000019073486,600286.5999999046,9010,WL,C,12.0
5,30.0,learn,60000.0,Wed Apr 02 2025 17:18:09 GMT-0400 (Eastern Daylight Time),600936.6999998093,A,co,I,o,233,1,650.0999999046326,600286.5999999046,9010,WL,C,12.0
5,30.133999824523926,learn,60000.0,Wed Apr 02 2025 17:18:09 GMT-0400 (Eastern Daylight Time),601070.1999998093,A,cor,I,r,111,1,783.5999999046326,600286.5999999046,9010,WL,C,12.0
5,30.5,learn,60000.0,Wed Apr 02 2025 17:18:09 GMT-0400 (Eastern Daylight Time),601436.6999998093,A,corn,I,n,347,1,1150.0999999046326,600286.5999999046,9010,WL,C,12.0
5,30.932999849319458,learn,60000.0,Wed Apr 02 2025 17:18:09 GMT-0400 (Eastern Daylight Time),601869.5999999046,A,cornenter,I,enter,410,1,1583.0,600286.5999999046,9010,WL,C,12.0
5,31.59999990463257,learn,60000.0,Wed Apr 02 2025 17:18:09 GMT-0400 (Eastern Daylight Time),602536.6999998093,A,l,I,l,653,1,666.6999998092651,601870.0,9010,WL,C,13.0
5,31.700000047683716,learn,60000.0,Wed Apr 02 2025 17:18:09 GMT-0400 (Eastern Daylight Time),602636.8000001907,A,le,I,e,76,1,766.8000001907349,601870.0,9010,WL,C,13.0
5,31.899999856948853,learn,60000.0,Wed Apr 02 2025 17:18:09 GMT-0400 (Eastern Daylight Time),602836.8000001907,A,let,I,t,179,1,966.8000001907349,601870.0,9010,WL,C,13.0
5,32.08299994468689,learn,60000.0,Wed Apr 02 2025 17:18:09 GMT-0400 (Eastern Daylight Time),603019.8000001907,A,lett,I,t,155,1,1149.8000001907349,601870.0,9010,WL,C,13.0
5,32.23399996757507,learn,60000.0,Wed Apr 02 2025 17:18:09 GMT-0400 (Eastern Daylight Time),603170.0999999046,A,lette,I,e,140,1,1300.0999999046326,601870.0,9010,WL,C,13.0
5,32.31699991226196,learn,60000.0,Wed Apr 02 2025 17:18:09 GMT-0400 (Eastern Daylight Time),603253.1999998093,A,letter,I,r,63,1,1383.1999998092651,601870.0,9010,WL,C,13.0
5,32.61699986457825,learn,60000.0,Wed Apr 02 2025 17:18:09 GMT-0400 (Eastern Daylight Time),603553.0,A,letterenter,I,enter,290,1,1683.0,601870.0,9010,WL,C,13.0
5,33.09999990463257,learn,60000.0,Wed Apr 02 2025 17:18:09 GMT-0400 (Eastern Daylight Time),604036.5999999046,A,f,I,f,475,1,483.40000009536743,603553.1999998093,9010,WL,C,14.0
5,33.5,learn,60000.0,Wed Apr 02 2025 17:18:09 GMT-0400 (Eastern Daylight Time),604436.5,A,fl,I,l,387,1,883.3000001907349,603553.1999998093,9010,WL,C,14.0
5,33.68400001525879,learn,60000.0,Wed Apr 02 2025 17:18:09 GMT-0400 (Eastern Daylight Time),604620.0999999046,A,fla,I,a,161,1,1066.9000000953674,603553.1999998093,9010,WL,C,14.0
5,33.83399987220764,learn,60000.0,Wed Apr 02 2025 17:18:09 GMT-0400 (Eastern Daylight Time),604770.0,A,flag,I,g,139,1,1216.8000001907349,603553.1999998093,9010,WL,C,14.0
5,34.217000007629395,learn,60000.0,Wed Apr 02 2025 17:18:09 GMT-0400 (Eastern Daylight Time),605152.9000000954,A,flagenter,I,enter,357,1,1599.7000002861023,603553.1999998093,9010,WL,C,14.0
5,35.0,learn,60000.0,Wed Apr 02 2025 17:18:09 GMT-0400 (Eastern Daylight Time),605936.8000001907,A,n,I,n,761,1,783.5,605153.3000001907,9010,WL,C,15.0
5,35.133999824523926,learn,60000.0,Wed Apr 02 2025 17:18:09 GMT-0400 (Eastern Daylight Time),606070.0999999046,A,na,I,a,118,1,916.7999997138977,605153.3000001907,9010,WL,C,15.0
5,35.31699991226196,learn,60000.0,Wed Apr 02 2025 17:18:09 GMT-0400 (Eastern Daylight Time),606253.4000000954,A,nai,I,i,162,1,1100.0999999046326,605153.3000001907,9010,WL,C,15.0
5,35.51699995994568,learn,60000.0,Wed Apr 02 2025 17:18:09 GMT-0400 (Eastern Daylight Time),606453.4000000954,A,nail,I,l,186,1,1300.0999999046326,605153.3000001907,9010,WL,C,15.0
5,35.91699981689453,learn,60000.0,Wed Apr 02 2025 17:18:09 GMT-0400 (Eastern Daylight Time),606853.0,A,nailenter,I,enter,378,1,1699.6999998092651,605153.3000001907,9010,WL,C,15.0
6,0.35000014305114746,distr,59649.99985694885,Wed Apr 02 2025 17:18:09 GMT-0400 (Eastern Daylight Time),681636.8000001907,B,d,I,d,338,1,350.0,681286.8000001907,9010,WL,C,1.0
6,0.5339999198913574,distr,59466.00008010864,Wed Apr 02 2025 17:18:09 GMT-0400 (Eastern Daylight Time),681820.0,B,do,I,o,160,1,533.1999998092651,681286.8000001907,9010,WL,C,1.0
6,0.7330000400543213,distr,59266.99995994568,Wed Apr 02 2025 17:18:09 GMT-0400 (Eastern Daylight Time),682019.9000000954,B,dol,I,l,187,1,733.0999999046326,681286.8000001907,9010,WL,C,1.0
6,0.9170000553131104,distr,59082.99994468689,Wed Apr 02 2025 17:18:09 GMT-0400 (Eastern Daylight Time),682203.1999998093,B,doll,I,l,164,1,916.3999996185303,681286.8000001907,9010,WL,C,1.0
6,1.2170000076293945,distr,58782.999992370605,Wed Apr 02 2025 17:18:09 GMT-0400 (Eastern Daylight Time),682503.1999998093,B,dolla,I,a,284,1,1216.3999996185303,681286.8000001907,9010,WL,C,1.0
6,1.3840000629425049,distr,58615.999937057495,Wed Apr 02 2025 17:18:09 GMT-0400 (Eastern Daylight Time),682670.0999999046,B,dollar,I,r,144,1,1383.2999997138977,681286.8000001907,9010,WL,C,1.0
6,1.7660000324249268,distr,58233.99996757507,Wed Apr 02 2025 17:18:09 GMT-0400 (Eastern Daylight Time),683052.8000001907,B,dollarenter,I,enter,353,1,1766.0,681286.8000001907,9010,WL,C,1.0
6,2.2330000400543213,distr,57766.99995994568,Wed Apr 02 2025 17:18:09 GMT-0400 (Eastern Daylight Time),683519.8000001907,B,d,I,d,446,1,466.6000003814697,683053.1999998093,9010,WL,C,2.0
6,2.4170000553131104,distr,57582.99994468689,Wed Apr 02 2025 17:18:09 GMT-0400 (Eastern Daylight Time),683703.3000001907,B,do,I,o,168,1,650.1000003814697,683053.1999998093,9010,WL,C,2.0
6,2.816999912261963,distr,57183.00008773804,Wed Apr 02 2025 17:18:09 GMT-0400 (Eastern Daylight Time),684103.3000001907,B,d,I,backspace,377,1,1050.1000003814697,683053.1999998093,9010,WL,C,2.0
6,3.066999912261963,distr,56933.00008773804,Wed Apr 02 2025 17:18:09 GMT-0400 (Eastern Daylight Time),684353.1999998093,B,di,I,i,224,1,1300.0,683053.1999998093,9010,WL,C,2.0
6,3.2170000076293945,distr,56782.999992370605,Wed Apr 02 2025 17:18:09 GMT-0400 (Eastern Daylight Time),684503.3000001907,B,dia,I,a,134,1,1450.1000003814697,683053.1999998093,9010,WL,C,2.0
6,3.5840001106262207,distr,56415.99988937378,Wed Apr 02 2025 17:18:09 GMT-0400 (Eastern Daylight Time),684870.0,B,diam,I,m,351,1,1816.8000001907349,683053.1999998093,9010,WL,C,2.0
6,3.799999952316284,distr,56200.000047683716,Wed Apr 02 2025 17:18:09 GMT-0400 (Eastern Daylight Time),685086.6999998093,B,diamo,I,o,193,1,2033.5,683053.1999998093,9010,WL,C,2.0
6,4.016999959945679,distr,55983.00004005432,Wed Apr 02 2025 17:18:09 GMT-0400 (Eastern Daylight Time),685303.1999998093,B,diamon,I,n,199,1,2250.0,683053.1999998093,9010,WL,C,2.0
6,4.233999967575073,distr,55766.00003242493,Wed Apr 02 2025 17:18:09 GMT-0400 (Eastern Daylight Time),685520.0,B,diamont,I,t,193,1,2466.800000190735,683053.1999998093,9010,WL,C,2.0
6,5.233000040054321,distr,54766.99995994568,Wed Apr 02 2025 17:18:09 GMT-0400 (Eastern Daylight Time),686519.9000000954,B,diamon,I,backspace,983,1,3466.7000002861023,683053.1999998093,9010,WL,C,2.0
6,5.367000102996826,distr,54632.999897003174,Wed Apr 02 2025 17:18:09 GMT-0400 (Eastern Daylight Time),686653.3000001907,B,diamond,I,d,111,1,3600.1000003814697,683053.1999998093,9010,WL,C,2.0
6,5.666000127792358,distr,54333.99987220764,Wed Apr 02 2025 17:18:09 GMT-0400 (Eastern Daylight Time),686952.8000001907,B,diamondenter,I,enter,274,1,3899.6000003814697,683053.1999998093,9010,WL,C,2.0
6,6.41700005531311,distr,53582.99994468689,Wed Apr 02 2025 17:18:09 GMT-0400 (Eastern Daylight Time),687703.3000001907,B,v,I,v,738,1,750.2000002861023,686953.0999999046,9010,WL,C,3.0
6,6.650000095367432,distr,53349.99990463257,Wed Apr 02 2025 17:18:09 GMT-0400 (Eastern Daylight Time),687936.5999999046,B,va,I,a,209,1,983.5,686953.0999999046,9010,WL,C,3.0
6,6.8500001430511475,distr,53149.99985694885,Wed Apr 02 2025 17:18:09 GMT-0400 (Eastern Daylight Time),688136.5999999046,B,val,I,l,181,1,1183.5,686953.0999999046,9010,WL,C,3.0
6,7.016999959945679,distr,52983.00004005432,Wed Apr 02 2025 17:18:09 GMT-0400 (Eastern Daylight Time),688303.1999998093,B,vall,I,l,143,1,1350.0999999046326,686953.0999999046,9010,WL,C,3.0
6,7.1000001430511475,distr,52899.99985694885,Wed Apr 02 2025 17:18:09 GMT-0400 (Eastern Daylight Time),688386.1999998093,B,valle,I,e,72,1,1433.0999999046326,686953.0999999046,9010,WL,C,3.0
6,8.200000047683716,distr,51799.999952316284,Wed Apr 02 2025 17:18:09 GMT-0400 (Eastern Daylight Time),689486.3000001907,B,valley,I,y,1075,1,2533.2000002861023,686953.0999999046,9010,WL,C,3.0
6,8.549999952316284,distr,51450.000047683716,Wed Apr 02 2025 17:18:09 GMT-0400 (Eastern Daylight Time),689836.1999998093,B,valleyenter,I,enter,329,1,2883.0999999046326,686953.0999999046,9010,WL,C,3.0
6,9.532999992370605,distr,50467.000007629395,Wed Apr 02 2025 17:18:09 GMT-0400 (Eastern Daylight Time),690819.9000000954,B,s,I,s,974,1,983.4000000953674,689836.5,9010,WL,C,4.0
6,10.283999919891357,distr,49716.00008010864,Wed Apr 02 2025 17:18:09 GMT-0400 (Eastern Daylight Time),691570.3000001907,B,sj,I,j,739,1,1733.8000001907349,689836.5,9010,WL,C,4.0
6,10.684000015258789,distr,49315.99998474121,Wed Apr 02 2025 17:18:09 GMT-0400 (Eastern Daylight Time),691970.0,B,s,I,backspace,391,1,2133.5,689836.5,9010,WL,C,4.0
6,10.934000015258789,distr,49065.99998474121,Wed Apr 02 2025 17:18:09 GMT-0400 (Eastern Daylight Time),692219.9000000954,B,sk,I,k,230,1,2383.4000000953674,689836.5,9010,WL,C,4.0
6,11.183000087738037,distr,48816.99991226196,Wed Apr 02 2025 17:18:09 GMT-0400 (Eastern Daylight Time),692470.0,B,sky,I,y,234,1,2633.5,689836.5,9010,WL,C,4.0
6,11.532999992370605,distr,48467.000007629395,Wed Apr 02 2025 17:18:09 GMT-0400 (Eastern Daylight Time),692819.5,B,skyenter,I,enter,338,1,2983.0,689836.5,9010,WL,C,4.0
6,27.25,distr,32750.0,Wed Apr 02 2025 17:18:09 GMT-0400 (Eastern Daylight Time),708536.8000001907,B,t,I,t,15704,1,15717.0,692819.8000001907,9010,WL,C,5.0
6,27.549999952316284,distr,32450.000047683716,Wed Apr 02 2025 17:18:09 GMT-0400 (Eastern Daylight Time),708836.5999999046,B,te,I,e,287,1,16016.799999713898,692819.8000001907,9010,WL,C,5.0
6,28.200000047683716,distr,31799.999952316284,Wed Apr 02 2025 17:18:09 GMT-0400 (Eastern Daylight Time),709486.4000000954,B,t,I,backspace,624,1,16666.599999904633,692819.8000001907,9010,WL,C,5.0
6,28.367000102996826,distr,31632.999897003174,Wed Apr 02 2025 17:18:09 GMT-0400 (Eastern Daylight Time),709653.0999999046,B,tr,I,r,151,1,16833.299999713898,692819.8000001907,9010,WL,C,5.0
6,28.5,distr,31500.0,Wed Apr 02 2025 17:18:09 GMT-0400 (Eastern Daylight Time),709786.3000001907,B,tre,I,e,108,1,16966.5,692819.8000001907,9010,WL,C,5.0
6,28.683000087738037,distr,31316.999912261963,Wed Apr 02 2025 17:18:09 GMT-0400 (Eastern Daylight Time),709969.9000000954,B,tree,I,e,157,1,17150.099999904633,692819.8000001907,9010,WL,C,5.0
6,28.933000087738037,distr,31066.999912261963,Wed Apr 02 2025 17:18:09 GMT-0400 (Eastern Daylight Time),710219.5,B,treeenter,I,enter,229,1,17399.699999809265,692819.8000001907,9010,WL,C,5.0
6,31.566999912261963,distr,28433.000087738037,Wed Apr 02 2025 17:18:09 GMT-0400 (Eastern Daylight Time),712853.1999998093,B,c,I,c,2622,1,2633.3999996185303,710219.8000001907,9010,WL,C,6.0
6,31.717000007629395,distr,28282.999992370605,Wed Apr 02 2025 17:18:09 GMT-0400 (Eastern Daylight Time),713003.1999998093,B,ch,I,h,129,1,2783.3999996185303,710219.8000001907,9010,WL,C,6.0
6,31.933000087738037,distr,28066.999912261963,Wed Apr 02 2025 17:18:09 GMT-0400 (Eastern Daylight Time),713219.8000001907,B,chr,I,r,204,1,3000.0,710219.8000001907,9010,WL,C,6.0
6,32.117000102996826,distr,27882.999897003174,Wed Apr 02 2025 17:18:09 GMT-0400 (Eastern Daylight Time),713403.3000001907,B,chri,I,i,164,1,3183.5,710219.8000001907,9010,WL,C,6.0
6,32.25,distr,27750.0,Wed Apr 02 2025 17:18:09 GMT-0400 (Eastern Daylight Time),713536.5999999046,B,chris,I,s,108,1,3316.7999997138977,710219.8000001907,9010,WL,C,6.0
6,32.40000009536743,distr,27599.99990463257,Wed Apr 02 2025 17:18:09 GMT-0400 (Eastern Daylight Time),713686.5999999046,B,christ,I,t,135,1,3466.7999997138977,710219.8000001907,9010,WL,C,6.0
6,32.83299994468689,distr,27167.00005531311,Wed Apr 02 2025 17:18:09 GMT-0400 (Eastern Daylight Time),714119.9000000954,B,christm,I,m,409,1,3900.0999999046326,710219.8000001907,9010,WL,C,6.0
6,33.0,distr,27000.0,Wed Apr 02 2025 17:18:09 GMT-0400 (Eastern Daylight Time),714286.6999998093,B,christma,I,a,144,1,4066.8999996185303,710219.8000001907,9010,WL,C,6.0
6,33.16600012779236,distr,26833.99987220764,Wed Apr 02 2025 17:18:09 GMT-0400 (Eastern Daylight Time),714452.4000000954,B,christmas,I,s,144,1,4232.599999904633,710219.8000001907,9010,WL,C,6.0
6,33.450000047683716,distr,26549.999952316284,Wed Apr 02 2025 17:18:09 GMT-0400 (Eastern Daylight Time),714736.0999999046,B,christmasenter,I,enter,261,1,4516.299999713898,710219.8000001907,9010,WL,C,6.0
6,34.049999952316284,distr,25950.000047683716,Wed Apr 02 2025 17:18:09 GMT-0400 (Eastern Daylight Time),715336.5,B,w,I,w,586,1,600.0999999046326,714736.4000000954,9010,WL,C,7.0
6,34.23300004005432,distr,25766.99995994568,Wed Apr 02 2025 17:18:09 GMT-0400 (Eastern Daylight Time),715520.0,B,wi,I,i,158,1,783.5999999046326,714736.4000000954,9010,WL,C,7.0
6,34.43300008773804,distr,25566.999912261963,Wed Apr 02 2025 17:18:09 GMT-0400 (Eastern Daylight Time),715720.0,B,win,I,n,175,1,983.5999999046326,714736.4000000954,9010,WL,C,7.0
6,34.60000014305115,distr,25399.999856948853,Wed Apr 02 2025 17:18:09 GMT-0400 (Eastern Daylight Time),715886.5,B,wint,I,t,143,1,1150.0999999046326,714736.4000000954,9010,WL,C,7.0
6,34.782999992370605,distr,25217.000007629395,Wed Apr 02 2025 17:18:09 GMT-0400 (Eastern Daylight Time),716069.9000000954,B,winte,I,e,170,1,1333.5,714736.4000000954,9010,WL,C,7.0
6,34.865999937057495,distr,25134.000062942505,Wed Apr 02 2025 17:18:09 GMT-0400 (Eastern Daylight Time),716152.9000000954,B,winter,I,r,66,1,1416.5,714736.4000000954,9010,WL,C,7.0
6,35.15000009536743,distr,24849.99990463257,Wed Apr 02 2025 17:18:09 GMT-0400 (Eastern Daylight Time),716436.0999999046,B,winterenter,I,enter,271,1,1699.6999998092651,714736.4000000954,9010,WL,C,7.0
6,45.450000047683716,distr,14549.999952316284,Wed Apr 02 2025 17:18:09 GMT-0400 (Eastern Daylight Time),726736.5999999046,B,c,I,c,10279,1,10300.199999809265,716436.4000000954,9010,WL,C,8.0
6,45.60000014305115,distr,14399.999856948853,Wed Apr 02 2025 17:18:09 GMT-0400 (Eastern Daylight Time),726886.5,B,cl,I,l,132,1,10450.099999904633,716436.4000000954,9010,WL,C,8.0
6,45.85000014305115,distr,14149.999856948853,Wed Apr 02 2025 17:18:09 GMT-0400 (Eastern Daylight Time),727135.9000000954,B,clo,I,o,216,1,10699.5,716436.4000000954,9010,WL,C,8.0
6,46.10000014305115,distr,13899.999856948853,Wed Apr 02 2025 17:18:09 GMT-0400 (Eastern Daylight Time),727386.5999999046,B,clou,I,u,235,1,10950.199999809265,716436.4000000954,9010,WL,C,8.0
6,46.28399991989136,distr,13716.000080108643,Wed Apr 02 2025 17:18:09 GMT-0400 (Eastern Daylight Time),727570.0,B,cloud,I,d,157,1,11133.599999904633,716436.4000000954,9010,WL,C,8.0
6,47.115999937057495,distr,12884.000062942505,Wed Apr 02 2025 17:18:09 GMT-0400 (Eastern Daylight Time),728402.6999998093,B,cloudenter,I,enter,813,1,11966.299999713898,716436.4000000954,9010,WL,C,8.0
6,48.56599998474121,distr,11434.000015258789,Wed Apr 02 2025 17:18:09 GMT-0400 (Eastern Daylight Time),729852.6999998093,B,enter,I,enter,1431,1,1449.5999999046326,728403.0999999046,9010,WL,C,9.0
6,48.782999992370605,distr,11217.000007629395,Wed Apr 02 2025 17:18:09 GMT-0400 (Eastern Daylight Time),730069.4000000954,B,enter,I,enter,206,1,216.30000019073486,729853.0999999046,9010,WL,C,10.0
6,48.98300004005432,distr,11016.999959945679,Wed Apr 02 2025 17:18:09 GMT-0400 (Eastern Daylight Time),730269.4000000954,B,enter,I,enter,181,1,199.5,730069.9000000954,9010,WL,C,11.0
6,49.18300008773804,distr,10816.999912261963,Wed Apr 02 2025 17:18:09 GMT-0400 (Eastern Daylight Time),730469.4000000954,B,enter,I,enter,189,1,199.5,730269.9000000954,9010,WL,C,12.0
6,49.58299994468689,distr,10417.00005531311,Wed Apr 02 2025 17:18:09 GMT-0400 (Eastern Daylight Time),730869.4000000954,B,enter,I,enter,389,1,399.59999990463257,730469.8000001907,9010,WL,C,13.0
6,50.032999992370605,distr,9967.000007629395,Wed Apr 02 2025 17:18:09 GMT-0400 (Eastern Daylight Time),731319.4000000954,B,enter,I,enter,437,1,449.59999990463257,730869.8000001907,9010,WL,C,14.0
6,50.33299994468689,distr,9667.00005531311,Wed Apr 02 2025 17:18:09 GMT-0400 (Eastern Daylight Time),731619.5,B,enter,I,enter,291,1,299.59999990463257,731319.9000000954,9010,WL,C,15.0
7,5.3999998569488525,immed,54600.00014305115,Wed Apr 02 2025 17:18:09 GMT-0400 (Eastern Daylight Time),745836.5999999046,A,c,I,c,5380,1,5399.599999904633,740437.0,9010,WL,C,1.0
7,5.83299994468689,immed,54167.00005531311,Wed Apr 02 2025 17:18:09 GMT-0400 (Eastern Daylight Time),746269.9000000954,A,ca,I,a,411,1,5832.900000095367,740437.0,9010,WL,C,1.0
7,6.566999912261963,immed,53433.00008773804,Wed Apr 02 2025 17:18:09 GMT-0400 (Eastern Daylight Time),747003.3000001907,A,cam,I,m,714,1,6566.300000190735,740437.0,9010,WL,C,1.0
7,7.0,immed,53000.0,Wed Apr 02 2025 17:18:09 GMT-0400 (Eastern Daylight Time),747436.5,A,camo,I,o,411,1,6999.5,740437.0,9010,WL,C,1.0
7,7.416999816894531,immed,52583.00018310547,Wed Apr 02 2025 17:18:09 GMT-0400 (Eastern Daylight Time),747853.3000001907,A,cam,I,backspace,396,1,7416.300000190735,740437.0,9010,WL,C,1.0
7,7.682999849319458,immed,52317.00015068054,Wed Apr 02 2025 17:18:09 GMT-0400 (Eastern Daylight Time),748120.0,A,camp,I,p,248,1,7683.0,740437.0,9010,WL,C,1.0
7,8.032999992370605,immed,51967.000007629395,Wed Apr 02 2025 17:18:09 GMT-0400 (Eastern Daylight Time),748469.4000000954,A,campenter,I,enter,336,1,8032.400000095367,740437.0,9010,WL,C,1.0
7,9.032999992370605,immed,50967.000007629395,Wed Apr 02 2025 17:18:09 GMT-0400 (Eastern Daylight Time),749469.8000001907,A,o,I,o,980,1,1000.0,748469.8000001907,9010,WL,C,2.0
7,9.58299994468689,immed,50417.00005531311,Wed Apr 02 2025 17:18:09 GMT-0400 (Eastern Daylight Time),750019.8000001907,A,,I,backspace,538,1,1550.0,748469.8000001907,9010,WL,C,2.0
7,9.717000007629395,immed,50282.999992370605,Wed Apr 02 2025 17:18:09 GMT-0400 (Eastern Daylight Time),750153.0999999046,A,t,I,t,115,1,1683.2999997138977,748469.8000001907,9010,WL,C,2.0
7,9.950000047683716,immed,50049.999952316284,Wed Apr 02 2025 17:18:09 GMT-0400 (Eastern Daylight Time),750386.0,A,to,I,o,221,1,1916.1999998092651,748469.8000001907,9010,WL,C,2.0
7,10.049999952316284,immed,49950.000047683716,Wed Apr 02 2025 17:18:09 GMT-0400 (Eastern Daylight Time),750486.5999999046,A,tow,I,w,85,1,2016.7999997138977,748469.8000001907,9010,WL,C,2.0
7,10.132999897003174,immed,49867.000102996826,Wed Apr 02 2025 17:18:09 GMT-0400 (Eastern Daylight Time),750569.6999998093,A,towe,I,e,64,1,2099.8999996185303,748469.8000001907,9010,WL,C,2.0
7,10.233000040054321,immed,49766.99995994568,Wed Apr 02 2025 17:18:09 GMT-0400 (Eastern Daylight Time),750669.6999998093,A,tower,I,r,77,1,2199.8999996185303,748469.8000001907,9010,WL,C,2.0
7,10.565999984741211,immed,49434.00001525879,Wed Apr 02 2025 17:18:09 GMT-0400 (Eastern Daylight Time),751002.6999998093,A,towerenter,I,enter,312,1,2532.8999996185303,748469.8000001907,9010,WL,C,2.0
7,11.432999849319458,immed,48567.00015068054,Wed Apr 02 2025 17:18:09 GMT-0400 (Eastern Daylight Time),751869.8000001907,A,h,I,h,847,1,866.6000003814697,751003.1999998093,9010,WL,C,3.0
7,11.649999856948853,immed,48350.00014305115,Wed Apr 02 2025 17:18:09 GMT-0400 (Eastern Daylight Time),752086.5,A,ho,I,o,202,1,1083.3000001907349,751003.1999998093,9010,WL,C,3.0
7,11.865999937057495,immed,48134.000062942505,Wed Apr 02 2025 17:18:09 GMT-0400 (Eastern Daylight Time),752303.0,A,hom,I,m,184,1,1299.8000001907349,751003.1999998093,9010,WL,C,3.0
7,12.016999959945679,immed,47983.00004005432,Wed Apr 02 2025 17:18:09 GMT-0400 (Eastern Daylight Time),752453.1999998093,A,home,I,e,137,1,1450.0,751003.1999998093,9010,WL,C,3.0
7,12.266000032424927,immed,47733.99996757507,Wed Apr 02 2025 17:18:09 GMT-0400 (Eastern Daylight Time),752702.6999998093,A,homeenter,I,enter,225,1,1699.5,751003.1999998093,9010,WL,C,3.0
7,13.033999919891357,immed,46966.00008010864,Wed Apr 02 2025 17:18:09 GMT-0400 (Eastern Daylight Time),753470.0,A,q,I,q,748,1,766.9000000953674,752703.0999999046,9010,WL,C,4.0
7,13.217000007629395,immed,46782.999992370605,Wed Apr 02 2025 17:18:09 GMT-0400 (Eastern Daylight Time),753653.1999998093,A,qu,I,u,170,1,950.0999999046326,752703.0999999046,9010,WL,C,4.0
7,13.349999904632568,immed,46650.00009536743,Wed Apr 02 2025 17:18:09 GMT-0400 (Eastern Daylight Time),753786.4000000954,A,que,I,e,108,1,1083.3000001907349,752703.0999999046,9010,WL,C,4.0
7,13.616999864578247,immed,46383.00013542175,Wed Apr 02 2025 17:18:09 GMT-0400 (Eastern Daylight Time),754053.1999998093,A,quen,I,n,253,1,1350.0999999046326,752703.0999999046,9010,WL,C,4.0
7,13.799999952316284,immed,46200.000047683716,Wed Apr 02 2025 17:18:09 GMT-0400 (Eastern Daylight Time),754236.5,A,quenn,I,n,162,1,1533.4000000953674,752703.0999999046,9010,WL,C,4.0
7,14.5,immed,45500.0,Wed Apr 02 2025 17:18:09 GMT-0400 (Eastern Daylight Time),754936.4000000954,A,quen,I,backspace,683,1,2233.300000190735,752703.0999999046,9010,WL,C,4.0
7,14.666999816894531,immed,45333.00018310547,Wed Apr 02 2025 17:18:09 GMT-0400 (Eastern Daylight Time),755103.0999999046,A,que,I,backspace,141,1,2400.0,752703.0999999046,9010,WL,C,4.0
7,14.83299994468689,immed,45167.00005531311,Wed Apr 02 2025 17:18:09 GMT-0400 (Eastern Daylight Time),755269.9000000954,A,quee,I,e,152,1,2566.800000190735,752703.0999999046,9010,WL,C,4.0
7,15.217000007629395,immed,44782.999992370605,Wed Apr 02 2025 17:18:09 GMT-0400 (Eastern Daylight Time),755653.1999998093,A,queen,I,n,369,1,2950.0999999046326,752703.0999999046,9010,WL,C,4.0
7,15.998999834060669,immed,44001.00016593933,Wed Apr 02 2025 17:18:09 GMT-0400 (Eastern Daylight Time),756435.6999998093,A,queenenter,I,enter,770,1,3732.5999999046326,752703.0999999046,9010,WL,C,4.0
7,16.632999897003174,immed,43367.000102996826,Wed Apr 02 2025 17:18:09 GMT-0400 (Eastern Daylight Time),757069.9000000954,A,h,I,h,614,1,633.8000001907349,756436.0999999046,9010,WL,C,5.0
7,16.84999990463257,immed,43150.00009536743,Wed Apr 02 2025 17:18:09 GMT-0400 (Eastern Daylight Time),757286.5,A,ho,I,o,201,1,850.4000000953674,756436.0999999046,9010,WL,C,5.0
7,17.08299994468689,immed,42917.00005531311,Wed Apr 02 2025 17:18:09 GMT-0400 (Eastern Daylight Time),757519.8000001907,A,hom,I,m,202,1,1083.7000002861023,756436.0999999046,9010,WL,C,5.0
7,17.217000007629395,immed,42782.999992370605,Wed Apr 02 2025 17:18:09 GMT-0400 (Eastern Daylight Time),757653.1999998093,A,home,I,e,120,1,1217.0999999046326,756436.0999999046,9010,WL,C,5.0
7,17.48300004005432,immed,42516.99995994568,Wed Apr 02 2025 17:18:09 GMT-0400 (Eastern Daylight Time),757919.3000001907,A,homeenter,I,enter,243,1,1483.2000002861023,756436.0999999046,9010,WL,C,5.0
7,17.91699981689453,immed,42083.00018310547,Wed Apr 02 2025 17:18:09 GMT-0400 (Eastern Daylight Time),758353.0,A,b,I,b,410,1,433.40000009536743,757919.5999999046,9010,WL,C,6.0
7,18.16699981689453,immed,41833.00018310547,Wed Apr 02 2025 17:18:09 GMT-0400 (Eastern Daylight Time),758603.1999998093,A,bo,I,o,227,1,683.5999999046326,757919.5999999046,9010,WL,C,6.0
7,18.467000007629395,immed,41532.999992370605,Wed Apr 02 2025 17:18:09 GMT-0400 (Eastern Daylight Time),758903.1999998093,A,boy,I,y,283,1,983.5999999046326,757919.5999999046,9010,WL,C,6.0
7,18.799999952316284,immed,41200.000047683716,Wed Apr 02 2025 17:18:09 GMT-0400 (Eastern Daylight Time),759236.0,A,boyenter,I,enter,320,1,1316.4000000953674,757919.5999999046,9010,WL,C,6.0
7,19.08299994468689,immed,40917.00005531311,Wed Apr 02 2025 17:18:09 GMT-0400 (Eastern Daylight Time),759519.6999998093,A,d,I,d,262,1,283.2999997138977,759236.4000000954,9010,WL,C,7.0
7,19.41699981689453,immed,40583.00018310547,Wed Apr 02 2025 17:18:09 GMT-0400 (Eastern Daylight Time),759853.1999998093,A,do,I,o,312,1,616.7999997138977,759236.4000000954,9010,WL,C,7.0
7,19.550999879837036,immed,40449.000120162964,Wed Apr 02 2025 17:18:09 GMT-0400 (Eastern Daylight Time),759987.5,A,doc,I,c,123,1,751.0999999046326,759236.4000000954,9010,WL,C,7.0
7,19.816999912261963,immed,40183.00008773804,Wed Apr 02 2025 17:18:09 GMT-0400 (Eastern Daylight Time),760253.0999999046,A,doct,I,t,236,1,1016.6999998092651,759236.4000000954,9010,WL,C,7.0
7,19.950000047683716,immed,40049.999952316284,Wed Apr 02 2025 17:18:09 GMT-0400 (Eastern Daylight Time),760386.1999998093,A,docto,I,o,123,1,1149.7999997138977,759236.4000000954,9010,WL,C,7.0
7,20.132999897003174,immed,39867.000102996826,Wed Apr 02 2025 17:18:09 GMT-0400 (Eastern Daylight Time),760569.9000000954,A,doctor,I,r,158,1,1333.5,759236.4000000954,9010,WL,C,7.0
7,20.41599988937378,immed,39584.00011062622,Wed Apr 02 2025 17:18:09 GMT-0400 (Eastern Daylight Time),760852.8000001907,A,doctorenter,I,enter,270,1,1616.4000000953674,759236.4000000954,9010,WL,C,7.0
7,20.84999990463257,immed,39150.00009536743,Wed Apr 02 2025 17:18:09 GMT-0400 (Eastern Daylight Time),761286.4000000954,A,w,I,w,422,1,433.30000019073486,760853.0999999046,9010,WL,C,8.0
7,21.08299994468689,immed,38917.00005531311,Wed Apr 02 2025 17:18:09 GMT-0400 (Eastern Daylight Time),761519.9000000954,A,wh,I,h,209,1,666.8000001907349,760853.0999999046,9010,WL,C,8.0
7,21.399999856948853,immed,38600.00014305115,Wed Apr 02 2025 17:18:09 GMT-0400 (Eastern Daylight Time),761836.5,A,whe,I,e,295,1,983.4000000953674,760853.0999999046,9010,WL,C,8.0
7,21.58299994468689,immed,38417.00005531311,Wed Apr 02 2025 17:18:09 GMT-0400 (Eastern Daylight Time),762019.9000000954,A,whea,I,a,171,1,1166.8000001907349,760853.0999999046,9010,WL,C,8.0
7,21.717000007629395,immed,38282.999992370605,Wed Apr 02 2025 17:18:09 GMT-0400 (Eastern Daylight Time),762153.1999998093,A,wheat,I,t,115,1,1300.0999999046326,760853.0999999046,9010,WL,C,8.0
7,22.032999992370605,immed,37967.000007629395,Wed Apr 02 2025 17:18:09 GMT-0400 (Eastern Daylight Time),762469.4000000954,A,wheatenter,I,enter,300,1,1616.3000001907349,760853.0999999046,9010,WL,C,8.0
7,22.432999849319458,immed,37567.00015068054,Wed Apr 02 2025 17:18:09 GMT-0400 (Eastern Daylight Time),762869.8000001907,A,s,I,s,389,1,400.1000003814697,762469.6999998093,9010,WL,C,9.0
7,22.700000047683716,immed,37299.999952316284,Wed Apr 02 2025 17:18:09 GMT-0400 (Eastern Daylight Time),763136.5,A,su,I,u,242,1,666.8000001907349,762469.6999998093,9010,WL,C,9.0
7,22.866999864578247,immed,37133.00013542175,Wed Apr 02 2025 17:18:09 GMT-0400 (Eastern Daylight Time),763303.1999998093,A,sug,I,g,149,1,833.5,762469.6999998093,9010,WL,C,9.0
7,23.032999992370605,immed,36967.000007629395,Wed Apr 02 2025 17:18:09 GMT-0400 (Eastern Daylight Time),763469.9000000954,A,suga,I,a,144,1,1000.2000002861023,762469.6999998093,9010,WL,C,9.0
7,23.151000022888184,immed,36848.99997711182,Wed Apr 02 2025 17:18:09 GMT-0400 (Eastern Daylight Time),763587.4000000954,A,sugar,I,r,103,1,1117.7000002861023,762469.6999998093,9010,WL,C,9.0
7,23.448999881744385,immed,36551.000118255615,Wed Apr 02 2025 17:18:09 GMT-0400 (Eastern Daylight Time),763885.9000000954,A,sugarenter,I,enter,276,1,1416.2000002861023,762469.6999998093,9010,WL,C,9.0
