acc_sum,block,block_c,condition,correct,correct_response,datetime,endtime,flanker,jitter,project,response,response_test_buffer_response,response_test_target_response,response_time,response_time_test_buffer_response,response_time_test_target_response,row_sel,session_number,start_end,starttime,subject_id,target,task,task_vers,time_test_buffer,time_test_buffer_response,time_test_constants,time_test_flanker,time_test_jitter,time_test_logger,time_test_target,time_test_target_response,time_test_variables,trial
1,prac,1,con,1,m,Fri Apr 04 2025 13:30:09 GMT-0500 (Central Daylight Time),101934.89999997616,jacket,800,O,m,,,643,,,5,1,2741.399999976158,99193.5,7097,jacket,AF,B,,,,,,,,,,1
2,prac,1,inc,1,z,Fri Apr 04 2025 13:30:09 GMT-0500 (Central Daylight Time),104700.59999996424,film,900,O,z,,,539,,,14,1,2741.899999976158,101958.69999998808,7097,hate,AF,B,,,,,,,,,,2
3,prac,1,inc,1,z,Fri Apr 04 2025 13:30:09 GMT-0500 (Central Daylight Time),107432.89999997616,rock,900,O,z,,,500,,,10,1,2708.199999988079,104724.69999998808,7097,kind,AF,B,,,,,,,,,,3
3,prac,1,inc,0,z,Fri Apr 04 2025 13:30:09 GMT-0500 (Central Daylight Time),110965.30000001192,napkin,1100,O,m,,,1104,,,12,1,3507.5,107457.80000001192,7097,friend,AF,B,,,,,,,,,,4
4,prac,1,inc,1,z,Fri Apr 04 2025 13:30:09 GMT-0500 (Central Daylight Time),114063.0,window,1100,O,z,,,668,,,16,1,3074.400000035763,110988.59999996424,7097,temper,AF,B,,,,,,,,,,5
5,prac,1,inc,1,m,Fri Apr 04 2025 13:30:09 GMT-0500 (Central Daylight Time),117296.5,brutal,1100,O,m,,,825,,,8,1,3225.600000023842,114070.89999997616,7097,window,AF,B,,,,,,,,,,6
6,prac,1,con,1,z,Fri Apr 04 2025 13:30:09 GMT-0500 (Central Daylight Time),120045.19999998808,elated,800,O,z,,,620,,,9,1,2727.5,117317.69999998808,7097,elated,AF,B,,,,,,,,,,7
7,prac,1,con,1,m,Fri Apr 04 2025 13:30:09 GMT-0500 (Central Daylight Time),123111.19999998808,remote,1000,O,m,,,735,,,7,1,3046.5,120064.69999998808,7097,remote,AF,B,,,,,,,,,,8
8,prac,1,inc,1,m,Fri Apr 04 2025 13:30:09 GMT-0500 (Central Daylight Time),125976.80000001192,kind,900,O,m,,,633,,,2,1,2843.100000023842,123133.69999998808,7097,rock,AF,B,,,,,,,,,,9
9,prac,1,con,1,m,Fri Apr 04 2025 13:30:09 GMT-0500 (Central Daylight Time),129042.5,bell,1000,O,m,,,740,,,3,1,3042.0,126000.5,7097,bell,AF,B,,,,,,,,,,10
10,prac,1,con,1,z,Fri Apr 04 2025 13:30:09 GMT-0500 (Central Daylight Time),132141.30000001192,brutal,800,O,z,,,970,,,13,1,3076.600000023842,129064.69999998808,7097,brutal,AF,B,,,,,,,,,,11
11,prac,1,inc,1,m,Fri Apr 04 2025 13:30:09 GMT-0500 (Central Daylight Time),135189.59999996424,elated,900,O,m,,,829,,,6,1,3025.0,132164.59999996424,7097,napkin,AF,B,,,,,,,,,,12
12,prac,1,con,1,z,Fri Apr 04 2025 13:30:09 GMT-0500 (Central Daylight Time),138056.0,love,1000,O,z,,,551,,,11,1,2857.699999988079,135198.30000001192,7097,love,AF,B,,,,,,,,,,13
13,prac,1,con,1,m,Fri Apr 04 2025 13:30:09 GMT-0500 (Central Daylight Time),140738.30000001192,step,800,O,m,,,548,,,1,1,2660.5,138077.80000001192,7097,step,AF,B,,,,,,,,,,14
14,prac,1,inc,1,m,Fri Apr 04 2025 13:30:09 GMT-0500 (Central Daylight Time),143804.39999997616,hate,1100,O,m,,,638,,,4,1,3043.699999988079,140760.69999998808,7097,film,AF,B,,,,,,,,,,15
15,prac,1,con,1,z,Fri Apr 04 2025 13:30:09 GMT-0500 (Central Daylight Time),146636.39999997616,rage,1000,O,z,,,505,,,15,1,2809.699999988079,143826.69999998808,7097,rage,AF,B,,,,,,,,,,16
1,test,1,inc,1,z,Fri Apr 04 2025 13:30:09 GMT-0500 (Central Daylight Time),159682.39999997616,napkin,900,O,z,z,None,642,443.0,199.0,30,1,2079.199999988079,157603.19999998808,7097,friend,AF,B,153316,153316,151686,152600,151688,153765,153116,153116,153765,1
2,test,1,con,1,z,Fri Apr 04 2025 13:30:09 GMT-0500 (Central Daylight Time),161581.39999997616,rage,900,O,z,z,None,446,247.0,199.0,50,1,1876.300000011921,159705.09999996424,7097,rage,AF,B,155416,155416,153788,154699,153790,155665,155216,155216,155664,2
3,test,1,inc,1,z,Fri Apr 04 2025 13:30:09 GMT-0500 (Central Daylight Time),163879.89999997616,remote,1000,O,z,z,None,742,543.0,199.0,39,1,2273.699999988079,161606.19999998808,7097,brutal,AF,B,157415,157415,155689,156698,155691,157963,157215,157215,157963,3
4,test,1,con,1,m,Fri Apr 04 2025 13:30:09 GMT-0500 (Central Daylight Time),166313.19999998808,window,1100,O,m,m,None,784,569.0,215.0,124,1,2425.899999976158,163887.30000001192,7097,window,AF,B,159814,159814,157970,159081,157971,160396,159598,159598,160396,4
5,test,1,inc,1,m,Fri Apr 04 2025 13:30:09 GMT-0500 (Central Daylight Time),168645.89999997616,friend,1100,O,m,m,None,671,472.0,199.0,104,1,2310.599999964237,166335.30000001192,7097,jacket,AF,B,162247,162247,160418,161530,160420,162729,162047,162047,162729,5
6,test,1,con,1,z,Fri Apr 04 2025 13:30:09 GMT-0500 (Central Daylight Time),170761.80000001192,love,900,O,z,z,None,658,443.0,215.0,18,1,2093.5,168668.30000001192,7097,love,AF,B,164396,164396,162751,163663,162753,164845,164180,164180,164845,6
7,test,1,inc,1,m,Fri Apr 04 2025 13:30:09 GMT-0500 (Central Daylight Time),172794.5,elated,800,O,m,m,None,674,475.0,199.0,117,1,2010.199999988079,170784.30000001192,7097,remote,AF,B,166395,166396,164867,165679,164869,166878,166196,166196,166878,7
8,test,1,inc,1,m,Fri Apr 04 2025 13:30:09 GMT-0500 (Central Daylight Time),174977.19999998808,brutal,900,O,m,m,None,728,529.0,199.0,118,1,2161.199999988079,172816.0,7097,remote,AF,B,168526,168526,166899,167812,166901,169060,168327,168327,169060,8
9,test,1,con,1,m,Fri Apr 04 2025 13:30:09 GMT-0500 (Central Daylight Time),177076.30000001192,jacket,900,O,m,m,None,641,441.0,200.0,98,1,2080.2000000476837,174996.09999996424,7097,jacket,AF,B,170710,170710,169079,169993,169080,171159,170509,170509,171159,9
10,test,1,con,1,z,Fri Apr 04 2025 13:30:09 GMT-0500 (Central Daylight Time),179091.59999996424,temper,800,O,z,z,None,655,456.0,199.0,57,1,1993.0999999642372,177098.5,7097,temper,AF,B,172710,172710,171182,171992,171183,173175,172510,172510,173175,10
11,test,1,inc,1,z,Fri Apr 04 2025 13:30:09 GMT-0500 (Central Daylight Time),181625.0,film,1100,O,z,z,None,886,686.0,200.0,16,1,2526.5,179098.5,7097,kind,AF,B,175009,175009,173182,174293,173182,175708,174808,174808,175708,11
12,test,1,con,1,z,Fri Apr 04 2025 13:30:09 GMT-0500 (Central Daylight Time),183890.89999997616,temper,1100,O,z,z,None,599,384.0,215.0,60,1,2244.699999988079,181646.19999998808,7097,temper,AF,B,177575,177575,175729,176842,175731,177974,177359,177359,177974,12
13,test,1,inc,1,m,Fri Apr 04 2025 13:30:09 GMT-0500 (Central Daylight Time),186040.5,brutal,900,O,m,m,None,694,495.0,199.0,110,1,2127.600000023842,183912.89999997616,7097,napkin,AF,B,179624,179624,177996,178908,177998,180124,179424,179424,180123,13
14,test,1,con,1,z,Fri Apr 04 2025 13:30:09 GMT-0500 (Central Daylight Time),188272.69999998808,love,800,O,z,z,None,876,677.0,199.0,17,1,2209.899999976158,186062.80000001192,7097,love,AF,B,181674,181674,180146,180957,180147,182356,181474,181474,182356,14
15,test,1,con,1,m,Fri Apr 04 2025 13:30:09 GMT-0500 (Central Daylight Time),190438.59999996424,napkin,900,O,m,m,None,713,513.0,200.0,106,1,2143.2999999523163,188295.30000001192,7097,napkin,AF,B,184005,184006,182378,183290,182380,184522,183805,183805,184522,15
16,test,1,con,1,z,Fri Apr 04 2025 13:30:09 GMT-0500 (Central Daylight Time),192437.59999996424,friend,900,O,z,z,None,536,321.0,215.0,26,1,1977.5999999642372,190460.0,7097,friend,AF,B,186188,186189,184543,185456,184545,186521,185973,185973,186521,16
17,test,1,inc,1,m,Fri Apr 04 2025 13:30:09 GMT-0500 (Central Daylight Time),194454.0,rage,800,O,m,m,None,671,472.0,199.0,77,1,2003.9000000357628,192450.09999996424,7097,rock,AF,B,188055,188055,186533,187338,186534,188537,187855,187855,188537,17
18,test,1,con,1,m,Fri Apr 04 2025 13:30:09 GMT-0500 (Central Daylight Time),197003.19999998808,remote,1100,O,m,m,None,890,675.0,215.0,116,1,2526.800000011921,194476.39999997616,7097,remote,AF,B,190404,190404,188559,189671,188561,191086,190188,190188,191086,18
19,test,1,inc,1,z,Fri Apr 04 2025 13:30:09 GMT-0500 (Central Daylight Time),199135.80000001192,jacket,800,O,z,z,None,778,579.0,199.0,61,1,2111.800000011921,197024.0,7097,temper,AF,B,192636,192636,191107,191919,191109,193219,192437,192437,193219,19
20,test,1,inc,1,m,Fri Apr 04 2025 13:30:09 GMT-0500 (Central Daylight Time),201485.09999996424,hate,1100,O,m,m,None,689,490.0,199.0,72,1,2328.699999988079,199156.39999997616,7097,step,AF,B,195069,195069,193239,194353,193241,195568,194869,194869,195568,20
21,test,1,inc,1,m,Fri Apr 04 2025 13:30:09 GMT-0500 (Central Daylight Time),203751.0,elated,800,O,m,m,None,903,688.0,215.0,125,1,2245.0,201506.0,7097,window,AF,B,197135,197135,195589,196402,195591,197834,196919,196919,197834,21
22,test,1,con,1,m,Fri Apr 04 2025 13:30:09 GMT-0500 (Central Daylight Time),206200.09999996424,film,1100,O,m,m,None,793,578.0,215.0,92,1,2420.5,203779.59999996424,7097,film,AF,B,199701,199701,197863,198968,197865,200283,199485,199485,200283,22
23,test,1,con,1,z,Fri Apr 04 2025 13:30:09 GMT-0500 (Central Daylight Time),208216.09999996424,kind,800,O,z,z,None,661,462.0,199.0,9,1,1993.5999999642372,206222.5,7097,kind,AF,B,201833,201833,200306,201117,200307,202299,201634,201634,202299,23
24,test,1,inc,1,m,Fri Apr 04 2025 13:30:09 GMT-0500 (Central Daylight Time),210464.69999998808,temper,1000,O,m,m,None,686,486.0,200.0,111,1,2227.0,208237.69999998808,7097,napkin,AF,B,204048,204048,202321,203334,202322,204548,203848,203848,204548,24
25,test,1,inc,1,z,Fri Apr 04 2025 13:30:09 GMT-0500 (Central Daylight Time),212648.09999996424,napkin,900,O,z,z,None,736,537.0,199.0,62,1,2177.0,210471.09999996424,7097,temper,AF,B,206182,206182,204554,205466,204555,206731,205982,205982,206731,25
26,test,1,inc,1,m,Fri Apr 04 2025 13:30:09 GMT-0500 (Central Daylight Time),214863.89999997616,temper,1000,O,m,m,None,661,446.0,215.0,119,1,2195.199999988079,212668.69999998808,7097,remote,AF,B,208498,208498,206752,207765,206753,208947,208282,208282,208947,26
27,test,1,inc,1,m,Fri Apr 04 2025 13:30:09 GMT-0500 (Central Daylight Time),216995.69999998808,kind,900,O,m,m,None,679,464.0,215.0,78,1,2114.300000011921,214881.39999997616,7097,rock,AF,B,210614,210614,208964,209880,208965,211079,210398,210398,211079,27
28,test,1,inc,1,m,Fri Apr 04 2025 13:30:09 GMT-0500 (Central Daylight Time),219494.80000001192,friend,1100,O,m,m,None,852,637.0,215.0,112,1,2493.400000035763,217001.39999997616,7097,napkin,AF,B,212929,212929,211084,212197,211085,213578,212713,212714,213578,28
29,test,1,con,1,z,Fri Apr 04 2025 13:30:09 GMT-0500 (Central Daylight Time),221478.5,friend,800,O,z,z,None,637,422.0,215.0,25,1,1977.800000011921,219500.69999998808,7097,friend,AF,B,215129,215129,213584,214396,213584,215562,214913,214913,215562,29
30,test,1,con,1,m,Fri Apr 04 2025 13:30:09 GMT-0500 (Central Daylight Time),223777.69999998808,napkin,1100,O,m,m,None,644,443.0,201.0,108,1,2279.300000011921,221498.39999997616,7097,napkin,AF,B,217412,217412,215581,216696,215583,217861,217210,217210,217861,30
31,test,1,con,1,z,Fri Apr 04 2025 13:30:09 GMT-0500 (Central Daylight Time),225892.89999997616,brutal,900,O,z,z,None,653,438.0,215.0,34,1,2096.099999964237,223796.80000001192,7097,brutal,AF,B,219528,219528,217880,218794,217881,219976,219312,219312,219976,31
32,test,1,con,1,m,Fri Apr 04 2025 13:30:09 GMT-0500 (Central Daylight Time),228077.19999998808,rock,900,O,m,m,None,747,548.0,199.0,74,1,2178.399999976158,225898.80000001192,7097,rock,AF,B,221610,221611,219982,220894,219982,222160,221411,221411,222160,32
33,test,1,con,1,z,Fri Apr 04 2025 13:30:09 GMT-0500 (Central Daylight Time),230375.59999996424,kind,1100,O,z,z,None,637,438.0,199.0,12,1,2278.2999999523163,228097.30000001192,7097,kind,AF,B,224009,224009,222180,223293,222182,224459,223810,223810,224459,33
34,test,1,con,1,m,Fri Apr 04 2025 13:30:09 GMT-0500 (Central Daylight Time),232408.19999998808,jacket,1000,O,m,m,None,477,278.0,199.0,99,1,2012.699999988079,230395.5,7097,jacket,AF,B,226209,226209,224478,225493,224480,226491,226009,226009,226491,34
34,test,1,con,0,z,Fri Apr 04 2025 13:30:09 GMT-0500 (Central Daylight Time),234990.80000001192,brutal,1100,O,m,m,None,920,721.0,199.0,36,1,2562.300000011921,232428.5,7097,brutal,AF,B,228342,228342,226512,227624,226513,229074,228142,228142,229074,35
35,test,1,con,1,m,Fri Apr 04 2025 13:30:09 GMT-0500 (Central Daylight Time),237140.0,remote,900,O,m,m,None,684,484.0,200.0,114,1,2129.199999988079,235010.80000001192,7097,remote,AF,B,230723,230723,229094,230008,229095,231223,230523,230523,231223,36
36,test,1,inc,1,z,Fri Apr 04 2025 13:30:09 GMT-0500 (Central Daylight Time),239272.69999998808,napkin,900,O,z,z,None,668,453.0,215.0,6,1,2112.800000011921,237159.89999997616,7097,elated,AF,B,232890,232890,231243,232157,231245,233356,232674,232674,233356,37
37,test,1,con,1,z,Fri Apr 04 2025 13:30:09 GMT-0500 (Central Daylight Time),241605.30000001192,love,1100,O,z,z,None,672,473.0,199.0,20,1,2311.7000000476837,239293.59999996424,7097,love,AF,B,235206,235206,233377,234490,233378,235688,235006,235006,235688,38
38,test,1,inc,1,m,Fri Apr 04 2025 13:30:09 GMT-0500 (Central Daylight Time),243787.80000001192,love,1000,O,m,m,None,615,416.0,199.0,95,1,2162.0,241625.80000001192,7097,film,AF,B,237438,237439,235709,236723,235710,237871,237239,237239,237871,39
39,test,1,inc,1,z,Fri Apr 04 2025 13:30:09 GMT-0500 (Central Daylight Time),246003.69999998808,remote,1000,O,z,z,None,649,450.0,199.0,63,1,2193.100000023842,243810.59999996424,7097,temper,AF,B,239621,239621,237894,238905,237895,240087,239421,239421,240087,40
39,test,1,con,0,z,Fri Apr 04 2025 13:30:09 GMT-0500 (Central Daylight Time),248403.09999996424,friend,1100,O,m,m,None,741,542.0,199.0,28,1,2379.7999999523163,246023.30000001192,7097,friend,AF,B,241937,241937,240106,241221,240108,242486,241737,241737,242486,41
40,test,1,con,1,m,Fri Apr 04 2025 13:30:09 GMT-0500 (Central Daylight Time),250436.39999997616,napkin,800,O,m,m,None,681,466.0,215.0,105,1,2012.699999988079,248423.69999998808,7097,napkin,AF,B,244053,244053,242507,243320,242508,244520,243837,243837,244519,42
41,test,1,con,1,m,Fri Apr 04 2025 13:30:09 GMT-0500 (Central Daylight Time),252385.19999998808,film,900,O,m,m,None,485,286.0,199.0,90,1,1928.3999999761581,250456.80000001192,7097,film,AF,B,246169,246169,244540,245452,244541,246468,245969,245969,246468,43
42,test,1,con,1,z,Fri Apr 04 2025 13:30:09 GMT-0500 (Central Daylight Time),254484.39999997616,elated,1100,O,z,z,None,431,216.0,215.0,4,1,2077.300000011921,252407.09999996424,7097,elated,AF,B,248335,248335,246490,247602,246492,248567,248119,248119,248567,44
43,test,1,con,1,m,Fri Apr 04 2025 13:30:09 GMT-0500 (Central Daylight Time),256516.89999997616,bell,1100,O,m,m,None,372,157.0,215.0,84,1,2012.0,254504.89999997616,7097,bell,AF,B,250434,250434,248588,249701,248589,250600,250218,250218,250600,45
44,test,1,inc,1,z,Fri Apr 04 2025 13:30:09 GMT-0500 (Central Daylight Time),258549.5,jacket,800,O,z,z,None,671,456.0,215.0,5,1,2013.1000000238419,256536.39999997616,7097,elated,AF,B,252167,252167,250619,251434,250621,252633,251951,251951,252633,46
45,test,1,con,1,z,Fri Apr 04 2025 13:30:09 GMT-0500 (Central Daylight Time),260798.89999997616,hate,800,O,z,z,None,895,696.0,199.0,41,1,2227.599999964237,258571.30000001192,7097,hate,AF,B,254183,254183,252654,253466,252656,254882,253983,253983,254882,47
46,test,1,inc,1,z,Fri Apr 04 2025 13:30:09 GMT-0500 (Central Daylight Time),263098.09999996424,bell,1000,O,z,z,None,742,543.0,199.0,55,1,2279.599999964237,260818.5,7097,rage,AF,B,256632,256632,254902,255916,254904,257181,256432,256432,257181,48
47,test,1,con,1,m,Fri Apr 04 2025 13:30:09 GMT-0500 (Central Daylight Time),265280.8000000119,step,1000,O,m,m,None,619,420.0,199.0,67,1,2163.0,263117.8000000119,7097,step,AF,B,258931,258931,257201,258215,257202,259364,258732,258732,259364,49
48,test,1,con,1,z,Fri Apr 04 2025 13:30:09 GMT-0500 (Central Daylight Time),267380.1999999881,hate,1100,O,z,z,None,432,233.0,199.0,44,1,2079.5,265300.6999999881,7097,hate,AF,B,261214,261214,259384,260496,259385,261463,261014,261014,261463,50
49,test,1,inc,1,m,Fri Apr 04 2025 13:30:09 GMT-0500 (Central Daylight Time),269596.0,love,1000,O,m,m,None,648,449.0,199.0,79,1,2197.600000023842,267398.39999997616,7097,rock,AF,B,263213,263214,261481,262497,261482,263679,263014,263014,263679,51
50,test,1,con,1,z,Fri Apr 04 2025 13:30:09 GMT-0500 (Central Daylight Time),271778.8000000119,love,1000,O,z,z,None,616,401.0,215.0,19,1,2163.400000035763,269615.39999997616,7097,love,AF,B,265446,265446,263698,264713,263700,265862,265230,265230,265862,52
51,test,1,inc,1,m,Fri Apr 04 2025 13:30:09 GMT-0500 (Central Daylight Time),273961.1999999881,temper,1000,O,m,m,None,626,427.0,199.0,127,1,2162.399999976158,271798.8000000119,7097,window,AF,B,267612,267612,265882,266896,265883,268044,267412,267412,268044,53
52,test,1,con,1,z,Fri Apr 04 2025 13:30:09 GMT-0500 (Central Daylight Time),276093.89999997616,temper,900,O,z,z,None,671,472.0,199.0,58,1,2112.800000011921,273981.09999996424,7097,temper,AF,B,269695,269695,268064,268978,268066,270177,269495,269495,270177,54
53,test,1,inc,1,m,Fri Apr 04 2025 13:30:09 GMT-0500 (Central Daylight Time),278359.6999999881,friend,1100,O,m,m,None,603,404.0,199.0,120,1,2245.899999976158,276113.8000000119,7097,remote,AF,B,272027,272027,270197,271311,270198,272443,271827,271827,272443,55
54,test,1,inc,1,z,Fri Apr 04 2025 13:30:09 GMT-0500 (Central Daylight Time),280758.6999999881,film,1100,O,z,z,None,737,538.0,199.0,24,1,2379.600000023842,278379.09999996424,7097,love,AF,B,274293,274293,272462,273577,272464,274842,274093,274093,274842,56
55,test,1,con,1,m,Fri Apr 04 2025 13:30:09 GMT-0500 (Central Daylight Time),283125.0,napkin,1000,O,m,m,None,805,590.0,215.0,107,1,2345.600000023842,280779.39999997616,7097,napkin,AF,B,276609,276609,274862,275876,274864,277208,276393,276393,277208,57
56,test,1,con,1,m,Fri Apr 04 2025 13:30:09 GMT-0500 (Central Daylight Time),285357.5,jacket,800,O,m,m,None,872,673.0,199.0,97,1,2211.699999988079,283145.8000000119,7097,jacket,AF,B,278758,278758,277229,278042,277230,279441,278558,278558,279440,58
57,test,1,inc,1,m,Fri Apr 04 2025 13:30:09 GMT-0500 (Central Daylight Time),287707.0,kind,900,O,m,m,None,883,684.0,199.0,70,1,2329.600000023842,285377.39999997616,7097,step,AF,B,281091,281091,279460,280374,279462,281790,280891,280891,281790,59
58,test,1,inc,1,m,Fri Apr 04 2025 13:30:09 GMT-0500 (Central Daylight Time),289989.3000000119,hate,1100,O,m,m,None,622,423.0,199.0,80,1,2262.5,287726.8000000119,7097,rock,AF,B,283640,283640,281810,282924,281811,284072,283440,283440,284072,60
59,test,1,inc,1,z,Fri Apr 04 2025 13:30:09 GMT-0500 (Central Daylight Time),292238.59999996424,bell,1000,O,z,z,None,696,497.0,199.0,15,1,2227.2999999523163,290011.3000000119,7097,kind,AF,B,285822,285822,284094,285106,284096,286322,285623,285623,286322,61
60,test,1,con,1,m,Fri Apr 04 2025 13:30:09 GMT-0500 (Central Daylight Time),294571.09999996424,film,800,O,m,m,None,974,759.0,215.0,89,1,2312.0,292259.09999996424,7097,film,AF,B,287888,287888,286342,287156,286344,288654,287673,287673,288654,62
61,test,1,inc,1,z,Fri Apr 04 2025 13:30:09 GMT-0500 (Central Daylight Time),297020.39999997616,bell,1000,O,z,z,None,889,675.0,214.0,47,1,2429.199999988079,294591.1999999881,7097,hate,AF,B,290420,290420,288674,289688,288676,291104,290205,290205,291103,63
62,test,1,inc,1,z,Fri Apr 04 2025 13:30:09 GMT-0500 (Central Daylight Time),299002.89999997616,step,800,O,z,z,None,616,417.0,199.0,53,1,1962.5999999642372,297040.3000000119,7097,rage,AF,B,292654,292654,291123,291937,291125,293086,292454,292454,293086,64
63,test,1,inc,1,z,Fri Apr 04 2025 13:30:09 GMT-0500 (Central Daylight Time),301219.1999999881,rock,900,O,z,z,None,757,542.0,215.0,14,1,2194.699999988079,299024.5,7097,kind,AF,B,294753,294753,293108,294020,293109,295302,294537,294537,295302,65
64,test,1,con,1,m,Fri Apr 04 2025 13:30:09 GMT-0500 (Central Daylight Time),303201.6999999881,step,800,O,m,m,None,617,402.0,215.0,65,1,1962.199999988079,301239.5,7097,step,AF,B,296869,296869,295323,296136,295323,297285,296653,296653,297285,66
65,test,1,con,1,m,Fri Apr 04 2025 13:30:09 GMT-0500 (Central Daylight Time),305134.1999999881,bell,800,O,m,m,None,579,380.0,199.0,81,1,1912.300000011921,303221.89999997616,7097,bell,AF,B,298835,298835,297305,298119,297307,299217,298635,298635,299217,67
65,test,1,inc,0,z,Fri Apr 04 2025 13:30:09 GMT-0500 (Central Daylight Time),307183.6999999881,rock,900,O,m,m,None,594,395.0,199.0,46,1,2030.199999988079,305153.5,7097,hate,AF,B,300868,300868,299237,300151,299238,301267,300668,300668,301267,68
66,test,1,con,1,m,Fri Apr 04 2025 13:30:09 GMT-0500 (Central Daylight Time),309299.59999996424,rock,800,O,m,m,None,749,550.0,199.0,73,1,2095.7999999523163,307203.8000000119,7097,rock,AF,B,302817,302817,301287,302101,301288,303383,302617,302617,303383,69
67,test,1,inc,1,z,Fri Apr 04 2025 13:30:09 GMT-0500 (Central Daylight Time),311282.39999997616,step,800,O,z,z,None,617,418.0,199.0,21,1,1962.300000011921,309320.09999996424,7097,love,AF,B,304933,304933,303403,304217,303405,305366,304733,304733,305365,70
68,test,1,inc,1,z,Fri Apr 04 2025 13:30:09 GMT-0500 (Central Daylight Time),313365.0,step,800,O,z,z,None,723,524.0,199.0,45,1,2062.5,311302.5,7097,hate,AF,B,306915,306915,305385,306199,305387,307448,306716,306716,307448,71
69,test,1,inc,1,z,Fri Apr 04 2025 13:30:09 GMT-0500 (Central Daylight Time),315630.89999997616,film,1100,O,z,z,None,611,412.0,199.0,48,1,2245.800000011921,313385.09999996424,7097,hate,AF,B,309298,309299,307468,308582,307470,309714,309099,309099,309714,72
70,test,1,inc,1,z,Fri Apr 04 2025 13:30:09 GMT-0500 (Central Daylight Time),317663.59999996424,jacket,800,O,z,z,None,669,454.0,215.0,29,1,2011.8999999761581,315651.6999999881,7097,friend,AF,B,311281,311281,309735,310548,309736,311747,311064,311065,311747,73
71,test,1,con,1,z,Fri Apr 04 2025 13:30:09 GMT-0500 (Central Daylight Time),319579.8000000119,kind,900,O,z,z,None,456,241.0,215.0,10,1,1896.300000011921,317683.5,7097,kind,AF,B,313414,313414,311767,312680,311768,313663,313198,313198,313663,74
72,test,1,inc,1,m,Fri Apr 04 2025 13:30:09 GMT-0500 (Central Daylight Time),321495.8000000119,elated,800,O,m,m,None,553,354.0,199.0,101,1,1896.0,319599.8000000119,7097,jacket,AF,B,315213,315213,313683,314496,313685,315579,315013,315013,315579,75
73,test,1,inc,1,z,Fri Apr 04 2025 13:30:09 GMT-0500 (Central Daylight Time),323794.8000000119,remote,1000,O,z,z,None,741,542.0,199.0,31,1,2279.100000023842,321515.6999999881,7097,friend,AF,B,317329,317329,315599,316612,315600,317878,317129,317129,317878,76
74,test,1,inc,1,z,Fri Apr 04 2025 13:30:09 GMT-0500 (Central Daylight Time),326077.1999999881,napkin,900,O,z,z,None,830,631.0,199.0,38,1,2262.100000023842,323815.09999996424,7097,brutal,AF,B,319528,319528,317898,318812,317900,320160,319328,319328,320160,77
75,test,1,con,1,z,Fri Apr 04 2025 13:30:09 GMT-0500 (Central Daylight Time),328426.6999999881,rage,1100,O,z,z,None,683,484.0,199.0,52,1,2330.0,326096.6999999881,7097,rage,AF,B,322011,322011,320180,321294,320181,322510,321811,321811,322510,78
76,test,1,inc,1,z,Fri Apr 04 2025 13:30:09 GMT-0500 (Central Daylight Time),330775.89999997616,remote,1000,O,z,z,None,793,578.0,215.0,7,1,2328.099999964237,328447.8000000119,7097,elated,AF,B,324276,324277,322531,323543,322532,324859,324060,324061,324859,79
77,test,1,inc,1,z,Fri Apr 04 2025 13:30:09 GMT-0500 (Central Daylight Time),332858.59999996424,jacket,800,O,z,z,None,725,526.0,199.0,37,1,2061.899999976158,330796.6999999881,7097,brutal,AF,B,326409,326409,324880,325693,324882,326942,326209,326209,326942,80
78,test,1,inc,1,m,Fri Apr 04 2025 13:30:09 GMT-0500 (Central Daylight Time),335074.5,rage,800,O,m,m,None,850,651.0,199.0,69,1,2196.300000011921,332878.1999999881,7097,step,AF,B,328492,328492,326961,327775,326963,329158,328292,328292,329158,81
79,test,1,con,1,z,Fri Apr 04 2025 13:30:09 GMT-0500 (Central Daylight Time),337423.89999997616,friend,1000,O,z,z,None,794,595.0,199.0,27,1,2329.699999988079,335094.1999999881,7097,friend,AF,B,330908,330908,329177,330192,329179,331507,330708,330708,331507,82
80,test,1,inc,1,m,Fri Apr 04 2025 13:30:09 GMT-0500 (Central Daylight Time),339456.5,kind,900,O,m,m,None,577,378.0,199.0,94,1,2012.6000000238419,337443.89999997616,7097,film,AF,B,333157,333157,331527,332441,331528,333540,332957,332957,333539,83
81,test,1,con,1,m,Fri Apr 04 2025 13:30:09 GMT-0500 (Central Daylight Time),341788.89999997616,remote,1000,O,m,m,None,772,573.0,199.0,115,1,2310.5,339478.39999997616,7097,remote,AF,B,335289,335290,333561,334574,333563,335872,335090,335090,335872,84
82,test,1,con,1,z,Fri Apr 04 2025 13:30:09 GMT-0500 (Central Daylight Time),344121.59999996424,kind,1000,O,z,z,None,768,569.0,199.0,11,1,2312.2999999523163,341809.3000000119,7097,kind,AF,B,337622,337622,335892,336906,335894,338205,337422,337422,338205,85
83,test,1,con,1,z,Fri Apr 04 2025 13:30:09 GMT-0500 (Central Daylight Time),346054.39999997616,elated,800,O,z,z,None,571,372.0,199.0,1,1,1913.5,344140.89999997616,7097,elated,AF,B,339755,339755,338224,339039,338226,340137,339555,339555,340137,86
84,test,1,inc,1,m,Fri Apr 04 2025 13:30:09 GMT-0500 (Central Daylight Time),348186.89999997616,brutal,900,O,m,m,None,674,475.0,199.0,102,1,2112.5,346074.39999997616,7097,jacket,AF,B,341787,341788,340157,341071,340159,342270,341588,341588,342270,87
85,test,1,con,1,m,Fri Apr 04 2025 13:30:09 GMT-0500 (Central Daylight Time),350502.3000000119,rock,1100,O,m,m,None,661,462.0,199.0,76,1,2296.100000023842,348206.1999999881,7097,rock,AF,B,344120,344120,342289,343404,342290,344585,343920,343920,344585,88
86,test,1,inc,1,m,Fri Apr 04 2025 13:30:09 GMT-0500 (Central Daylight Time),352685.59999996424,love,1000,O,m,m,None,639,440.0,199.0,87,1,2172.899999976158,350512.6999999881,7097,bell,AF,B,346319,346319,344596,345603,344597,346769,346120,346120,346769,89
87,test,1,con,1,m,Fri Apr 04 2025 13:30:09 GMT-0500 (Central Daylight Time),354751.3000000119,window,900,O,m,m,None,603,404.0,199.0,122,1,2046.800000011921,352704.5,7097,window,AF,B,348418,348419,346788,347702,346789,348835,348219,348219,348834,90
88,test,1,con,1,m,Fri Apr 04 2025 13:30:09 GMT-0500 (Central Daylight Time),356950.3000000119,step,1100,O,m,m,None,536,337.0,199.0,68,1,2178.7000000476837,354771.59999996424,7097,step,AF,B,350684,350685,348855,349968,348856,351033,350485,350485,351033,91
89,test,1,inc,1,z,Fri Apr 04 2025 13:30:09 GMT-0500 (Central Daylight Time),359283.1999999881,window,1100,O,z,z,None,690,475.0,215.0,32,1,2323.300000011921,356959.89999997616,7097,friend,AF,B,352884,352884,351043,352151,351044,353366,352668,352668,353366,92
90,test,1,inc,1,z,Fri Apr 04 2025 13:30:09 GMT-0500 (Central Daylight Time),361616.0,window,1100,O,z,z,None,679,479.0,200.0,40,1,2313.600000023842,359302.39999997616,7097,brutal,AF,B,355216,355216,353385,354500,353387,355699,355016,355016,355699,93
91,test,1,inc,1,z,Fri Apr 04 2025 13:30:09 GMT-0500 (Central Daylight Time),364147.8000000119,window,1100,O,z,z,None,871,656.0,215.0,64,1,2512.100000023842,361635.6999999881,7097,temper,AF,B,357566,357566,355719,356833,355720,358231,357350,357350,358231,94
92,test,1,con,1,z,Fri Apr 04 2025 13:30:09 GMT-0500 (Central Daylight Time),366097.8000000119,hate,900,O,z,z,None,501,302.0,199.0,42,1,1937.7000000476837,364160.09999996424,7097,hate,AF,B,359865,359865,358243,359149,358244,360181,359665,359665,360181,95
93,test,1,inc,1,z,Fri Apr 04 2025 13:30:09 GMT-0500 (Central Daylight Time),368313.59999996424,bell,1000,O,z,z,None,651,452.0,199.0,23,1,2195.899999976158,366117.6999999881,7097,love,AF,B,361931,361931,360201,361215,360202,362397,361731,361731,362397,96
94,test,1,con,1,m,Fri Apr 04 2025 13:30:09 GMT-0500 (Central Daylight Time),370513.09999996424,film,1000,O,m,m,None,643,444.0,199.0,91,1,2180.399999976158,368332.6999999881,7097,film,AF,B,364147,364147,362416,363431,362417,364596,363947,363947,364596,97
95,test,1,con,1,z,Fri Apr 04 2025 13:30:09 GMT-0500 (Central Daylight Time),372395.6999999881,brutal,800,O,z,z,None,515,300.0,215.0,33,1,1862.8999999761581,370532.8000000119,7097,brutal,AF,B,366163,366163,364616,365430,364617,366479,365946,365947,366479,98
96,test,1,inc,1,m,Fri Apr 04 2025 13:30:09 GMT-0500 (Central Daylight Time),374345.0,elated,800,O,m,m,None,592,377.0,215.0,109,1,1930.199999988079,372414.8000000119,7097,napkin,AF,B,368045,368046,366498,367312,366499,368428,367830,367830,368428,99
97,test,1,con,1,m,Fri Apr 04 2025 13:30:09 GMT-0500 (Central Daylight Time),376627.5,bell,1000,O,m,m,None,723,508.0,215.0,83,1,2263.300000011921,374364.1999999881,7097,bell,AF,B,370195,370195,368447,369462,368449,370711,369979,369979,370710,100
98,test,1,inc,1,m,Fri Apr 04 2025 13:30:09 GMT-0500 (Central Daylight Time),378810.1999999881,temper,1000,O,m,m,None,626,427.0,199.0,103,1,2164.600000023842,376645.59999996424,7097,jacket,AF,B,372460,372461,370729,371744,370730,372893,372261,372261,372893,101
99,test,1,con,1,z,Fri Apr 04 2025 13:30:09 GMT-0500 (Central Daylight Time),380942.89999997616,elated,1000,O,z,z,None,578,379.0,199.0,3,1,2108.800000011921,378834.09999996424,7097,elated,AF,B,374644,374644,372917,373927,372918,375026,374444,374444,375026,102
100,test,1,inc,1,m,Fri Apr 04 2025 13:30:09 GMT-0500 (Central Daylight Time),383025.39999997616,kind,900,O,m,m,None,625,410.0,215.0,86,1,2062.699999988079,380962.6999999881,7097,bell,AF,B,376693,376693,375046,375960,375048,377109,376477,376477,377108,103
101,test,1,inc,1,m,Fri Apr 04 2025 13:30:09 GMT-0500 (Central Daylight Time),385041.5,brutal,900,O,m,m,None,559,360.0,199.0,126,1,1997.0,383044.5,7097,window,AF,B,378759,378759,377128,378043,377129,379125,378559,378559,379124,104
102,test,1,inc,1,z,Fri Apr 04 2025 13:30:09 GMT-0500 (Central Daylight Time),387173.89999997616,rock,900,O,z,z,None,679,480.0,199.0,54,1,2112.5,385061.39999997616,7097,rage,AF,B,380774,380775,379144,380058,379146,381257,380575,380575,381257,105
103,test,1,con,1,z,Fri Apr 04 2025 13:30:09 GMT-0500 (Central Daylight Time),389406.8000000119,brutal,1000,O,z,z,None,671,456.0,215.0,35,1,2212.800000011921,387194.0,7097,brutal,AF,B,383024,383024,381277,382291,381279,383490,382807,382808,383490,106
104,test,1,con,1,z,Fri Apr 04 2025 13:30:09 GMT-0500 (Central Daylight Time),391289.59999996424,rage,800,O,z,z,None,518,319.0,199.0,49,1,1863.7999999523163,389425.8000000119,7097,rage,AF,B,385040,385040,383509,384324,383510,385373,384840,384840,385373,107
105,test,1,con,1,m,Fri Apr 04 2025 13:30:09 GMT-0500 (Central Daylight Time),393222.0,window,800,O,m,m,None,579,380.0,199.0,121,1,1913.0,391309.0,7097,window,AF,B,386922,386923,385392,386206,385393,387305,386723,386723,387305,108
106,test,1,con,1,z,Fri Apr 04 2025 13:30:09 GMT-0500 (Central Daylight Time),395271.5,rage,1000,O,z,z,None,487,288.0,199.0,51,1,2028.699999988079,393242.8000000119,7097,rage,AF,B,389055,389055,387326,388339,387327,389355,388856,388856,389354,109
107,test,1,con,1,m,Fri Apr 04 2025 13:30:09 GMT-0500 (Central Daylight Time),397387.39999997616,step,900,O,m,m,None,657,458.0,199.0,66,1,2096.300000011921,395291.09999996424,7097,step,AF,B,391004,391005,389374,390288,389377,391471,390805,390805,391470,110
108,test,1,con,1,z,Fri Apr 04 2025 13:30:09 GMT-0500 (Central Daylight Time),399237.09999996424,elated,900,O,z,z,None,397,198.0,199.0,2,1,1830.7999999523163,397406.3000000119,7097,elated,AF,B,393121,393121,391489,392405,391490,393320,392921,392921,393320,111
109,test,1,con,1,m,Fri Apr 04 2025 13:30:09 GMT-0500 (Central Daylight Time),401269.39999997616,remote,800,O,m,m,None,681,482.0,199.0,113,1,2012.800000011921,399256.59999996424,7097,remote,AF,B,394870,394870,393340,394154,393341,395352,394670,394670,395352,112
110,test,1,con,1,m,Fri Apr 04 2025 13:30:09 GMT-0500 (Central Daylight Time),403368.8000000119,jacket,1100,O,m,m,None,436,237.0,199.0,100,1,2080.5,401288.3000000119,7097,jacket,AF,B,397202,397202,395371,396487,395373,397452,397003,397003,397452,113
111,test,1,con,1,m,Fri Apr 04 2025 13:30:09 GMT-0500 (Central Daylight Time),405251.39999997616,bell,900,O,m,m,None,423,208.0,215.0,82,1,1862.699999988079,403388.6999999881,7097,bell,AF,B,399118,399119,397472,398386,397473,399335,398903,398903,399334,114
111,test,1,con,0,z,Fri Apr 04 2025 13:30:09 GMT-0500 (Central Daylight Time),407384.1999999881,temper,1000,O,m,m,None,569,370.0,199.0,59,1,2112.899999976158,405271.3000000119,7097,temper,AF,B,401085,401085,399354,400369,399356,401467,400885,400885,401467,115
112,test,1,inc,1,m,Fri Apr 04 2025 13:30:09 GMT-0500 (Central Daylight Time),409799.89999997616,hate,1100,O,m,m,None,760,545.0,215.0,96,1,2395.5,407404.39999997616,7097,film,AF,B,403334,403334,401487,402600,401489,403883,403117,403118,403883,116
113,test,1,inc,1,m,Fri Apr 04 2025 13:30:09 GMT-0500 (Central Daylight Time),412165.8000000119,hate,1100,O,m,m,None,704,489.0,215.0,88,1,2347.0,409818.8000000119,7097,bell,AF,B,405750,405750,403902,405017,403903,406249,405533,405534,406249,117
114,test,1,con,1,m,Fri Apr 04 2025 13:30:09 GMT-0500 (Central Daylight Time),414315.1999999881,window,1000,O,m,m,None,590,375.0,215.0,123,1,2130.600000023842,412184.59999996424,7097,window,AF,B,408016,408016,406268,407283,406269,408398,407800,407800,408398,118
115,test,1,inc,1,z,Fri Apr 04 2025 13:30:09 GMT-0500 (Central Daylight Time),416365.3000000119,rock,900,O,z,z,None,601,400.0,201.0,22,1,2030.2000000476837,414335.09999996424,7097,love,AF,B,410048,410048,408418,409332,408420,410448,409847,409847,410448,119
116,test,1,inc,1,z,Fri Apr 04 2025 13:30:09 GMT-0500 (Central Daylight Time),418663.6999999881,film,1100,O,z,z,None,645,430.0,215.0,56,1,2279.399999976158,416384.3000000119,7097,rage,AF,B,412313,412313,410467,411581,410469,412747,412098,412098,412747,120
117,test,1,inc,1,z,Fri Apr 04 2025 13:30:09 GMT-0500 (Central Daylight Time),420579.8000000119,step,800,O,z,z,None,550,351.0,199.0,13,1,1896.300000011921,418683.5,7097,kind,AF,B,414297,414297,412767,413581,412768,414663,414097,414097,414663,121
118,test,1,con,1,z,Fri Apr 04 2025 13:30:09 GMT-0500 (Central Daylight Time),422746.0,hate,1000,O,z,z,None,601,386.0,215.0,43,1,2147.0,420599.0,7097,hate,AF,B,416430,416430,414682,415696,414683,416829,416214,416214,416829,122
119,test,1,con,1,m,Fri Apr 04 2025 13:30:09 GMT-0500 (Central Daylight Time),424945.09999996424,rock,1000,O,m,m,None,635,436.0,199.0,75,1,2178.599999964237,422766.5,7097,rock,AF,B,418579,418579,416850,417862,416851,419028,418379,418379,419028,123
120,test,1,inc,1,z,Fri Apr 04 2025 13:30:09 GMT-0500 (Central Daylight Time),427227.6999999881,window,1100,O,z,z,None,616,417.0,199.0,8,1,2263.5,424964.1999999881,7097,elated,AF,B,420878,420878,419047,420162,419049,421311,420678,420678,421311,124
121,test,1,inc,1,m,Fri Apr 04 2025 13:30:09 GMT-0500 (Central Daylight Time),429360.1999999881,love,1000,O,m,m,None,577,378.0,199.0,71,1,2113.399999976158,427246.8000000119,7097,step,AF,B,423061,423061,421330,422345,421331,423443,422861,422861,423443,125
122,test,1,inc,1,m,Fri Apr 04 2025 13:30:09 GMT-0500 (Central Daylight Time),431293.09999996424,rage,800,O,m,m,None,581,366.0,215.0,85,1,1913.3999999761581,429379.6999999881,7097,bell,AF,B,425010,425010,423463,424277,423464,425376,424794,424794,425376,126
123,test,1,inc,1,m,Fri Apr 04 2025 13:30:09 GMT-0500 (Central Daylight Time),433642.09999996424,rage,800,O,m,m,None,983,768.0,215.0,93,1,2329.699999988079,431312.39999997616,7097,film,AF,B,426943,426943,425395,426210,425397,427725,426727,426727,427725,127
124,test,1,inc,1,m,Fri Apr 04 2025 13:30:09 GMT-0500 (Central Daylight Time),435908.6999999881,friend,1100,O,m,m,None,614,399.0,215.0,128,1,2247.399999976158,433661.3000000119,7097,window,AF,B,429592,429592,427744,428859,427746,429992,429376,429376,429992,128
