acc_sum,block,block_c,condition,correct,correct_response,datetime,endtime,flanker,jitter,project,response,response_test_buffer_response,response_test_target_response,response_time,response_time_test_buffer_response,response_time_test_target_response,row_sel,session_number,start_end,starttime,subject_id,target,task,task_vers,time_test_buffer,time_test_buffer_response,time_test_constants,time_test_flanker,time_test_jitter,time_test_logger,time_test_target,time_test_target_response,time_test_variables,trial
0,prac,1,con,0,m,Thu Apr 17 2025 16:23:20 GMT-0500 (Central Daylight Time),156371.0,zinc,1000,I,None,,,1814,,,15,1,5078.900000035763,151292.09999996424,7130,zinc,NF,C,,,,,,,,,,1
0,prac,1,inc,0,z,Thu Apr 17 2025 16:23:20 GMT-0500 (Central Daylight Time),161552.39999997616,cobalt,1100,I,None,,,1799,,,4,1,5159.100000023842,156393.29999995232,7130,raisin,NF,C,,,,,,,,,,2
0,prac,1,inc,0,z,Thu Apr 17 2025 16:23:20 GMT-0500 (Central Daylight Time),166550.5,copper,900,I,None,,,1799,,,2,1,4973.300000011921,161577.19999998808,7130,cherry,NF,C,,,,,,,,,,3
1,prac,1,con,1,m,Thu Apr 17 2025 16:23:20 GMT-0500 (Central Daylight Time),169533.09999996424,silver,1000,I,m,,,653,,,11,1,2957.800000011921,166575.29999995232,7130,silver,NF,C,,,,,,,,,,4
2,prac,1,inc,1,m,Thu Apr 17 2025 16:23:20 GMT-0500 (Central Daylight Time),172648.69999998808,raisin,1100,I,m,,,697,,,12,1,3092.400000035763,169556.29999995232,7130,cobalt,NF,C,,,,,,,,,,5
3,prac,1,con,1,z,Thu Apr 17 2025 16:23:20 GMT-0500 (Central Daylight Time),175880.79999995232,orange,1000,I,z,,,914,,,3,1,3206.199999988079,172674.59999996424,7130,orange,NF,C,,,,,,,,,,6
4,prac,1,con,1,z,Thu Apr 17 2025 16:23:20 GMT-0500 (Central Daylight Time),178913.29999995232,kiwi,1000,I,z,,,707,,,7,1,3008.599999964237,175904.69999998808,7130,kiwi,NF,C,,,,,,,,,,7
4,prac,1,inc,0,m,Thu Apr 17 2025 16:23:20 GMT-0500 (Central Daylight Time),181895.69999998808,plum,1100,I,z,,,567,,,16,1,2969.100000023842,178926.59999996424,7130,lead,NF,C,,,,,,,,,,8
5,prac,1,con,1,z,Thu Apr 17 2025 16:23:20 GMT-0500 (Central Daylight Time),184694.59999996424,lime,800,I,z,,,676,,,5,1,2777.899999976158,181916.69999998808,7130,lime,NF,C,,,,,,,,,,9
6,prac,1,con,1,m,Thu Apr 17 2025 16:23:20 GMT-0500 (Central Daylight Time),187027.19999998808,bronze,800,I,m,,,205,,,9,1,2308.199999988079,184719.0,7130,bronze,NF,C,,,,,,,,,,10
7,prac,1,inc,1,z,Thu Apr 17 2025 16:23:20 GMT-0500 (Central Daylight Time),190376.29999995232,lead,1100,I,z,,,914,,,8,1,3327.699999988079,187048.59999996424,7130,plum,NF,C,,,,,,,,,,11
8,prac,1,con,1,m,Thu Apr 17 2025 16:23:20 GMT-0500 (Central Daylight Time),192875.59999996424,gold,800,I,m,,,371,,,13,1,2474.800000011921,190400.79999995232,7130,gold,NF,C,,,,,,,,,,12
9,prac,1,inc,1,m,Thu Apr 17 2025 16:23:20 GMT-0500 (Central Daylight Time),196207.89999997616,pear,900,I,m,,,1099,,,14,1,3311.0,192896.89999997616,7130,iron,NF,C,,,,,,,,,,13
10,prac,1,inc,1,z,Thu Apr 17 2025 16:23:20 GMT-0500 (Central Daylight Time),199006.5,iron,900,I,z,,,576,,,6,1,2776.5,196230.0,7130,pear,NF,C,,,,,,,,,,14
11,prac,1,inc,1,m,Thu Apr 17 2025 16:23:20 GMT-0500 (Central Daylight Time),201855.79999995232,cherry,900,I,m,,,624,,,10,1,2825.899999976158,199029.89999997616,7130,copper,NF,C,,,,,,,,,,15
12,prac,1,con,1,z,Thu Apr 17 2025 16:23:20 GMT-0500 (Central Daylight Time),204654.79999995232,banana,800,I,z,,,668,,,1,1,2776.5,201878.29999995232,7130,banana,NF,C,,,,,,,,,,16
1,test,1,con,1,z,Thu Apr 17 2025 16:23:20 GMT-0500 (Central Daylight Time),226731.59999996424,lime,900,I,z,z,None,714,499.0,215.0,34,1,2145.800000011921,224585.79999995232,7130,lime,NF,C,221261,221261,219615,220528,219617,221761,221045,221045,221760,1
1,test,1,inc,0,m,Thu Apr 17 2025 16:23:20 GMT-0500 (Central Daylight Time),229363.59999996424,pear,900,I,z,z,None,1180,964.0,216.0,102,1,2608.699999988079,226754.89999997616,7130,gold,NF,C,223428,223428,221784,222694,221786,224393,223211,223211,224392,2
2,test,1,inc,1,z,Thu Apr 17 2025 16:23:20 GMT-0500 (Central Daylight Time),231412.79999995232,gold,800,I,z,z,None,688,489.0,199.0,37,1,2026.7999999523163,229386.0,7130,lime,NF,C,225943,225943,224415,225226,224417,226442,225743,225743,226442,3
3,test,1,con,1,z,Thu Apr 17 2025 16:23:20 GMT-0500 (Central Daylight Time),233578.39999997616,raisin,900,I,z,z,None,707,508.0,199.0,26,1,2142.300000011921,231436.09999996424,7130,raisin,NF,C,228092,228092,226465,227376,226467,228607,227892,227892,228607,4
4,test,1,inc,1,m,Thu Apr 17 2025 16:23:20 GMT-0500 (Central Daylight Time),235494.79999995232,cherry,900,I,m,m,None,454,254.0,200.0,70,1,1894.3999999761581,233600.39999997616,7130,bronze,NF,C,230258,230258,228629,229543,228631,230524,230057,230057,230524,5
5,test,1,inc,1,m,Thu Apr 17 2025 16:23:20 GMT-0500 (Central Daylight Time),237710.5,kiwi,1000,I,m,m,None,661,462.0,199.0,127,1,2194.2000000476837,235516.29999995232,7130,lead,NF,C,232274,232274,230545,231557,230547,232740,232074,232074,232740,6
6,test,1,con,1,z,Thu Apr 17 2025 16:23:20 GMT-0500 (Central Daylight Time),239959.89999997616,raisin,1000,I,z,z,None,684,470.0,214.0,27,1,2227.0,237732.89999997616,7130,raisin,NF,C,234506,234506,232762,233773,232764,234989,234291,234291,234989,7
7,test,1,con,1,m,Thu Apr 17 2025 16:23:20 GMT-0500 (Central Daylight Time),242208.89999997616,bronze,1100,I,m,m,None,592,393.0,199.0,68,1,2227.300000011921,239981.59999996424,7130,bronze,NF,C,236838,236839,235011,236123,235013,237238,236639,236639,237238,8
8,test,1,inc,1,z,Thu Apr 17 2025 16:23:20 GMT-0500 (Central Daylight Time),244425.39999997616,lead,1100,I,z,z,None,549,334.0,215.0,40,1,2194.0,242231.39999997616,7130,lime,NF,C,239105,239105,237260,238372,237262,239455,238889,238889,239454,9
9,test,1,inc,1,z,Thu Apr 17 2025 16:23:20 GMT-0500 (Central Daylight Time),247091.0,lead,1100,I,z,z,None,999,784.0,215.0,64,1,2642.900000035763,244448.09999996424,7130,plum,NF,C,241320,241320,239477,240588,239479,242120,241105,241105,242120,10
10,test,1,inc,1,m,Thu Apr 17 2025 16:23:20 GMT-0500 (Central Daylight Time),249339.79999995232,pear,900,I,m,m,None,796,581.0,215.0,118,1,2226.199999988079,247113.59999996424,7130,zinc,NF,C,243786,243787,242143,243054,242145,244369,243570,243571,244369,11
11,test,1,inc,1,z,Thu Apr 17 2025 16:23:20 GMT-0500 (Central Daylight Time),251472.79999995232,bronze,800,I,z,z,None,784,585.0,199.0,5,1,2120.199999988079,249352.59999996424,7130,banana,NF,C,245903,245903,244382,245186,244383,246502,245703,245703,246502,12
12,test,1,inc,1,z,Thu Apr 17 2025 16:23:20 GMT-0500 (Central Daylight Time),253988.29999995232,lead,1100,I,z,z,None,863,664.0,199.0,48,1,2494.699999988079,251493.59999996424,7130,pear,NF,C,248352,248352,246523,247636,246524,249017,248152,248152,249017,13
13,test,1,con,1,m,Thu Apr 17 2025 16:23:20 GMT-0500 (Central Daylight Time),256221.09999996424,gold,1000,I,m,m,None,671,472.0,199.0,99,1,2211.199999988079,254009.89999997616,7130,gold,NF,C,250768,250768,249039,250051,249041,251250,250568,250568,251250,14
14,test,1,con,1,m,Thu Apr 17 2025 16:23:20 GMT-0500 (Central Daylight Time),258403.69999998808,gold,1100,I,m,m,None,523,324.0,199.0,100,1,2159.400000035763,256244.29999995232,7130,gold,NF,C,253100,253100,251273,252384,251275,253433,252901,252901,253433,15
15,test,1,con,1,m,Thu Apr 17 2025 16:23:20 GMT-0500 (Central Daylight Time),260586.69999998808,zinc,1000,I,m,m,None,616,417.0,199.0,115,1,2160.800000011921,258425.89999997616,7130,zinc,NF,C,255183,255183,253455,254467,253457,255616,254983,254983,255616,16
16,test,1,inc,1,z,Thu Apr 17 2025 16:23:20 GMT-0500 (Central Daylight Time),262819.09999996424,lead,1100,I,z,z,None,573,374.0,199.0,56,1,2211.199999988079,260607.89999997616,7130,kiwi,NF,C,257466,257466,255637,256749,255639,257848,257266,257266,257848,17
17,test,1,inc,1,m,Thu Apr 17 2025 16:23:20 GMT-0500 (Central Daylight Time),265018.2999999523,kiwi,1000,I,m,m,None,632,417.0,215.0,111,1,2177.199999988079,262841.09999996424,7130,iron,NF,C,259615,259615,257870,258882,257872,260047,259399,259399,260047,18
18,test,1,inc,1,m,Thu Apr 17 2025 16:23:20 GMT-0500 (Central Daylight Time),267283.5,raisin,1100,I,m,m,None,606,406.0,200.0,88,1,2242.7000000476837,265040.7999999523,7130,silver,NF,C,261896,261896,260070,261180,260072,262313,261696,261696,262313,19
19,test,1,con,1,m,Thu Apr 17 2025 16:23:20 GMT-0500 (Central Daylight Time),269433.5,copper,1100,I,m,m,None,509,310.0,199.0,76,1,2144.100000023842,267289.39999997616,7130,copper,NF,C,264146,264146,262318,263430,262319,264463,263947,263947,264463,20
20,test,1,inc,1,z,Thu Apr 17 2025 16:23:20 GMT-0500 (Central Daylight Time),271416.5,zinc,1000,I,z,z,None,417,203.0,214.0,47,1,1960.4000000357628,269456.09999996424,7130,pear,NF,C,266229,266229,264485,265496,264487,266446,266013,266014,266446,21
21,test,1,con,1,z,Thu Apr 17 2025 16:23:20 GMT-0500 (Central Daylight Time),273648.89999997616,kiwi,900,I,z,z,None,775,560.0,215.0,50,1,2205.5,271443.39999997616,7130,kiwi,NF,C,268112,268112,266472,267379,266474,268678,267896,267896,268678,22
22,test,1,con,1,m,Thu Apr 17 2025 16:23:20 GMT-0500 (Central Daylight Time),275564.59999996424,copper,800,I,m,m,None,563,364.0,199.0,73,1,1894.199999988079,273670.39999997616,7130,copper,NF,C,270228,270228,268699,269512,268701,270594,270028,270028,270594,23
23,test,1,con,1,m,Thu Apr 17 2025 16:23:20 GMT-0500 (Central Daylight Time),277463.59999996424,copper,900,I,m,m,None,434,235.0,199.0,74,1,1877.5,275586.09999996424,7130,copper,NF,C,272244,272244,270615,271528,270617,272493,272044,272044,272493,24
24,test,1,con,1,z,Thu Apr 17 2025 16:23:20 GMT-0500 (Central Daylight Time),279413.09999996424,banana,800,I,z,z,None,612,413.0,199.0,1,1,1940.300000011921,277472.7999999523,7130,banana,NF,C,274027,274027,272502,273310,272503,274442,273827,273827,274442,25
25,test,1,con,1,z,Thu Apr 17 2025 16:23:20 GMT-0500 (Central Daylight Time),281329.59999996424,plum,800,I,z,z,None,550,351.0,199.0,57,1,1897.0,279432.59999996424,7130,plum,NF,C,275993,275993,274462,275276,274462,276359,275793,275793,276359,26
26,test,1,con,1,m,Thu Apr 17 2025 16:23:20 GMT-0500 (Central Daylight Time),283379.6999999881,silver,900,I,m,m,None,598,399.0,199.0,82,1,2029.699999988079,281350.0,7130,silver,NF,C,278009,278009,276379,277293,276380,278409,277809,277809,278409,27
27,test,1,inc,1,z,Thu Apr 17 2025 16:23:20 GMT-0500 (Central Daylight Time),285661.2999999523,cobalt,1100,I,z,z,None,628,414.0,214.0,32,1,2261.199999988079,283400.09999996424,7130,raisin,NF,C,280274,280274,278429,279542,278431,280690,280059,280059,280690,28
27,test,1,con,0,z,Thu Apr 17 2025 16:23:20 GMT-0500 (Central Daylight Time),287744.1999999881,kiwi,1000,I,m,m,None,526,327.0,199.0,51,1,2062.699999988079,285681.5,7130,kiwi,NF,C,282441,282441,280711,281724,280712,282773,282241,282241,282773,29
28,test,1,con,1,z,Thu Apr 17 2025 16:23:20 GMT-0500 (Central Daylight Time),290109.6999999881,pear,900,I,z,z,None,911,696.0,215.0,42,1,2344.100000023842,287765.59999996424,7130,pear,NF,C,284440,284440,282795,283707,282796,285139,284224,284224,285139,30
29,test,1,con,1,z,Thu Apr 17 2025 16:23:20 GMT-0500 (Central Daylight Time),292142.6999999881,cherry,1000,I,z,z,None,469,253.0,216.0,11,1,2012.4000000357628,290130.2999999523,7130,cherry,NF,C,286907,286907,285159,286174,285161,287172,286690,286690,287172,31
30,test,1,inc,1,z,Thu Apr 17 2025 16:23:20 GMT-0500 (Central Daylight Time),294392.09999996424,zinc,1000,I,z,z,None,693,494.0,199.0,39,1,2228.199999988079,292163.89999997616,7130,lime,NF,C,288921,288922,287193,288206,287195,289421,288722,288722,289421,32
31,test,1,inc,1,m,Thu Apr 17 2025 16:23:20 GMT-0500 (Central Daylight Time),296457.89999997616,lime,800,I,m,m,None,707,492.0,215.0,125,1,2043.5,294414.39999997616,7130,lead,NF,C,290988,290988,289443,290254,289445,291487,290772,290772,291487,33
32,test,1,inc,1,z,Thu Apr 17 2025 16:23:20 GMT-0500 (Central Daylight Time),298607.2999999523,copper,900,I,z,z,None,693,478.0,215.0,6,1,2127.7999999523163,296479.5,7130,banana,NF,C,293154,293154,291509,292421,291510,293636,292938,292938,293636,34
33,test,1,inc,1,m,Thu Apr 17 2025 16:23:20 GMT-0500 (Central Daylight Time),300873.2999999523,kiwi,1000,I,m,m,None,699,500.0,199.0,119,1,2245.899999976158,298627.39999997616,7130,zinc,NF,C,295387,295387,293656,294670,293659,295902,295187,295187,295902,35
34,test,1,inc,1,z,Thu Apr 17 2025 16:23:20 GMT-0500 (Central Daylight Time),303205.59999996424,iron,900,I,z,z,None,878,663.0,215.0,38,1,2311.5,300894.09999996424,7130,lime,NF,C,297569,297569,295923,296836,295925,298235,297353,297353,298235,36
35,test,1,inc,1,z,Thu Apr 17 2025 16:23:20 GMT-0500 (Central Daylight Time),305321.7999999523,iron,900,I,z,z,None,648,433.0,215.0,54,1,2097.7999999523163,303224.0,7130,kiwi,NF,C,299902,299902,298253,299169,298254,300351,299686,299686,300351,37
36,test,1,inc,1,z,Thu Apr 17 2025 16:23:20 GMT-0500 (Central Daylight Time),307671.09999996424,copper,900,I,z,z,None,885,686.0,199.0,14,1,2328.300000011921,305342.7999999523,7130,cherry,NF,C,302001,302001,300372,301284,300374,302700,301801,301801,302700,38
37,test,1,con,1,z,Thu Apr 17 2025 16:23:20 GMT-0500 (Central Daylight Time),309920.1999999881,banana,1100,I,z,z,None,585,386.0,199.0,4,1,2228.300000011921,307691.89999997616,7130,banana,NF,C,304550,304550,302721,303834,302722,304949,304350,304350,304949,39
38,test,1,con,1,z,Thu Apr 17 2025 16:23:20 GMT-0500 (Central Daylight Time),312085.89999997616,orange,900,I,z,z,None,705,505.0,200.0,18,1,2144.600000023842,309941.2999999523,7130,orange,NF,C,306599,306599,304970,305882,304971,307115,306398,306398,307115,40
39,test,1,con,1,z,Thu Apr 17 2025 16:23:20 GMT-0500 (Central Daylight Time),314318.89999997616,pear,1100,I,z,z,None,569,354.0,215.0,44,1,2212.5,312106.39999997616,7130,pear,NF,C,308982,308982,307135,308249,307137,309348,308766,308766,309348,41
40,test,1,inc,1,z,Thu Apr 17 2025 16:23:20 GMT-0500 (Central Daylight Time),316617.89999997616,silver,1000,I,z,z,None,732,533.0,199.0,23,1,2278.199999988079,314339.6999999881,7130,orange,NF,C,311098,311098,309369,310382,309371,311647,310898,310898,311647,42
41,test,1,inc,1,m,Thu Apr 17 2025 16:23:20 GMT-0500 (Central Daylight Time),318850.59999996424,plum,1100,I,m,m,None,573,358.0,215.0,120,1,2211.399999976158,316639.1999999881,7130,zinc,NF,C,313514,313514,311668,312781,311670,313880,313298,313298,313880,43
42,test,1,inc,1,z,Thu Apr 17 2025 16:23:20 GMT-0500 (Central Daylight Time),321033.0,silver,1000,I,z,z,None,625,426.0,199.0,7,1,2160.900000035763,318872.09999996424,7130,banana,NF,C,315630,315630,313901,314913,313903,316062,315430,315430,316062,44
43,test,1,con,1,z,Thu Apr 17 2025 16:23:20 GMT-0500 (Central Daylight Time),323399.39999997616,plum,1100,I,z,z,None,711,511.0,200.0,60,1,2344.300000011921,321055.09999996424,7130,plum,NF,C,317912,317913,316084,317196,316086,318429,317712,317712,318428,45
44,test,1,con,1,z,Thu Apr 17 2025 16:23:20 GMT-0500 (Central Daylight Time),325381.6999999881,kiwi,800,I,z,z,None,628,413.0,215.0,49,1,1961.300000011921,323420.39999997616,7130,kiwi,NF,C,319995,319995,318449,319262,318452,320411,319779,319779,320411,46
45,test,1,con,1,z,Thu Apr 17 2025 16:23:20 GMT-0500 (Central Daylight Time),327631.09999996424,kiwi,1100,I,z,z,None,594,395.0,199.0,52,1,2225.0,325406.09999996424,7130,kiwi,NF,C,322261,322261,320435,321544,320437,322660,322061,322061,322660,47
46,test,1,inc,1,m,Thu Apr 17 2025 16:23:20 GMT-0500 (Central Daylight Time),329713.7999999523,lime,800,I,m,m,None,716,517.0,199.0,109,1,2061.7999999523163,327652.0,7130,iron,NF,C,324210,324210,322681,323494,322683,324743,324010,324010,324743,48
47,test,1,con,1,m,Thu Apr 17 2025 16:23:20 GMT-0500 (Central Daylight Time),331629.7999999523,gold,800,I,m,m,None,562,363.0,199.0,97,1,1896.0,329733.7999999523,7130,gold,NF,C,326293,326293,324763,325577,324765,326659,326093,326093,326659,49
48,test,1,con,1,z,Thu Apr 17 2025 16:23:20 GMT-0500 (Central Daylight Time),333862.2999999523,lime,1000,I,z,z,None,670,471.0,199.0,35,1,2212.7999999523163,331649.5,7130,lime,NF,C,328409,328409,326679,327693,326680,328892,328209,328209,328891,50
49,test,1,con,1,z,Thu Apr 17 2025 16:23:20 GMT-0500 (Central Daylight Time),336444.6999999881,orange,1100,I,z,z,None,930,731.0,199.0,20,1,2561.900000035763,333882.7999999523,7130,orange,NF,C,330741,330741,328912,330025,328914,331474,330542,330542,331474,51
50,test,1,inc,1,m,Thu Apr 17 2025 16:23:20 GMT-0500 (Central Daylight Time),338494.0,lime,800,I,m,m,None,696,497.0,199.0,117,1,2030.9000000357628,336463.09999996424,7130,zinc,NF,C,333023,333023,331492,332308,331493,333523,332824,332824,333523,52
51,test,1,inc,1,z,Thu Apr 17 2025 16:23:20 GMT-0500 (Central Daylight Time),340610.2999999523,bronze,800,I,z,z,None,748,533.0,215.0,29,1,2095.699999988079,338514.59999996424,7130,raisin,NF,C,335090,335090,333544,334357,333545,335639,334874,334874,335639,53
52,test,1,con,1,m,Thu Apr 17 2025 16:23:20 GMT-0500 (Central Daylight Time),342759.39999997616,zinc,900,I,m,m,None,685,486.0,199.0,114,1,2128.699999988079,340630.6999999881,7130,zinc,NF,C,337290,337290,335660,336573,335660,337788,337090,337090,337788,54
53,test,1,con,1,z,Thu Apr 17 2025 16:23:20 GMT-0500 (Central Daylight Time),345158.59999996424,lime,1100,I,z,z,None,744,545.0,199.0,36,1,2378.0,342780.59999996424,7130,lime,NF,C,339639,339639,337810,338922,337811,340188,339439,339439,340188,55
54,test,1,inc,1,m,Thu Apr 17 2025 16:23:20 GMT-0500 (Central Daylight Time),347274.5,kiwi,1000,I,m,m,None,557,358.0,199.0,103,1,2093.7000000476837,345180.7999999523,7130,gold,NF,C,341938,341938,340210,341221,340212,342304,341738,341738,342304,56
55,test,1,con,1,m,Thu Apr 17 2025 16:23:20 GMT-0500 (Central Daylight Time),349557.09999996424,bronze,1000,I,m,m,None,721,522.0,199.0,67,1,2264.0,347293.09999996424,7130,bronze,NF,C,344054,344054,342322,343337,342323,344586,343854,343854,344586,57
56,test,1,inc,1,m,Thu Apr 17 2025 16:23:20 GMT-0500 (Central Daylight Time),351756.2999999523,pear,900,I,m,m,None,746,531.0,215.0,126,1,2178.199999988079,349578.09999996424,7130,lead,NF,C,346253,346253,344607,345520,344609,346785,346037,346037,346785,58
57,test,1,con,1,m,Thu Apr 17 2025 16:23:20 GMT-0500 (Central Daylight Time),353655.39999997616,zinc,800,I,m,m,None,542,343.0,199.0,113,1,1878.6000000238419,351776.7999999523,7130,zinc,NF,C,348336,348336,346806,347619,346808,348684,348136,348136,348684,59
58,test,1,inc,1,z,Thu Apr 17 2025 16:23:20 GMT-0500 (Central Daylight Time),355571.0,bronze,800,I,z,z,None,579,380.0,199.0,21,1,1904.300000011921,353666.6999999881,7130,orange,NF,C,350218,350218,348696,349503,348697,350600,350019,350019,350600,60
59,test,1,inc,1,z,Thu Apr 17 2025 16:23:20 GMT-0500 (Central Daylight Time),357771.5,gold,800,I,z,z,None,848,649.0,199.0,53,1,2194.900000035763,355576.59999996424,7130,kiwi,NF,C,352134,352135,350606,351418,350606,352801,351935,351935,352800,61
60,test,1,con,1,m,Thu Apr 17 2025 16:23:20 GMT-0500 (Central Daylight Time),360053.7999999523,iron,1100,I,m,m,None,621,421.0,200.0,108,1,2262.5,357791.2999999523,7130,iron,NF,C,354651,354651,352820,353934,352821,355083,354451,354451,355083,62
61,test,1,con,1,m,Thu Apr 17 2025 16:23:20 GMT-0500 (Central Daylight Time),362303.39999997616,cobalt,1000,I,m,m,None,694,495.0,199.0,91,1,2229.800000011921,360073.59999996424,7130,cobalt,NF,C,356832,356833,355103,356117,355103,357332,356633,356633,357332,63
61,test,1,con,0,z,Thu Apr 17 2025 16:23:20 GMT-0500 (Central Daylight Time),364585.6999999881,orange,1000,I,m,m,None,715,500.0,215.0,19,1,2262.600000023842,362323.09999996424,7130,orange,NF,C,359099,359099,357352,358366,357354,359615,358883,358883,359615,64
62,test,1,inc,1,z,Thu Apr 17 2025 16:23:20 GMT-0500 (Central Daylight Time),367134.7999999523,cobalt,1100,I,z,z,None,894,695.0,199.0,8,1,2528.2999999523163,364606.5,7130,banana,NF,C,361464,361465,359635,360748,359637,362164,361265,361265,362164,65
63,test,1,con,1,m,Thu Apr 17 2025 16:23:20 GMT-0500 (Central Daylight Time),369268.09999996424,cobalt,800,I,m,m,None,780,566.0,214.0,89,1,2114.300000011921,367153.7999999523,7130,cobalt,NF,C,363730,363730,362183,362998,362184,364297,363514,363515,364297,66
64,test,1,inc,1,z,Thu Apr 17 2025 16:23:20 GMT-0500 (Central Daylight Time),371533.09999996424,copper,900,I,z,z,None,812,613.0,199.0,22,1,2242.800000011921,369290.2999999523,7130,orange,NF,C,365946,365947,364319,365230,364321,366562,365747,365747,366562,67
65,test,1,inc,1,m,Thu Apr 17 2025 16:23:20 GMT-0500 (Central Daylight Time),374149.1999999881,plum,1100,I,m,m,None,954,755.0,199.0,104,1,2595.800000011921,371553.39999997616,7130,gold,NF,C,368413,368413,366582,367696,366584,369178,368213,368213,369178,68
66,test,1,con,1,m,Thu Apr 17 2025 16:23:20 GMT-0500 (Central Daylight Time),376415.0,copper,1000,I,m,m,None,703,504.0,199.0,75,1,2245.5,374169.5,7130,copper,NF,C,370928,370928,369198,370212,369200,371444,370729,370729,371444,69
67,test,1,con,1,z,Thu Apr 17 2025 16:23:20 GMT-0500 (Central Daylight Time),379097.5,cherry,1100,I,z,z,None,1016,817.0,199.0,12,1,2660.0,376437.5,7130,cherry,NF,C,373294,373294,371467,372578,371468,374127,373094,373094,374126,70
68,test,1,inc,1,m,Thu Apr 17 2025 16:23:20 GMT-0500 (Central Daylight Time),381213.5,banana,800,I,m,m,None,753,539.0,214.0,85,1,2095.900000035763,379117.59999996424,7130,silver,NF,C,375693,375693,374147,374961,374148,376243,375477,375478,376242,71
69,test,1,con,1,z,Thu Apr 17 2025 16:23:20 GMT-0500 (Central Daylight Time),383479.1999999881,banana,900,I,z,z,None,801,602.0,199.0,2,1,2245.900000035763,381233.2999999523,7130,banana,NF,C,377892,377893,376262,377176,376264,378508,377693,377693,378508,72
70,test,1,inc,1,z,Thu Apr 17 2025 16:23:20 GMT-0500 (Central Daylight Time),385478.6999999881,gold,800,I,z,z,None,644,445.0,199.0,61,1,1977.699999988079,383501.0,7130,plum,NF,C,380059,380059,378530,379342,378531,380508,379859,379859,380508,73
71,test,1,con,1,z,Thu Apr 17 2025 16:23:20 GMT-0500 (Central Daylight Time),387811.7999999523,raisin,1100,I,z,z,None,681,482.0,199.0,28,1,2310.899999976158,385500.89999997616,7130,raisin,NF,C,382358,382358,380530,381642,380531,382841,382158,382158,382841,74
72,test,1,con,1,z,Thu Apr 17 2025 16:23:20 GMT-0500 (Central Daylight Time),389877.0,plum,900,I,z,z,None,612,413.0,199.0,58,1,2045.4000000357628,387831.59999996424,7130,plum,NF,C,384491,384491,382861,383774,382862,384906,384291,384291,384906,75
73,test,1,inc,1,m,Thu Apr 17 2025 16:23:20 GMT-0500 (Central Daylight Time),392210.2999999523,plum,1100,I,m,m,None,666,467.0,199.0,128,1,2313.099999964237,389897.1999999881,7130,lead,NF,C,386757,386757,384926,386040,384928,387239,386557,386557,387239,76
74,test,1,con,1,m,Thu Apr 17 2025 16:23:20 GMT-0500 (Central Daylight Time),394275.89999997616,gold,900,I,m,m,None,606,407.0,199.0,98,1,2045.0,392230.89999997616,7130,gold,NF,C,388889,388889,387260,388173,387261,389305,388689,388689,389305,77
75,test,1,con,1,m,Thu Apr 17 2025 16:23:20 GMT-0500 (Central Daylight Time),396475.1999999881,lead,1100,I,m,m,None,539,324.0,215.0,124,1,2178.400000035763,394296.7999999523,7130,lead,NF,C,391172,391172,389326,390439,389327,391504,390956,390956,391504,78
76,test,1,con,1,m,Thu Apr 17 2025 16:23:20 GMT-0500 (Central Daylight Time),398391.1999999881,lead,800,I,m,m,None,561,361.0,200.0,121,1,1897.300000011921,396493.89999997616,7130,lead,NF,C,393054,393055,391523,392339,391524,393420,392854,392854,393420,79
77,test,1,inc,1,m,Thu Apr 17 2025 16:23:20 GMT-0500 (Central Daylight Time),400707.2999999523,raisin,1100,I,m,m,None,656,441.0,215.0,72,1,2296.199999988079,398411.09999996424,7130,bronze,NF,C,395287,395287,393440,394554,393441,395736,395071,395071,395736,80
78,test,1,inc,1,m,Thu Apr 17 2025 16:23:20 GMT-0500 (Central Daylight Time),402789.59999996424,cherry,900,I,m,m,None,628,413.0,215.0,86,1,2061.0,400728.59999996424,7130,silver,NF,C,397403,397403,395758,396670,395759,397819,397187,397187,397819,81
79,test,1,con,1,m,Thu Apr 17 2025 16:23:20 GMT-0500 (Central Daylight Time),405022.59999996424,lead,1000,I,m,m,None,677,463.0,214.0,123,1,2212.800000011921,402809.7999999523,7130,lead,NF,C,399585,399585,397839,398852,397841,400052,399370,399370,400052,82
80,test,1,inc,1,z,Thu Apr 17 2025 16:23:20 GMT-0500 (Central Daylight Time),407421.6999999881,cobalt,1100,I,z,z,None,745,529.0,216.0,24,1,2379.900000035763,405041.7999999523,7130,orange,NF,C,401919,401919,400071,401185,400072,402451,401702,401702,402451,83
81,test,1,inc,1,z,Thu Apr 17 2025 16:23:20 GMT-0500 (Central Daylight Time),409404.09999996424,iron,900,I,z,z,None,530,331.0,199.0,62,1,1961.800000011921,407442.2999999523,7130,plum,NF,C,404101,404101,402471,403384,402473,404433,403901,403901,404433,84
82,test,1,con,1,m,Thu Apr 17 2025 16:23:20 GMT-0500 (Central Daylight Time),411870.09999996424,iron,1000,I,m,m,None,903,688.0,215.0,107,1,2446.899999976158,409423.1999999881,7130,iron,NF,C,406200,406200,404452,405467,404453,406899,405983,405984,406899,85
83,test,1,inc,1,m,Thu Apr 17 2025 16:23:20 GMT-0500 (Central Daylight Time),414052.6999999881,cherry,900,I,m,m,None,721,506.0,215.0,78,1,2162.600000023842,411890.09999996424,7130,copper,NF,C,408566,408566,406919,407833,406921,409082,408350,408350,409082,86
84,test,1,inc,1,z,Thu Apr 17 2025 16:23:20 GMT-0500 (Central Daylight Time),416568.6999999881,silver,1000,I,z,z,None,952,737.0,215.0,15,1,2495.600000023842,414073.09999996424,7130,cherry,NF,C,410847,410847,409102,410116,409104,411598,410632,410632,411598,87
85,test,1,inc,1,z,Thu Apr 17 2025 16:23:20 GMT-0500 (Central Daylight Time),418518.09999996424,bronze,800,I,z,z,None,587,388.0,199.0,13,1,1929.3999999761581,416588.6999999881,7130,cherry,NF,C,413147,413148,411618,412431,411619,413547,412948,412948,413547,88
86,test,1,con,1,m,Thu Apr 17 2025 16:23:20 GMT-0500 (Central Daylight Time),420584.0,iron,800,I,m,m,None,710,511.0,199.0,105,1,2045.9000000357628,418538.09999996424,7130,iron,NF,C,415097,415097,413567,414381,413569,415613,414897,414897,415613,89
87,test,1,inc,1,m,Thu Apr 17 2025 16:23:20 GMT-0500 (Central Daylight Time),422716.59999996424,pear,900,I,m,m,None,671,456.0,215.0,110,1,2113.0,420603.59999996424,7130,iron,NF,C,417280,417280,415633,416547,415634,417746,417063,417064,417746,90
88,test,1,inc,1,z,Thu Apr 17 2025 16:23:20 GMT-0500 (Central Daylight Time),424865.89999997616,gold,800,I,z,z,None,787,588.0,199.0,45,1,2127.399999976158,422738.5,7130,pear,NF,C,419296,419296,417768,418580,417769,419895,419096,419096,419895,91
89,test,1,con,1,m,Thu Apr 17 2025 16:23:20 GMT-0500 (Central Daylight Time),427065.09999996424,iron,900,I,m,m,None,742,543.0,199.0,106,1,2177.599999964237,424887.5,7130,iron,NF,C,421545,421545,419917,420829,419918,422094,421345,421345,422094,92
90,test,1,inc,1,m,Thu Apr 17 2025 16:23:20 GMT-0500 (Central Daylight Time),429381.09999996424,orange,1000,I,m,m,None,755,556.0,199.0,95,1,2294.599999964237,427086.5,7130,cobalt,NF,C,423844,423844,422116,423128,422117,424410,423645,423645,424410,93
91,test,1,inc,1,m,Thu Apr 17 2025 16:23:20 GMT-0500 (Central Daylight Time),431630.2999999523,raisin,1100,I,m,m,None,587,388.0,199.0,96,1,2228.599999964237,429401.6999999881,7130,cobalt,NF,C,426260,426260,424431,425544,424432,426659,426060,426060,426659,94
92,test,1,inc,1,m,Thu Apr 17 2025 16:23:20 GMT-0500 (Central Daylight Time),433963.5,raisin,1100,I,m,m,None,681,466.0,215.0,80,1,2312.7000000476837,431650.7999999523,7130,copper,NF,C,428526,428526,426680,427793,426681,428993,428310,428310,428993,95
93,test,1,inc,1,m,Thu Apr 17 2025 16:23:20 GMT-0500 (Central Daylight Time),436028.59999996424,banana,800,I,m,m,None,713,514.0,199.0,69,1,2044.699999988079,433983.89999997616,7130,bronze,NF,C,430542,430542,429013,429826,429015,431058,430342,430342,431058,96
94,test,1,con,1,z,Thu Apr 17 2025 16:23:20 GMT-0500 (Central Daylight Time),437995.0,lime,800,I,z,z,None,599,400.0,199.0,33,1,1944.7000000476837,436050.2999999523,7130,lime,NF,C,432608,432608,431079,431892,431081,433024,432408,432408,433024,97
95,test,1,con,1,m,Thu Apr 17 2025 16:23:20 GMT-0500 (Central Daylight Time),440443.89999997616,zinc,1100,I,m,m,None,797,598.0,199.0,116,1,2431.199999988079,438012.6999999881,7130,zinc,NF,C,434874,434874,433042,434158,433042,435473,434674,434674,435473,98
96,test,1,con,1,z,Thu Apr 17 2025 16:23:20 GMT-0500 (Central Daylight Time),442759.89999997616,cherry,800,I,z,z,None,959,744.0,215.0,9,1,2295.100000023842,440464.7999999523,7130,cherry,NF,C,437040,437040,435494,436308,435496,437789,436824,436824,437789,99
97,test,1,con,1,m,Thu Apr 17 2025 16:23:20 GMT-0500 (Central Daylight Time),445092.0,cobalt,1100,I,m,m,None,680,481.0,199.0,92,1,2311.800000011921,442780.1999999881,7130,cobalt,NF,C,439639,439639,437809,438923,437810,440121,439439,439439,440121,100
98,test,1,con,1,z,Thu Apr 17 2025 16:23:20 GMT-0500 (Central Daylight Time),446992.0,cherry,900,I,z,z,None,452,253.0,199.0,10,1,1888.5,445103.5,7130,cherry,NF,C,441755,441755,440133,441039,440134,442021,441555,441555,442021,101
99,test,1,inc,1,m,Thu Apr 17 2025 16:23:20 GMT-0500 (Central Daylight Time),449357.7999999523,plum,1100,I,m,m,None,712,513.0,199.0,112,1,2346.0,447011.7999999523,7130,iron,NF,C,443871,443871,442041,443155,442042,444387,443671,443671,444387,102
100,test,1,con,1,m,Thu Apr 17 2025 16:23:20 GMT-0500 (Central Daylight Time),452106.6999999881,silver,1100,I,m,m,None,1082,883.0,199.0,84,1,2727.0,449379.6999999881,7130,silver,NF,C,446237,446237,444409,445520,444410,447136,446037,446037,447136,103
101,test,1,inc,1,z,Thu Apr 17 2025 16:23:20 GMT-0500 (Central Daylight Time),454222.7999999523,iron,900,I,z,z,None,661,462.0,199.0,46,1,2095.7999999523163,452127.0,7130,pear,NF,C,448786,448786,447156,448070,447158,449252,448586,448586,449252,104
102,test,1,inc,1,m,Thu Apr 17 2025 16:23:20 GMT-0500 (Central Daylight Time),456255.59999996424,lime,800,I,m,m,None,669,470.0,199.0,101,1,2013.5,454242.09999996424,7130,gold,NF,C,450802,450802,449271,450086,449272,451285,450602,450602,451285,105
103,test,1,inc,1,z,Thu Apr 17 2025 16:23:20 GMT-0500 (Central Daylight Time),458321.59999996424,copper,900,I,z,z,None,600,401.0,199.0,30,1,2044.5999999642372,456277.0,7130,raisin,NF,C,452935,452935,451306,452218,451307,453351,452735,452735,453351,106
104,test,1,con,1,m,Thu Apr 17 2025 16:23:20 GMT-0500 (Central Daylight Time),460254.2999999523,bronze,800,I,m,m,None,578,379.0,199.0,65,1,1912.0999999642372,458342.1999999881,7130,bronze,NF,C,454901,454901,453371,454185,453373,455283,454701,454701,455283,107
105,test,1,con,1,m,Thu Apr 17 2025 16:23:20 GMT-0500 (Central Daylight Time),462336.89999997616,cobalt,900,I,m,m,None,617,402.0,215.0,90,1,2064.699999988079,460272.1999999881,7130,cobalt,NF,C,456950,456950,455301,456217,455302,457366,456734,456734,457366,108
106,test,1,inc,1,m,Thu Apr 17 2025 16:23:20 GMT-0500 (Central Daylight Time),464569.39999997616,orange,1000,I,m,m,None,675,476.0,199.0,71,1,2210.800000011921,462358.59999996424,7130,bronze,NF,C,459116,459116,457388,458400,457389,459599,458916,458916,459598,109
107,test,1,inc,1,z,Thu Apr 17 2025 16:23:20 GMT-0500 (Central Daylight Time),466902.09999996424,zinc,1000,I,z,z,None,770,571.0,199.0,63,1,2310.399999976158,464591.6999999881,7130,plum,NF,C,461349,461349,459621,460632,459622,461931,461149,461149,461931,110
108,test,1,inc,1,m,Thu Apr 17 2025 16:23:20 GMT-0500 (Central Daylight Time),469051.2999999523,cherry,900,I,m,m,None,689,474.0,215.0,94,1,2127.5,466923.7999999523,7130,cobalt,NF,C,463598,463598,461953,462865,461955,464080,463382,463382,464080,111
109,test,1,con,1,z,Thu Apr 17 2025 16:23:20 GMT-0500 (Central Daylight Time),471133.89999997616,pear,800,I,z,z,None,729,530.0,199.0,41,1,2063.199999988079,469070.6999999881,7130,pear,NF,C,465630,465630,464100,464914,464101,466163,465431,465431,466163,112
110,test,1,con,1,z,Thu Apr 17 2025 16:23:20 GMT-0500 (Central Daylight Time),473366.5,banana,1000,I,z,z,None,670,455.0,215.0,3,1,2212.300000011921,471154.1999999881,7130,banana,NF,C,467929,467929,466183,467197,466185,468396,467714,467714,468396,113
111,test,1,inc,1,z,Thu Apr 17 2025 16:23:20 GMT-0500 (Central Daylight Time),475699.59999996424,cobalt,1100,I,z,z,None,665,466.0,199.0,16,1,2313.0,473386.59999996424,7130,cherry,NF,C,470246,470246,468416,469529,468417,470729,470046,470046,470729,114
112,test,1,con,1,m,Thu Apr 17 2025 16:23:20 GMT-0500 (Central Daylight Time),477815.1999999881,silver,800,I,m,m,None,760,545.0,215.0,81,1,2095.800000011921,475719.39999997616,7130,silver,NF,C,472295,472295,470748,471562,470750,472844,472079,472079,472844,115
113,test,1,con,1,z,Thu Apr 17 2025 16:23:20 GMT-0500 (Central Daylight Time),479931.59999996424,raisin,800,I,z,z,None,765,566.0,199.0,25,1,2095.599999964237,477836.0,7130,raisin,NF,C,474394,474394,472865,473678,472867,474961,474195,474195,474961,116
114,test,1,con,1,z,Thu Apr 17 2025 16:23:20 GMT-0500 (Central Daylight Time),482163.6999999881,orange,800,I,z,z,None,881,682.0,199.0,17,1,2212.600000023842,479951.09999996424,7130,orange,NF,C,476510,476510,474980,475795,474981,477193,476311,476311,477193,117
115,test,1,con,1,m,Thu Apr 17 2025 16:23:20 GMT-0500 (Central Daylight Time),484263.09999996424,bronze,900,I,m,m,None,636,437.0,199.0,66,1,2080.199999988079,482182.89999997616,7130,bronze,NF,C,478843,478843,477212,478126,477214,479292,478643,478643,479292,118
116,test,1,con,1,m,Thu Apr 17 2025 16:23:20 GMT-0500 (Central Daylight Time),486695.2999999523,silver,1000,I,m,m,None,875,675.0,200.0,83,1,2412.899999976158,484282.39999997616,7130,silver,NF,C,481043,481044,479311,480326,479313,481724,480843,480843,481724,119
117,test,1,con,1,m,Thu Apr 17 2025 16:23:20 GMT-0500 (Central Daylight Time),488844.7999999523,lead,900,I,m,m,None,706,506.0,200.0,122,1,2135.7999999523163,486709.0,7130,lead,NF,C,483358,483358,481738,482642,481739,483874,483158,483158,483874,120
118,test,1,inc,1,m,Thu Apr 17 2025 16:23:20 GMT-0500 (Central Daylight Time),491026.59999996424,banana,800,I,m,m,None,829,614.0,215.0,77,1,2162.300000011921,488864.2999999523,7130,copper,NF,C,485441,485441,483893,484708,483894,486056,485224,485225,486056,121
119,test,1,inc,1,m,Thu Apr 17 2025 16:23:20 GMT-0500 (Central Daylight Time),493010.09999996424,banana,800,I,m,m,None,633,434.0,199.0,93,1,1977.3999999761581,491032.6999999881,7130,cobalt,NF,C,487590,487590,486062,486874,486062,488039,487390,487390,488039,122
120,test,1,inc,1,m,Thu Apr 17 2025 16:23:20 GMT-0500 (Central Daylight Time),495292.59999996424,orange,1000,I,m,m,None,724,523.0,201.0,79,1,2262.699999988079,493029.89999997616,7130,copper,NF,C,489789,489789,488059,489071,488061,490322,489588,489588,490322,123
121,test,1,con,1,z,Thu Apr 17 2025 16:23:20 GMT-0500 (Central Daylight Time),497558.6999999881,plum,1000,I,z,z,None,711,512.0,199.0,59,1,2246.900000035763,495311.7999999523,7130,plum,NF,C,492071,492072,490341,491356,490342,492588,491872,491872,492588,124
122,test,1,inc,1,z,Thu Apr 17 2025 16:23:20 GMT-0500 (Central Daylight Time),499707.89999997616,zinc,1000,I,z,z,None,589,390.0,199.0,55,1,2129.5,497578.39999997616,7130,kiwi,NF,C,494338,494338,492607,493622,492609,494737,494138,494138,494737,125
123,test,1,inc,1,z,Thu Apr 17 2025 16:23:20 GMT-0500 (Central Daylight Time),501957.1999999881,silver,1000,I,z,z,None,688,489.0,199.0,31,1,2229.400000035763,499727.7999999523,7130,raisin,NF,C,496487,496487,494757,495771,494758,496986,496287,496287,496986,126
124,test,1,con,1,z,Thu Apr 17 2025 16:23:20 GMT-0500 (Central Daylight Time),504173.09999996424,pear,1000,I,z,z,None,655,456.0,199.0,43,1,2195.800000011921,501977.2999999523,7130,pear,NF,C,498736,498736,497006,498020,497008,499202,498537,498537,499202,127
125,test,1,inc,1,m,Thu Apr 17 2025 16:23:20 GMT-0500 (Central Daylight Time),506572.0,orange,1000,I,m,m,None,846,631.0,215.0,87,1,2379.5,504192.5,7130,silver,NF,C,500969,500969,499221,500236,499222,501601,500753,500753,501601,128
