acc_sum,block,block_c,condition,correct,correct_response,datetime,endtime,flanker,jitter,project,response,response_test_buffer_response,response_test_target_response,response_time,response_time_test_buffer_response,response_time_test_target_response,row_sel,session_number,start_end,starttime,subject_id,target,task,task_vers,time_test_buffer,time_test_buffer_response,time_test_constants,time_test_flanker,time_test_jitter,time_test_logger,time_test_target,time_test_target_response,time_test_variables,trial
0,prac,1,inc,0,m,Tue Jan 21 2025 17:38:12 GMT-0600 (Central Standard Time),224189.30000001192,raisin,1100,I,None,,,1799,,,12,1,5177.0,219012.30000001192,8018,cobalt,NF,C,,,,,,,,,,1
0,prac,1,con,0,m,Tue Jan 21 2025 17:38:12 GMT-0600 (Central Standard Time),229054.39999997616,bronze,800,I,None,,,1799,,,9,1,4860.0,224194.39999997616,8018,bronze,NF,C,,,,,,,,,,2
1,prac,1,con,1,z,Tue Jan 21 2025 17:38:12 GMT-0600 (Central Standard Time),231503.69999998808,orange,1000,I,z,,,141,,,3,1,2444.699999988079,229059.0,8018,orange,NF,C,,,,,,,,,,3
2,prac,1,con,1,m,Tue Jan 21 2025 17:38:12 GMT-0600 (Central Standard Time),233753.09999996424,gold,800,I,m,,,140,,,13,1,2244.899999976158,231508.19999998808,8018,gold,NF,C,,,,,,,,,,4
2,prac,1,inc,0,z,Tue Jan 21 2025 17:38:12 GMT-0600 (Central Standard Time),236435.39999997616,iron,900,I,m,,,471,,,6,1,2677.899999976158,233757.5,8018,pear,NF,C,,,,,,,,,,5
2,prac,1,inc,0,z,Tue Jan 21 2025 17:38:12 GMT-0600 (Central Standard Time),239101.30000001192,copper,900,I,m,,,460,,,2,1,2661.400000035763,236439.89999997616,8018,cherry,NF,C,,,,,,,,,,6
3,prac,1,con,1,z,Tue Jan 21 2025 17:38:12 GMT-0600 (Central Standard Time),241617.30000001192,banana,800,I,z,,,407,,,1,1,2511.7000000476837,239105.59999996424,8018,banana,NF,C,,,,,,,,,,7
3,prac,1,inc,0,z,Tue Jan 21 2025 17:38:12 GMT-0600 (Central Standard Time),244366.19999998808,cobalt,1100,I,m,,,343,,,4,1,2744.899999976158,241621.30000001192,8018,raisin,NF,C,,,,,,,,,,8
3,prac,1,con,0,m,Tue Jan 21 2025 17:38:12 GMT-0600 (Central Standard Time),249447.89999997616,silver,1000,I,None,,,1799,,,11,1,5077.0,244370.89999997616,8018,silver,NF,C,,,,,,,,,,9
4,prac,1,inc,1,z,Tue Jan 21 2025 17:38:12 GMT-0600 (Central Standard Time),252647.09999996424,lead,1100,I,z,,,792,,,8,1,3193.7999999523163,249453.30000001192,8018,plum,NF,C,,,,,,,,,,10
5,prac,1,con,1,m,Tue Jan 21 2025 17:38:12 GMT-0600 (Central Standard Time),255629.30000001192,zinc,1000,I,m,,,669,,,15,1,2977.5,252651.80000001192,8018,zinc,NF,C,,,,,,,,,,11
6,prac,1,con,1,z,Tue Jan 21 2025 17:38:12 GMT-0600 (Central Standard Time),258712.0,kiwi,1000,I,z,,,766,,,7,1,3078.5,255633.5,8018,kiwi,NF,C,,,,,,,,,,12
7,prac,1,con,1,z,Tue Jan 21 2025 17:38:12 GMT-0600 (Central Standard Time),261527.59999996424,lime,800,I,z,,,708,,,5,1,2811.399999976158,258716.19999998808,8018,lime,NF,C,,,,,,,,,,13
8,prac,1,inc,1,m,Tue Jan 21 2025 17:38:12 GMT-0600 (Central Standard Time),264609.89999997616,plum,1100,I,m,,,694,,,16,1,3078.099999964237,261531.80000001192,8018,lead,NF,C,,,,,,,,,,14
9,prac,1,inc,1,m,Tue Jan 21 2025 17:38:12 GMT-0600 (Central Standard Time),267543.59999996424,cherry,900,I,m,,,718,,,10,1,2929.2999999523163,264614.3000000119,8018,copper,NF,C,,,,,,,,,,15
10,prac,1,inc,1,m,Tue Jan 21 2025 17:38:12 GMT-0600 (Central Standard Time),270374.8000000119,pear,900,I,m,,,626,,,14,1,2827.0,267547.8000000119,8018,iron,NF,C,,,,,,,,,,16
0,prac,2,con,0,z,Tue Jan 21 2025 17:38:12 GMT-0600 (Central Standard Time),296516.6999999881,orange,1000,I,None,,,1799,,,3,1,5061.699999988079,291455.0,8018,orange,NF,C,,,,,,,,,,1
1,prac,2,con,1,m,Tue Jan 21 2025 17:38:12 GMT-0600 (Central Standard Time),299232.59999996424,bronze,800,I,m,,,607,,,9,1,2711.199999988079,296521.39999997616,8018,bronze,NF,C,,,,,,,,,,2
2,prac,2,inc,1,z,Tue Jan 21 2025 17:38:12 GMT-0600 (Central Standard Time),302298.0,lead,1100,I,z,,,654,,,8,1,3061.300000011921,299236.6999999881,8018,plum,NF,C,,,,,,,,,,3
3,prac,2,con,1,z,Tue Jan 21 2025 17:38:12 GMT-0600 (Central Standard Time),304947.1999999881,lime,800,I,z,,,546,,,5,1,2645.300000011921,302301.89999997616,8018,lime,NF,C,,,,,,,,,,4
4,prac,2,con,1,m,Tue Jan 21 2025 17:38:12 GMT-0600 (Central Standard Time),307513.1999999881,gold,800,I,m,,,456,,,13,1,2562.199999988079,304951.0,8018,gold,NF,C,,,,,,,,,,5
5,prac,2,con,1,z,Tue Jan 21 2025 17:38:12 GMT-0600 (Central Standard Time),310121.5,banana,800,I,z,,,515,,,1,1,2604.5,307517.0,8018,banana,NF,C,,,,,,,,,,6
6,prac,2,inc,1,m,Tue Jan 21 2025 17:38:12 GMT-0600 (Central Standard Time),313211.39999997616,raisin,1100,I,m,,,679,,,12,1,3085.099999964237,310126.3000000119,8018,cobalt,NF,C,,,,,,,,,,7
7,prac,2,inc,1,z,Tue Jan 21 2025 17:38:12 GMT-0600 (Central Standard Time),316227.0,cobalt,1100,I,z,,,613,,,4,1,3011.600000023842,313215.39999997616,8018,raisin,NF,C,,,,,,,,,,8
8,prac,2,inc,1,z,Tue Jan 21 2025 17:38:12 GMT-0600 (Central Standard Time),318976.39999997616,iron,900,I,z,,,549,,,6,1,2745.199999988079,316231.1999999881,8018,pear,NF,C,,,,,,,,,,9
9,prac,2,inc,1,z,Tue Jan 21 2025 17:38:12 GMT-0600 (Central Standard Time),321808.6999999881,copper,900,I,z,,,632,,,2,1,2827.699999988079,318981.0,8018,cherry,NF,C,,,,,,,,,,10
10,prac,2,inc,1,m,Tue Jan 21 2025 17:38:12 GMT-0600 (Central Standard Time),324807.6999999881,plum,1100,I,m,,,583,,,16,1,2995.100000023842,321812.59999996424,8018,lead,NF,C,,,,,,,,,,11
11,prac,2,inc,1,m,Tue Jan 21 2025 17:38:12 GMT-0600 (Central Standard Time),327640.39999997616,pear,900,I,m,,,624,,,14,1,2828.599999964237,324811.8000000119,8018,iron,NF,C,,,,,,,,,,12
12,prac,2,con,1,z,Tue Jan 21 2025 17:38:12 GMT-0600 (Central Standard Time),330472.59999996424,kiwi,1000,I,z,,,516,,,7,1,2828.2999999523163,327644.3000000119,8018,kiwi,NF,C,,,,,,,,,,13
13,prac,2,con,1,m,Tue Jan 21 2025 17:38:12 GMT-0600 (Central Standard Time),333288.59999996424,zinc,1000,I,m,,,499,,,15,1,2811.7999999523163,330476.8000000119,8018,zinc,NF,C,,,,,,,,,,14
14,prac,2,inc,1,m,Tue Jan 21 2025 17:38:12 GMT-0600 (Central Standard Time),336321.0,cherry,900,I,m,,,831,,,10,1,3028.699999988079,333292.3000000119,8018,copper,NF,C,,,,,,,,,,15
15,prac,2,con,1,m,Tue Jan 21 2025 17:38:12 GMT-0600 (Central Standard Time),339103.09999996424,silver,1000,I,m,,,467,,,11,1,2778.5,336324.59999996424,8018,silver,NF,C,,,,,,,,,,16
1,test,1,inc,1,m,Tue Jan 21 2025 17:38:12 GMT-0600 (Central Standard Time),374425.39999997616,orange,1000,I,m,m,None,524,325.0,199.0,79,1,2062.699999988079,372362.6999999881,8018,copper,NF,C,366433,366434,364704,365718,364705,366766,366234,366234,366766,1
2,test,1,inc,1,z,Tue Jan 21 2025 17:38:12 GMT-0600 (Central Standard Time),376591.5,silver,1000,I,z,z,None,626,411.0,215.0,15,1,2161.699999988079,374429.8000000119,8018,cherry,NF,C,368516,368516,366771,367784,366772,368933,368300,368301,368932,2
3,test,1,con,1,m,Tue Jan 21 2025 17:38:12 GMT-0600 (Central Standard Time),378674.09999996424,copper,1100,I,m,m,None,440,241.0,199.0,76,1,2077.699999988079,376596.39999997616,8018,copper,NF,C,370766,370766,368937,370050,368939,371015,370566,370566,371015,3
4,test,1,con,1,m,Tue Jan 21 2025 17:38:12 GMT-0600 (Central Standard Time),380763.59999996424,gold,1000,I,m,m,None,555,356.0,199.0,99,1,2085.099999964237,378678.5,8018,gold,NF,C,372748,372748,371020,372032,371021,373105,372549,372549,373105,4
5,test,1,con,1,m,Tue Jan 21 2025 17:38:12 GMT-0600 (Central Standard Time),382639.39999997616,silver,800,I,m,m,None,535,336.0,199.0,81,1,1871.3999999761581,380768.0,8018,silver,NF,C,374631,374631,373109,373915,373110,374980,374432,374432,374980,5
6,test,1,inc,1,z,Tue Jan 21 2025 17:38:12 GMT-0600 (Central Standard Time),384639.09999996424,copper,900,I,z,z,None,552,353.0,199.0,22,1,1995.5,382643.59999996424,8018,orange,NF,C,376614,376614,374985,375898,374986,376980,376414,376415,376980,6
7,test,1,con,1,z,Tue Jan 21 2025 17:38:12 GMT-0600 (Central Standard Time),386821.39999997616,cherry,1100,I,z,z,None,537,321.0,216.0,12,1,2178.399999976158,384643.0,8018,cherry,NF,C,378830,378830,376984,378097,376985,379163,378614,378614,379162,7
8,test,1,inc,1,z,Tue Jan 21 2025 17:38:12 GMT-0600 (Central Standard Time),388787.6999999881,bronze,800,I,z,z,None,630,431.0,199.0,21,1,1962.199999988079,386825.5,8018,orange,NF,C,380696,380696,379167,379980,379168,381129,380497,380497,381129,8
9,test,1,con,1,z,Tue Jan 21 2025 17:38:12 GMT-0600 (Central Standard Time),390637.09999996424,pear,800,I,z,z,None,504,305.0,199.0,41,1,1845.199999988079,388791.89999997616,8018,pear,NF,C,382662,382662,381133,381946,381134,382978,382463,382463,382978,9
10,test,1,inc,1,m,Tue Jan 21 2025 17:38:12 GMT-0600 (Central Standard Time),392786.39999997616,plum,1100,I,m,m,None,515,316.0,199.0,112,1,2145.599999964237,390640.8000000119,8018,iron,NF,C,384811,384811,382982,384095,382983,385127,384612,384612,385127,10
11,test,1,con,1,z,Tue Jan 21 2025 17:38:12 GMT-0600 (Central Standard Time),394935.8000000119,pear,1000,I,z,z,None,602,403.0,199.0,43,1,2145.7000000476837,392790.09999996424,8018,pear,NF,C,386860,386860,385131,386145,385133,387277,386661,386661,387277,11
11,test,1,con,0,z,Tue Jan 21 2025 17:38:12 GMT-0600 (Central Standard Time),396768.5,orange,800,I,m,m,None,492,293.0,199.0,17,1,1828.6000000238419,394939.89999997616,8018,orange,NF,C,388810,388810,387281,388094,387282,389110,388611,388611,389110,12
12,test,1,inc,1,m,Tue Jan 21 2025 17:38:12 GMT-0600 (Central Standard Time),399551.0,cherry,900,I,m,m,None,1343,1144.0,199.0,78,1,2778.800000011921,396772.1999999881,8018,copper,NF,C,390743,390743,389113,390027,389115,391892,390543,390543,391892,13
13,test,1,inc,1,m,Tue Jan 21 2025 17:38:12 GMT-0600 (Central Standard Time),401817.0,kiwi,1000,I,m,m,None,725,526.0,199.0,119,1,2262.0,399555.0,8018,zinc,NF,C,393625,393625,391896,392909,391897,394158,393426,393426,394158,14
14,test,1,inc,1,z,Tue Jan 21 2025 17:38:12 GMT-0600 (Central Standard Time),403650.39999997616,bronze,800,I,z,z,None,499,300.0,199.0,13,1,1829.3999999761581,401821.0,8018,cherry,NF,C,395691,395691,394162,394975,394163,395991,395492,395492,395991,15
15,test,1,con,1,z,Tue Jan 21 2025 17:38:12 GMT-0600 (Central Standard Time),405749.09999996424,banana,1100,I,z,z,None,454,239.0,215.0,4,1,2094.899999976158,403654.1999999881,8018,banana,NF,C,397840,397840,395995,397108,395997,398090,397625,397625,398090,16
16,test,1,con,1,m,Tue Jan 21 2025 17:38:12 GMT-0600 (Central Standard Time),407815.0,silver,1100,I,m,m,None,419,220.0,199.0,84,1,2062.0,405753.0,8018,silver,NF,C,399923,399923,398094,399207,398096,400156,399724,399724,400156,17
17,test,1,inc,1,m,Tue Jan 21 2025 17:38:12 GMT-0600 (Central Standard Time),410131.09999996424,plum,1100,I,m,m,None,673,474.0,199.0,128,1,2312.199999988079,407818.89999997616,8018,lead,NF,C,401989,401989,400160,401273,400161,402472,401790,401790,402472,18
18,test,1,inc,1,z,Tue Jan 21 2025 17:38:12 GMT-0600 (Central Standard Time),412280.1999999881,lead,1100,I,z,z,None,509,310.0,199.0,48,1,2145.300000011921,410134.89999997616,8018,pear,NF,C,404305,404305,402476,403589,402477,404621,404106,404106,404621,19
19,test,1,con,1,m,Tue Jan 21 2025 17:38:12 GMT-0600 (Central Standard Time),414379.6999999881,iron,1100,I,m,m,None,456,257.0,199.0,108,1,2096.0,412283.6999999881,8018,iron,NF,C,406454,406454,404625,405739,404626,406721,406255,406255,406721,20
20,test,1,inc,1,m,Tue Jan 21 2025 17:38:12 GMT-0600 (Central Standard Time),416562.09999996424,orange,1000,I,m,m,None,639,424.0,215.0,71,1,2178.599999964237,414383.5,8018,bronze,NF,C,408470,408471,406725,407738,406726,408903,408255,408255,408903,21
21,test,1,con,1,z,Tue Jan 21 2025 17:38:12 GMT-0600 (Central Standard Time),418645.09999996424,kiwi,900,I,z,z,None,638,439.0,199.0,50,1,2079.199999988079,416565.89999997616,8018,kiwi,NF,C,410536,410536,408907,409821,408908,410986,410337,410337,410986,22
22,test,1,con,1,m,Tue Jan 21 2025 17:38:12 GMT-0600 (Central Standard Time),420427.59999996424,iron,800,I,m,m,None,447,248.0,199.0,105,1,1778.7999999523163,418648.8000000119,8018,iron,NF,C,412519,412519,410990,411803,410991,412769,412320,412320,412769,23
23,test,1,inc,1,z,Tue Jan 21 2025 17:38:12 GMT-0600 (Central Standard Time),422260.39999997616,gold,800,I,z,z,None,488,289.0,199.0,61,1,1829.0999999642372,420431.3000000119,8018,plum,NF,C,414302,414302,412772,413586,412774,414601,414103,414103,414601,24
24,test,1,inc,1,z,Tue Jan 21 2025 17:38:12 GMT-0600 (Central Standard Time),424293.39999997616,iron,900,I,z,z,None,586,371.0,215.0,62,1,2029.300000011921,422264.09999996424,8018,plum,NF,C,416251,416252,414605,415519,414606,416634,416036,416036,416634,25
25,test,1,inc,1,z,Tue Jan 21 2025 17:38:12 GMT-0600 (Central Standard Time),426359.09999996424,silver,1000,I,z,z,None,527,328.0,199.0,7,1,2061.7999999523163,424297.3000000119,8018,banana,NF,C,418367,418367,416638,417651,416640,418700,418168,418168,418700,26
26,test,1,con,1,z,Tue Jan 21 2025 17:38:12 GMT-0600 (Central Standard Time),428425.09999996424,cherry,1000,I,z,z,None,517,318.0,199.0,11,1,2061.899999976158,426363.1999999881,8018,cherry,NF,C,420433,420433,418704,419717,418705,420766,420234,420234,420766,27
27,test,1,con,1,z,Tue Jan 21 2025 17:38:12 GMT-0600 (Central Standard Time),430458.0,banana,1000,I,z,z,None,483,284.0,199.0,3,1,2028.6000000238419,428429.39999997616,8018,banana,NF,C,422499,422499,420770,421783,420772,422799,422300,422300,422799,28
28,test,1,con,1,m,Tue Jan 21 2025 17:38:12 GMT-0600 (Central Standard Time),432440.5,zinc,1000,I,m,m,None,442,243.0,199.0,115,1,1978.5,430462.0,8018,zinc,NF,C,424532,424532,422803,423816,422804,424782,424333,424333,424781,29
29,test,1,con,1,m,Tue Jan 21 2025 17:38:12 GMT-0600 (Central Standard Time),434523.1999999881,bronze,1100,I,m,m,None,446,231.0,215.0,68,1,2079.0,432444.1999999881,8018,bronze,NF,C,426632,426632,424785,425899,424786,426864,426416,426416,426864,30
30,test,1,inc,1,m,Tue Jan 21 2025 17:38:12 GMT-0600 (Central Standard Time),436722.6999999881,plum,1100,I,m,m,None,557,358.0,199.0,104,1,2195.600000023842,434527.09999996424,8018,gold,NF,C,428697,428697,426868,427981,426870,429064,428498,428498,429064,31
31,test,1,con,1,m,Tue Jan 21 2025 17:38:12 GMT-0600 (Central Standard Time),438672.0,iron,1000,I,m,m,None,408,193.0,215.0,107,1,1945.5,436726.5,8018,iron,NF,C,430814,430814,429068,430081,429069,431013,430598,430598,431013,32
32,test,1,con,1,m,Tue Jan 21 2025 17:38:12 GMT-0600 (Central Standard Time),440638.1999999881,silver,1000,I,m,m,None,428,229.0,199.0,83,1,1962.300000011921,438675.89999997616,8018,silver,NF,C,432746,432746,431017,432030,431018,432979,432547,432547,432979,33
33,test,1,con,1,m,Tue Jan 21 2025 17:38:12 GMT-0600 (Central Standard Time),442670.8000000119,gold,1100,I,m,m,None,386,187.0,199.0,100,1,2028.800000011921,440642.0,8018,gold,NF,C,434812,434812,432983,434096,432984,435012,434613,434613,435012,34
34,test,1,inc,1,m,Tue Jan 21 2025 17:38:12 GMT-0600 (Central Standard Time),444836.89999997616,raisin,1100,I,m,m,None,528,313.0,215.0,72,1,2162.199999988079,442674.6999999881,8018,bronze,NF,C,436862,436862,435016,436129,435017,437178,436646,436646,437178,35
35,test,1,inc,1,z,Tue Jan 21 2025 17:38:12 GMT-0600 (Central Standard Time),446952.8000000119,cobalt,1100,I,z,z,None,466,251.0,215.0,32,1,2112.0,444840.8000000119,8018,raisin,NF,C,439028,439028,437182,438295,437183,439294,438812,438812,439294,36
36,test,1,inc,1,m,Tue Jan 21 2025 17:38:12 GMT-0600 (Central Standard Time),449135.39999997616,raisin,1100,I,m,m,None,534,319.0,215.0,88,1,2178.800000011921,446956.59999996424,8018,silver,NF,C,441144,441144,439298,440410,439299,441476,440928,440928,441476,37
37,test,1,inc,1,z,Tue Jan 21 2025 17:38:12 GMT-0600 (Central Standard Time),451379.89999997616,zinc,1000,I,z,z,None,710,511.0,199.0,39,1,2240.5,449139.39999997616,8018,lime,NF,C,443210,443210,441480,442494,441482,443721,443010,443010,443721,38
37,test,1,con,0,z,Tue Jan 21 2025 17:38:12 GMT-0600 (Central Standard Time),453467.3000000119,raisin,1100,I,m,m,None,447,248.0,199.0,28,1,2083.300000011921,451384.0,8018,raisin,NF,C,445559,445559,443725,444843,443726,445808,445360,445360,445808,39
38,test,1,inc,1,m,Tue Jan 21 2025 17:38:12 GMT-0600 (Central Standard Time),455551.1999999881,kiwi,1000,I,m,m,None,536,337.0,199.0,127,1,2080.100000023842,453471.09999996424,8018,lead,NF,C,447542,447542,445812,446825,445813,447892,447342,447342,447892,40
39,test,1,inc,1,m,Tue Jan 21 2025 17:38:12 GMT-0600 (Central Standard Time),457849.5,cherry,900,I,m,m,None,858,659.0,199.0,94,1,2293.699999988079,455555.8000000119,8018,cobalt,NF,C,449524,449524,447897,448809,447898,450191,449325,449325,450191,41
40,test,1,inc,1,m,Tue Jan 21 2025 17:38:12 GMT-0600 (Central Standard Time),459832.09999996424,banana,800,I,m,m,None,635,436.0,199.0,93,1,1979.0,457853.09999996424,8018,cobalt,NF,C,451723,451723,450194,451008,450196,452173,451524,451524,452173,42
41,test,1,inc,1,m,Tue Jan 21 2025 17:38:12 GMT-0600 (Central Standard Time),461914.89999997616,cherry,900,I,m,m,None,640,441.0,199.0,70,1,2079.0,459835.89999997616,8018,bronze,NF,C,453806,453806,452177,453090,452178,454256,453607,453607,454256,43
42,test,1,inc,1,z,Tue Jan 21 2025 17:38:12 GMT-0600 (Central Standard Time),464115.0,cobalt,1100,I,z,z,None,549,350.0,199.0,8,1,2196.5,461918.5,8018,banana,NF,C,456089,456089,454260,455373,454261,456456,455890,455890,456456,44
43,test,1,con,1,z,Tue Jan 21 2025 17:38:12 GMT-0600 (Central Standard Time),466163.39999997616,kiwi,1000,I,z,z,None,506,307.0,199.0,51,1,2044.699999988079,464118.6999999881,8018,kiwi,NF,C,458188,458188,456460,457472,456461,458504,457989,457989,458504,45
44,test,1,inc,1,z,Tue Jan 21 2025 17:38:12 GMT-0600 (Central Standard Time),468279.39999997616,copper,900,I,z,z,None,668,453.0,215.0,14,1,2112.300000011921,466167.09999996424,8018,cherry,NF,C,460154,460154,458508,459422,458510,460620,459939,459939,460620,46
45,test,1,con,1,z,Tue Jan 21 2025 17:38:12 GMT-0600 (Central Standard Time),470578.59999996424,lime,1100,I,z,z,None,664,448.0,216.0,36,1,2295.399999976158,468283.1999999881,8018,lime,NF,C,462471,462471,460624,461738,460626,462920,462255,462255,462920,47
46,test,1,inc,1,z,Tue Jan 21 2025 17:38:12 GMT-0600 (Central Standard Time),472827.89999997616,cobalt,1100,I,z,z,None,604,389.0,215.0,24,1,2245.599999964237,470582.3000000119,8018,orange,NF,C,464770,464770,462923,464037,462925,465169,464554,464554,465169,48
47,test,1,con,1,z,Tue Jan 21 2025 17:38:12 GMT-0600 (Central Standard Time),474918.89999997616,plum,1100,I,z,z,None,457,147.0,310.0,60,1,2087.099999964237,472831.8000000119,8018,plum,NF,C,467113,467113,465173,466286,465174,467260,466803,466803,467260,49
48,test,1,inc,1,m,Tue Jan 21 2025 17:38:12 GMT-0600 (Central Standard Time),477276.6999999881,raisin,1100,I,m,m,None,729,514.0,215.0,80,1,2353.199999988079,474923.5,8018,copper,NF,C,469101,469101,467265,468369,467266,469618,468886,468886,469618,50
49,test,1,inc,1,m,Tue Jan 21 2025 17:38:12 GMT-0600 (Central Standard Time),479192.8000000119,banana,800,I,m,m,None,575,376.0,199.0,85,1,1912.4000000357628,477280.39999997616,8018,silver,NF,C,471151,471151,469621,470434,469623,471534,470952,470952,471534,51
50,test,1,inc,1,m,Tue Jan 21 2025 17:38:12 GMT-0600 (Central Standard Time),481125.3000000119,pear,900,I,m,m,None,495,295.0,200.0,102,1,1928.800000011921,479196.5,8018,gold,NF,C,473168,473168,471538,472451,471539,473466,472968,472968,473466,52
51,test,1,inc,1,m,Tue Jan 21 2025 17:38:12 GMT-0600 (Central Standard Time),482925.0,lime,800,I,m,m,None,455,256.0,199.0,101,1,1795.9000000357628,481129.09999996424,8018,gold,NF,C,474999,474999,473470,474284,473472,475266,474800,474800,475266,53
52,test,1,con,1,z,Tue Jan 21 2025 17:38:12 GMT-0600 (Central Standard Time),484874.1999999881,kiwi,800,I,z,z,None,607,408.0,199.0,49,1,1945.3999999761581,482928.8000000119,8018,kiwi,NF,C,476799,476799,475270,476083,475271,477215,476600,476600,477215,54
53,test,1,con,1,z,Tue Jan 21 2025 17:38:12 GMT-0600 (Central Standard Time),487040.1999999881,orange,1000,I,z,z,None,626,427.0,199.0,19,1,2162.300000011921,484877.89999997616,8018,orange,NF,C,478948,478948,477219,478232,477220,479381,478749,478749,479381,55
54,test,1,con,1,z,Tue Jan 21 2025 17:38:12 GMT-0600 (Central Standard Time),489056.3000000119,raisin,800,I,z,z,None,668,469.0,199.0,25,1,2012.5,487043.8000000119,8018,raisin,NF,C,480914,480914,479385,480199,479386,481397,480715,480715,481397,56
55,test,1,inc,1,z,Tue Jan 21 2025 17:38:12 GMT-0600 (Central Standard Time),491189.0,zinc,1000,I,z,z,None,595,396.0,199.0,55,1,2128.900000035763,489060.09999996424,8018,kiwi,NF,C,483131,483131,481401,482415,481402,483530,482931,482931,483530,57
56,test,1,inc,1,z,Tue Jan 21 2025 17:38:12 GMT-0600 (Central Standard Time),493438.3000000119,cobalt,1100,I,z,z,None,611,412.0,199.0,16,1,2245.400000035763,491192.89999997616,8018,cherry,NF,C,485363,485363,483534,484647,483535,485779,485164,485164,485779,58
57,test,1,inc,1,z,Tue Jan 21 2025 17:38:12 GMT-0600 (Central Standard Time),495504.39999997616,iron,900,I,z,z,None,626,427.0,199.0,54,1,2062.199999988079,493442.1999999881,8018,kiwi,NF,C,487412,487412,485783,486697,485784,487845,487213,487213,487845,59
58,test,1,inc,1,z,Tue Jan 21 2025 17:38:12 GMT-0600 (Central Standard Time),497570.39999997616,copper,900,I,z,z,None,616,417.0,199.0,6,1,2062.099999964237,495508.3000000119,8018,banana,NF,C,489478,489478,487849,488762,487851,489912,489279,489279,489911,60
59,test,1,con,1,m,Tue Jan 21 2025 17:38:12 GMT-0600 (Central Standard Time),500052.6999999881,lead,1000,I,m,m,None,946,747.0,199.0,123,1,2478.199999988079,497574.5,8018,lead,NF,C,491644,491644,489916,490929,489917,492394,491445,491445,492394,61
60,test,1,inc,1,m,Tue Jan 21 2025 17:38:12 GMT-0600 (Central Standard Time),502152.09999996424,orange,1000,I,m,m,None,551,352.0,199.0,87,1,2095.399999976158,500056.6999999881,8018,silver,NF,C,494127,494127,492398,493411,492399,494493,493928,493928,494493,62
61,test,1,con,1,m,Tue Jan 21 2025 17:38:12 GMT-0600 (Central Standard Time),504068.09999996424,iron,900,I,m,m,None,480,281.0,199.0,106,1,1912.0,502156.09999996424,8018,iron,NF,C,496126,496126,494497,495410,494498,496409,495927,495927,496409,63
62,test,1,inc,1,m,Tue Jan 21 2025 17:38:12 GMT-0600 (Central Standard Time),506017.6999999881,lime,800,I,m,m,None,608,409.0,199.0,125,1,1945.8999999761581,504071.8000000119,8018,lead,NF,C,497942,497942,496413,497227,496414,498359,497743,497743,498359,64
63,test,1,con,1,m,Tue Jan 21 2025 17:38:12 GMT-0600 (Central Standard Time),507850.3000000119,lead,800,I,m,m,None,482,283.0,199.0,121,1,1829.0,506021.3000000119,8018,lead,NF,C,499892,499892,498362,499176,498364,500191,499693,499693,500191,65
64,test,1,con,1,m,Tue Jan 21 2025 17:38:12 GMT-0600 (Central Standard Time),509983.09999996424,lead,1100,I,m,m,None,494,295.0,199.0,124,1,2129.0,507854.09999996424,8018,lead,NF,C,502024,502024,500195,501309,500196,502324,501825,501825,502324,66
65,test,1,inc,1,m,Tue Jan 21 2025 17:38:12 GMT-0600 (Central Standard Time),511915.8000000119,banana,800,I,m,m,None,597,398.0,199.0,69,1,1928.9000000357628,509986.89999997616,8018,bronze,NF,C,503857,503857,502328,503141,502329,504257,503658,503658,504257,67
66,test,1,inc,1,m,Tue Jan 21 2025 17:38:12 GMT-0600 (Central Standard Time),513915.09999996424,lime,800,I,m,m,None,655,441.0,214.0,109,1,1995.699999988079,511919.39999997616,8018,iron,NF,C,505806,505806,504260,505074,504262,506256,505592,505592,506256,68
67,test,1,con,1,m,Tue Jan 21 2025 17:38:12 GMT-0600 (Central Standard Time),515997.89999997616,cobalt,900,I,m,m,None,636,421.0,215.0,90,1,2079.0,513918.89999997616,8018,cobalt,NF,C,507906,507906,506260,507174,506261,508339,507691,507691,508339,69
68,test,1,inc,1,z,Tue Jan 21 2025 17:38:12 GMT-0600 (Central Standard Time),518130.59999996424,silver,1000,I,z,z,None,590,391.0,199.0,23,1,2128.899999976158,516001.6999999881,8018,orange,NF,C,510072,510072,508343,509356,508344,510472,509873,509873,510472,70
69,test,1,con,1,z,Tue Jan 21 2025 17:38:12 GMT-0600 (Central Standard Time),520280.0,lime,900,I,z,z,None,701,486.0,215.0,34,1,2145.699999988079,518134.3000000119,8018,lime,NF,C,512121,512121,510475,511389,510477,512621,511906,511906,512621,71
70,test,1,con,1,m,Tue Jan 21 2025 17:38:12 GMT-0600 (Central Standard Time),522178.89999997616,zinc,900,I,m,m,None,456,146.0,310.0,114,1,1895.199999988079,520283.6999999881,8018,zinc,NF,C,514365,514365,512625,513538,512626,514520,514055,514055,514520,72
71,test,1,inc,1,m,Tue Jan 21 2025 17:38:12 GMT-0600 (Central Standard Time),524162.0,banana,800,I,m,m,None,633,434.0,199.0,77,1,1979.300000011921,522182.6999999881,8018,copper,NF,C,516053,516053,514524,515338,514525,516503,515854,515854,516503,73
72,test,1,con,1,z,Tue Jan 21 2025 17:38:12 GMT-0600 (Central Standard Time),526311.0999999642,pear,1100,I,z,z,None,500,286.0,214.0,44,1,2145.2999999523163,524165.8000000119,8018,pear,NF,C,518353,518353,516507,517620,516508,518652,518138,518138,518652,74
73,test,1,con,1,z,Tue Jan 21 2025 17:38:12 GMT-0600 (Central Standard Time),528344.0,lime,1000,I,z,z,None,492,293.0,199.0,35,1,2029.0,526315.0,8018,lime,NF,C,520385,520386,518656,519671,518657,520685,520186,520186,520685,75
74,test,1,con,1,z,Tue Jan 21 2025 17:38:12 GMT-0600 (Central Standard Time),530476.6999999881,plum,1000,I,z,z,None,596,397.0,199.0,59,1,2128.800000011921,528347.8999999762,8018,plum,NF,C,522418,522418,520689,521702,520690,522818,522219,522219,522818,76
75,test,1,inc,1,z,Tue Jan 21 2025 17:38:12 GMT-0600 (Central Standard Time),532559.1999999881,bronze,800,I,z,z,None,742,527.0,215.0,5,1,2078.800000011921,530480.3999999762,8018,banana,NF,C,524368,524368,522821,523635,522823,524900,524152,524152,524900,77
76,test,1,inc,1,z,Tue Jan 21 2025 17:38:12 GMT-0600 (Central Standard Time),534758.5,copper,900,I,z,z,None,760,545.0,215.0,30,1,2195.600000023842,532562.8999999762,8018,raisin,NF,C,526550,526550,524904,525818,524905,527100,526335,526335,527100,78
77,test,1,con,1,z,Tue Jan 21 2025 17:38:12 GMT-0600 (Central Standard Time),536658.3999999762,plum,900,I,z,z,None,465,266.0,199.0,58,1,1896.0,534762.3999999762,8018,plum,NF,C,528733,528733,527103,528016,527105,528999,528534,528534,528999,79
78,test,1,inc,1,z,Tue Jan 21 2025 17:38:12 GMT-0600 (Central Standard Time),538690.8999999762,iron,900,I,z,z,None,590,391.0,199.0,46,1,2028.3999999761581,536662.5,8018,pear,NF,C,530632,530632,529004,529916,529005,531032,530433,530433,531032,80
79,test,1,inc,1,z,Tue Jan 21 2025 17:38:12 GMT-0600 (Central Standard Time),540590.1999999881,gold,800,I,z,z,None,553,354.0,199.0,53,1,1895.5,538694.6999999881,8018,kiwi,NF,C,532565,532565,531036,531849,531037,532931,532366,532366,532931,81
80,test,1,con,1,m,Tue Jan 21 2025 17:38:12 GMT-0600 (Central Standard Time),542706.0999999642,bronze,800,I,m,m,None,774,575.0,199.0,65,1,2112.199999988079,540593.8999999762,8018,bronze,NF,C,534464,534464,532935,533748,532936,535047,534265,534265,535047,82
81,test,1,con,1,m,Tue Jan 21 2025 17:38:12 GMT-0600 (Central Standard Time),544855.3000000119,cobalt,1100,I,m,m,None,510,311.0,199.0,92,1,2145.400000035763,542709.8999999762,8018,cobalt,NF,C,536880,536880,535051,536164,535052,537196,536681,536681,537196,83
82,test,1,inc,1,z,Tue Jan 21 2025 17:38:12 GMT-0600 (Central Standard Time),547588.0,lead,1100,I,z,z,None,1097,898.0,199.0,56,1,2728.800000011921,544859.1999999881,8018,kiwi,NF,C,539029,539029,537200,538314,537202,539929,538830,538830,539929,84
83,test,1,inc,1,z,Tue Jan 21 2025 17:38:12 GMT-0600 (Central Standard Time),549803.8999999762,zinc,1000,I,z,z,None,680,481.0,199.0,63,1,2211.899999976158,547592.0,8018,plum,NF,C,541662,541662,539933,540946,539934,542145,541463,541463,542145,85
84,test,1,con,1,m,Tue Jan 21 2025 17:38:12 GMT-0600 (Central Standard Time),551836.5999999642,cobalt,1000,I,m,m,None,488,289.0,199.0,91,1,2028.8999999761581,549807.6999999881,8018,cobalt,NF,C,543878,543878,542149,543162,542150,544178,543679,543679,544178,86
85,test,1,inc,1,z,Tue Jan 21 2025 17:38:12 GMT-0600 (Central Standard Time),553952.6999999881,iron,900,I,z,z,None,667,468.0,199.0,38,1,2112.100000023842,551840.5999999642,8018,lime,NF,C,545811,545811,544182,545095,544183,546294,545612,545612,546294,87
86,test,1,inc,1,m,Tue Jan 21 2025 17:38:12 GMT-0600 (Central Standard Time),555935.1999999881,pear,900,I,m,m,None,543,344.0,199.0,118,1,1979.1000000238419,553956.0999999642,8018,zinc,NF,C,547927,547927,546297,547211,546299,548276,547728,547728,548276,88
87,test,1,con,1,m,Tue Jan 21 2025 17:38:12 GMT-0600 (Central Standard Time),557867.8999999762,copper,900,I,m,m,None,488,273.0,215.0,74,1,1928.699999988079,555939.1999999881,8018,copper,NF,C,549926,549926,548280,549193,548281,550209,549710,549711,550209,89
88,test,1,inc,1,z,Tue Jan 21 2025 17:38:12 GMT-0600 (Central Standard Time),560084.0,silver,1000,I,z,z,None,672,473.0,199.0,31,1,2212.300000011921,557871.6999999881,8018,raisin,NF,C,551942,551942,550213,551226,550214,552425,551743,551743,552425,90
89,test,1,con,1,m,Tue Jan 21 2025 17:38:12 GMT-0600 (Central Standard Time),562483.3999999762,copper,1000,I,m,m,None,864,665.0,199.0,75,1,2395.300000011921,560088.0999999642,8018,copper,NF,C,554158,554158,552429,553442,552430,554824,553959,553959,554824,91
90,test,1,inc,1,m,Tue Jan 21 2025 17:38:12 GMT-0600 (Central Standard Time),564582.6999999881,pear,900,I,m,m,None,661,462.0,199.0,110,1,2095.600000023842,562487.0999999642,8018,iron,NF,C,556457,556457,554828,555741,554830,556924,556258,556258,556924,92
91,test,1,inc,1,m,Tue Jan 21 2025 17:38:12 GMT-0600 (Central Standard Time),566715.3999999762,kiwi,1000,I,m,m,None,589,390.0,199.0,103,1,2128.899999976158,564586.5,8018,gold,NF,C,558657,558657,556928,557941,556929,559056,558458,558458,559056,93
92,test,1,inc,1,m,Tue Jan 21 2025 17:38:12 GMT-0600 (Central Standard Time),569128.3999999762,plum,1100,I,m,m,None,760,561.0,199.0,120,1,2408.899999976158,566719.5,8018,zinc,NF,C,560889,560889,559061,560173,559062,561469,560690,560690,561469,94
93,test,1,con,1,z,Tue Jan 21 2025 17:38:12 GMT-0600 (Central Standard Time),571297.5,lime,800,I,z,z,None,825,626.0,199.0,33,1,2164.900000035763,569132.5999999642,8018,lime,NF,C,563005,563005,561474,562291,561475,563639,562806,562806,563638,95
94,test,1,inc,1,z,Tue Jan 21 2025 17:38:12 GMT-0600 (Central Standard Time),573346.3999999762,gold,800,I,z,z,None,699,500.0,199.0,37,1,2045.199999988079,571301.1999999881,8018,lime,NF,C,565171,565171,563642,564456,563643,565687,564972,564972,565687,96
95,test,1,inc,1,z,Tue Jan 21 2025 17:38:12 GMT-0600 (Central Standard Time),575695.8000000119,lead,1100,I,z,z,None,701,502.0,199.0,40,1,2345.600000023842,573350.1999999881,8018,lime,NF,C,567521,567521,565691,566805,565692,568037,567321,567321,568037,97
96,test,1,inc,1,z,Tue Jan 21 2025 17:38:12 GMT-0600 (Central Standard Time),577711.8999999762,bronze,800,I,z,z,None,668,469.0,199.0,29,1,2012.300000011921,575699.5999999642,8018,raisin,NF,C,569570,569570,568041,568854,568042,570053,569371,569371,570053,98
97,test,1,con,1,z,Tue Jan 21 2025 17:38:12 GMT-0600 (Central Standard Time),579661.1999999881,plum,800,I,z,z,None,604,405.0,199.0,57,1,1945.5,577715.6999999881,8018,plum,NF,C,571586,571586,570057,570870,570058,572002,571387,571387,572002,99
98,test,1,inc,1,z,Tue Jan 21 2025 17:38:12 GMT-0600 (Central Standard Time),581577.3000000119,gold,800,I,z,z,None,575,376.0,199.0,45,1,1912.300000011921,579665.0,8018,pear,NF,C,573535,573535,572006,572820,572007,573918,573336,573336,573918,100
99,test,1,con,1,m,Tue Jan 21 2025 17:38:12 GMT-0600 (Central Standard Time),583610.0999999642,gold,800,I,m,m,None,683,484.0,199.0,97,1,2029.0999999642372,581581.0,8018,gold,NF,C,575451,575451,573922,574736,573923,575951,575252,575252,575951,101
100,test,1,con,1,z,Tue Jan 21 2025 17:38:12 GMT-0600 (Central Standard Time),585909.3999999762,raisin,1000,I,z,z,None,754,555.0,199.0,27,1,2295.5,583613.8999999762,8018,raisin,NF,C,577684,577684,575955,576968,575956,578250,577485,577485,578250,102
101,test,1,con,1,z,Tue Jan 21 2025 17:38:12 GMT-0600 (Central Standard Time),588025.1999999881,kiwi,1100,I,z,z,None,475,276.0,199.0,52,1,2112.300000011921,585912.8999999762,8018,kiwi,NF,C,580083,580083,578254,579367,578255,580366,579884,579884,580366,103
102,test,1,con,1,m,Tue Jan 21 2025 17:38:12 GMT-0600 (Central Standard Time),589941.3000000119,bronze,900,I,m,m,None,471,272.0,199.0,66,1,1912.0,588029.3000000119,8018,bronze,NF,C,581999,581999,580370,581283,580372,582282,581800,581800,582282,104
103,test,1,con,1,z,Tue Jan 21 2025 17:38:12 GMT-0600 (Central Standard Time),592057.3999999762,raisin,900,I,z,z,None,674,475.0,199.0,26,1,2112.300000011921,589945.0999999642,8018,raisin,NF,C,583916,583916,582286,583200,582287,584398,583716,583716,584398,105
104,test,1,con,1,m,Tue Jan 21 2025 17:38:12 GMT-0600 (Central Standard Time),593940.0999999642,gold,900,I,m,m,None,447,248.0,199.0,98,1,1879.0999999642372,592061.0,8018,gold,NF,C,586031,586031,584402,585316,584403,586281,585832,585832,586281,106
105,test,1,inc,1,m,Tue Jan 21 2025 17:38:12 GMT-0600 (Central Standard Time),596205.8999999762,raisin,1100,I,m,m,None,620,421.0,199.0,96,1,2261.899999976158,593944.0,8018,cobalt,NF,C,588114,588114,586285,587398,586286,588547,587915,587915,588547,107
106,test,1,con,1,z,Tue Jan 21 2025 17:38:12 GMT-0600 (Central Standard Time),598288.5999999642,cherry,900,I,z,z,None,642,443.0,199.0,10,1,2078.7999999523163,596209.8000000119,8018,cherry,NF,C,590180,590180,588551,589464,588552,590630,589981,589981,590630,108
107,test,1,inc,1,z,Tue Jan 21 2025 17:38:12 GMT-0600 (Central Standard Time),600438.1999999881,zinc,1000,I,z,z,None,603,404.0,199.0,47,1,2145.699999988079,598292.5,8018,pear,NF,C,592363,592363,590634,591647,590635,592779,592164,592164,592779,109
108,test,1,con,1,z,Tue Jan 21 2025 17:38:12 GMT-0600 (Central Standard Time),602421.0,cherry,800,I,z,z,None,638,439.0,199.0,9,1,1979.199999988079,600441.8000000119,8018,cherry,NF,C,594312,594312,592783,593596,592784,594762,594113,594113,594762,110
109,test,1,con,1,m,Tue Jan 21 2025 17:38:12 GMT-0600 (Central Standard Time),604554.5999999642,cobalt,800,I,m,m,None,783,584.0,199.0,89,1,2129.899999976158,602424.6999999881,8018,cobalt,NF,C,596295,596295,594766,595579,594767,596896,596096,596096,596896,111
110,test,1,con,1,m,Tue Jan 21 2025 17:38:12 GMT-0600 (Central Standard Time),606869.3999999762,lead,900,I,m,m,None,870,671.0,199.0,122,1,2310.699999988079,604558.6999999881,8018,lead,NF,C,598528,598528,596900,597812,596901,599210,598328,598328,599210,112
111,test,1,inc,1,m,Tue Jan 21 2025 17:38:12 GMT-0600 (Central Standard Time),609051.8999999762,pear,900,I,m,m,None,739,524.0,215.0,126,1,2178.899999976158,606873.0,8018,lead,NF,C,600860,600860,599214,600128,599215,601393,600645,600645,601393,113
112,test,1,inc,1,m,Tue Jan 21 2025 17:38:12 GMT-0600 (Central Standard Time),611084.6999999881,lime,800,I,m,m,None,688,489.0,199.0,117,1,2028.800000011921,609055.8999999762,8018,zinc,NF,C,602926,602926,601397,602210,601398,603426,602727,602727,603426,114
113,test,1,con,1,m,Tue Jan 21 2025 17:38:12 GMT-0600 (Central Standard Time),613017.5,silver,900,I,m,m,None,491,276.0,215.0,82,1,1929.0,611088.5,8018,silver,NF,C,605075,605075,603429,604343,603431,605359,604860,604860,605359,115
113,test,1,con,0,m,Tue Jan 21 2025 17:38:12 GMT-0600 (Central Standard Time),616366.1999999881,copper,800,I,None,None,None,1815,1815.0,199.0,73,1,3345.100000023842,613021.0999999642,8018,copper,NF,C,606892,606892,605362,606175,605363,608707,606692,606692,608707,116
114,test,1,con,1,z,Tue Jan 21 2025 17:38:12 GMT-0600 (Central Standard Time),618449.0999999642,banana,800,I,z,z,None,733,518.0,215.0,1,1,2079.2999999523163,616369.8000000119,8018,banana,NF,C,610257,610257,608711,609525,608712,610790,610042,610042,610790,117
115,test,1,con,1,z,Tue Jan 21 2025 17:38:12 GMT-0600 (Central Standard Time),620865.0,orange,1100,I,z,z,None,775,576.0,199.0,20,1,2412.100000023842,618452.8999999762,8018,orange,NF,C,612623,612623,610794,611907,610795,613206,612424,612424,613206,118
116,test,1,inc,1,m,Tue Jan 21 2025 17:38:12 GMT-0600 (Central Standard Time),623130.8999999762,orange,1000,I,m,m,None,723,524.0,199.0,95,1,2261.800000011921,620869.0999999642,8018,cobalt,NF,C,614939,614939,613210,614223,613211,615472,614740,614740,615472,119
117,test,1,con,1,m,Tue Jan 21 2025 17:38:12 GMT-0600 (Central Standard Time),625763.5,zinc,1100,I,m,m,None,997,797.0,200.0,116,1,2628.900000035763,623134.5999999642,8018,zinc,NF,C,617306,617306,615476,616589,615477,618105,617106,617106,618105,120
118,test,1,inc,1,z,Tue Jan 21 2025 17:38:12 GMT-0600 (Central Standard Time),628029.3000000119,lead,1100,I,z,z,None,620,420.0,200.0,64,1,2262.0,625767.3000000119,8018,plum,NF,C,619939,619939,618108,619222,618110,620370,619738,619738,620370,121
119,test,1,inc,1,m,Tue Jan 21 2025 17:38:12 GMT-0600 (Central Standard Time),630095.3000000119,cherry,900,I,m,m,None,627,428.0,199.0,86,1,2062.400000035763,628032.8999999762,8018,silver,NF,C,622003,622003,620374,621288,620375,622436,621804,621804,622436,122
119,test,1,con,0,z,Tue Jan 21 2025 17:38:12 GMT-0600 (Central Standard Time),633527.6999999881,pear,900,I,None,None,None,1800,1800.0,199.0,42,1,3428.699999988079,630099.0,8018,pear,NF,C,624069,624069,622440,623354,622442,625869,623870,623870,625869,123
120,test,1,con,1,m,Tue Jan 21 2025 17:38:12 GMT-0600 (Central Standard Time),635393.8999999762,zinc,800,I,m,m,None,516,317.0,199.0,113,1,1862.3999999761581,633531.5,8018,zinc,NF,C,627402,627402,625873,626686,625874,627735,627203,627203,627735,124
121,test,1,con,1,z,Tue Jan 21 2025 17:38:12 GMT-0600 (Central Standard Time),637410.0,banana,900,I,z,z,None,566,367.0,199.0,2,1,2012.6000000238419,635397.3999999762,8018,banana,NF,C,629368,629368,627738,628652,627740,629751,629169,629169,629751,125
122,test,1,inc,1,m,Tue Jan 21 2025 17:38:12 GMT-0600 (Central Standard Time),639572.5,kiwi,1000,I,m,m,None,628,429.0,199.0,111,1,2159.100000023842,637413.3999999762,8018,iron,NF,C,631484,631484,629754,630768,629756,631914,631285,631285,631914,126
123,test,1,con,1,z,Tue Jan 21 2025 17:38:12 GMT-0600 (Central Standard Time),641875.0,orange,900,I,z,z,None,856,657.0,199.0,18,1,2298.400000035763,639576.5999999642,8018,orange,NF,C,633550,633550,631918,632834,631919,634216,633351,633351,634216,127
124,test,1,con,1,m,Tue Jan 21 2025 17:38:12 GMT-0600 (Central Standard Time),643857.8000000119,bronze,1000,I,m,m,None,441,242.0,199.0,67,1,1978.9000000357628,641878.8999999762,8018,bronze,NF,C,635949,635949,634220,635233,634221,636199,635750,635750,636199,128
