acc_sum,block,block_c,block_cond,con_img,correct,correct_response,datetime,endtime,face,jitter,line,project,response,response_time,row_sel,session_number,start_end,starttime,subject_id,task,task_vers,trial
1,prac,1,A,haborder.png,1,z,Fri Nov 22 2024 15:13:46 GMT-0600 (Central Standard Time),61264.80000000447,CFD-BF-039-039-A.jpg,1200,solid,I,z,1058,6,2,3049.0,58215.80000000447,8004,ATS,A,1
2,prac,1,A,haborder.png,1,m,Fri Nov 22 2024 15:13:46 GMT-0600 (Central Standard Time),64897.20000000298,CFD-BM-017-052-HC.jpg,1700,solid,I,m,1149,1,2,6681.39999999851,58215.80000000447,8004,ATS,A,2
3,prac,1,A,haborder.png,1,z,Fri Nov 22 2024 15:13:46 GMT-0600 (Central Standard Time),67529.39999999851,CFD-BF-023-013-A.jpg,1000,solid,I,z,848,4,2,9313.59999999404,58215.80000000447,8004,ATS,A,3
4,prac,1,A,haborder.png,1,m,Fri Nov 22 2024 15:13:46 GMT-0600 (Central Standard Time),70961.80000000447,CFD-WM-006-013-HC.jpg,1700,solid,I,m,948,9,2,12746.0,58215.80000000447,8004,ATS,A,4
5,prac,1,A,haborder.png,1,m,Fri Nov 22 2024 15:13:46 GMT-0600 (Central Standard Time),74177.70000000298,CFD-BM-029-026-HC.jpg,1500,solid,I,m,931,3,2,15961.89999999851,58215.80000000447,8004,ATS,A,5
6,prac,1,A,haborder.png,1,z,Fri Nov 22 2024 15:13:46 GMT-0600 (Central Standard Time),76776.60000000149,CFD-WF-019-015-A.jpg,1000,solid,I,z,800,12,2,18560.79999999702,58215.80000000447,8004,ATS,A,6
7,prac,1,A,haborder.png,1,z,Fri Nov 22 2024 15:13:46 GMT-0600 (Central Standard Time),80109.10000000149,CFD-BM-005-010-A.jpg,1600,solid,I,z,937,2,2,21893.29999999702,58215.80000000447,8004,ATS,A,7
8,prac,1,A,haborder.png,1,m,Fri Nov 22 2024 15:13:46 GMT-0600 (Central Standard Time),83024.5,CFD-WM-004-005-HC.jpg,1400,solid,I,m,732,7,2,24808.69999999553,58215.80000000447,8004,ATS,A,8
9,prac,1,A,haborder.png,1,z,Fri Nov 22 2024 15:13:46 GMT-0600 (Central Standard Time),86840.5,CFD-WM-013-015-A.jpg,1900,solid,I,z,1125,8,2,28624.69999999553,58215.80000000447,8004,ATS,A,9
10,prac,1,A,haborder.png,1,m,Fri Nov 22 2024 15:13:46 GMT-0600 (Central Standard Time),90789.10000000149,CFD-BF-028-020-HC.jpg,2000,solid,I,m,1154,5,2,32573.29999999702,58215.80000000447,8004,ATS,A,10
11,prac,1,A,haborder.png,1,z,Fri Nov 22 2024 15:13:46 GMT-0600 (Central Standard Time),94088.0,CFD-WF-003-014-A.jpg,1600,solid,I,z,900,10,2,35872.19999999553,58215.80000000447,8004,ATS,A,11
12,prac,1,A,haborder.png,1,m,Fri Nov 22 2024 15:13:46 GMT-0600 (Central Standard Time),97338.30000000447,CFD-WF-017-016-HC.jpg,1500,solid,I,m,950,11,2,39122.5,58215.80000000447,8004,ATS,A,12
1,prac,1,B,mfborder.png,1,z,Fri Nov 22 2024 15:13:46 GMT-0600 (Central Standard Time),125428.0,CFD-WF-002-008-HC.jpg,1900,dash,I,z,1338,8,2,4032.10000000149,121395.89999999851,8004,ATS,A,1
2,prac,1,B,mfborder.png,1,z,Fri Nov 22 2024 15:13:46 GMT-0600 (Central Standard Time),128644.10000000149,CFD-BF-023-013-A.jpg,1000,dash,I,z,1421,4,2,7248.20000000298,121395.89999999851,8004,ATS,A,2
3,prac,1,B,mfborder.png,1,m,Fri Nov 22 2024 15:13:46 GMT-0600 (Central Standard Time),131860.5,CFD-BM-010-019-A.jpg,1600,dash,I,m,822,2,2,10464.60000000149,121395.89999999851,8004,ATS,A,3
4,prac,1,B,mfborder.png,1,z,Fri Nov 22 2024 15:13:46 GMT-0600 (Central Standard Time),134941.80000000447,CFD-BF-028-020-HC.jpg,1400,dash,I,z,886,7,2,13545.90000000596,121395.89999999851,8004,ATS,A,4
5,prac,1,B,mfborder.png,1,m,Fri Nov 22 2024 15:13:46 GMT-0600 (Central Standard Time),138307.30000000447,CFD-BM-029-026-HC.jpg,1700,dash,I,m,895,1,2,16911.40000000596,121395.89999999851,8004,ATS,A,5
6,prac,1,B,mfborder.png,1,m,Fri Nov 22 2024 15:13:46 GMT-0600 (Central Standard Time),142472.70000000298,CFD-BM-005-010-A.jpg,2000,dash,I,m,1382,5,2,21076.80000000447,121395.89999999851,8004,ATS,A,6
7,prac,1,B,mfborder.png,1,z,Fri Nov 22 2024 15:13:46 GMT-0600 (Central Standard Time),145605.0,CFD-WF-017-016-HC.jpg,1000,dash,I,z,1337,12,2,24209.10000000149,121395.89999999851,8004,ATS,A,7
8,prac,1,B,mfborder.png,1,z,Fri Nov 22 2024 15:13:46 GMT-0600 (Central Standard Time),149187.3999999985,CFD-WF-003-014-A.jpg,1500,dash,I,z,1296,11,2,27791.5,121395.89999999851,8004,ATS,A,8
9,prac,1,B,mfborder.png,1,m,Fri Nov 22 2024 15:13:46 GMT-0600 (Central Standard Time),152036.3999999985,CFD-WM-019-013-A.jpg,1200,dash,I,m,862,6,2,30640.5,121395.89999999851,8004,ATS,A,9
10,prac,1,B,mfborder.png,1,m,Fri Nov 22 2024 15:13:46 GMT-0600 (Central Standard Time),155502.1000000015,CFD-WM-006-013-HC.jpg,1600,dash,I,m,1069,10,2,34106.20000000298,121395.89999999851,8004,ATS,A,10
11,prac,1,B,mfborder.png,1,m,Fri Nov 22 2024 15:13:46 GMT-0600 (Central Standard Time),159285.3999999985,CFD-WM-013-015-A.jpg,1700,dash,I,m,1288,9,2,37889.5,121395.89999999851,8004,ATS,A,11
12,prac,1,B,mfborder.png,1,z,Fri Nov 22 2024 15:13:46 GMT-0600 (Central Standard Time),162949.70000000298,CFD-BF-010-005-HC.jpg,1500,dash,I,z,1377,3,2,41553.80000000447,121395.89999999851,8004,ATS,A,12
1,test,1,A,haborder.png,1,m,Fri Nov 22 2024 15:13:46 GMT-0600 (Central Standard Time),185159.20000000298,CFD-BM-029-026-HC.jpg,1500,solid,I,m,1044,3,2,2565.8000000044703,182593.3999999985,8004,ATS,A,1
2,test,1,A,haborder.png,1,z,Fri Nov 22 2024 15:13:46 GMT-0600 (Central Standard Time),187108.80000000447,CFD-BF-023-013-A.jpg,1000,solid,I,z,930,4,2,4515.4000000059605,182593.3999999985,8004,ATS,A,2
3,test,1,A,haborder.png,1,z,Fri Nov 22 2024 15:13:46 GMT-0600 (Central Standard Time),189324.70000000298,CFD-BF-039-039-A.jpg,1200,solid,I,z,997,6,2,6731.30000000447,182593.3999999985,8004,ATS,A,3
4,test,1,A,haborder.png,1,m,Fri Nov 22 2024 15:13:46 GMT-0600 (Central Standard Time),191874.20000000298,CFD-WM-006-013-HC.jpg,1700,solid,I,m,833,9,2,9280.80000000447,182593.3999999985,8004,ATS,A,4
5,test,1,A,haborder.png,1,m,Fri Nov 22 2024 15:13:46 GMT-0600 (Central Standard Time),194073.30000000447,CFD-WM-004-005-HC.jpg,1400,solid,I,m,767,7,2,11479.90000000596,182593.3999999985,8004,ATS,A,5
6,test,1,A,haborder.png,1,m,Fri Nov 22 2024 15:13:46 GMT-0600 (Central Standard Time),196572.5,CFD-WM-006-013-HC.jpg,1700,solid,I,m,780,9,2,13979.10000000149,182593.3999999985,8004,ATS,A,6
7,test,1,A,haborder.png,1,z,Fri Nov 22 2024 15:13:46 GMT-0600 (Central Standard Time),198905.20000000298,CFD-BM-005-010-A.jpg,1600,solid,I,z,701,2,2,16311.80000000447,182593.3999999985,8004,ATS,A,7
8,test,1,A,haborder.png,1,m,Fri Nov 22 2024 15:13:46 GMT-0600 (Central Standard Time),201754.20000000298,CFD-WF-017-016-HC.jpg,1500,solid,I,m,1332,11,2,19160.80000000447,182593.3999999985,8004,ATS,A,8
9,test,1,A,haborder.png,1,z,Fri Nov 22 2024 15:13:46 GMT-0600 (Central Standard Time),203536.8999999985,CFD-BF-023-013-A.jpg,1000,solid,I,z,759,4,2,20943.5,182593.3999999985,8004,ATS,A,9
10,test,1,A,haborder.png,1,z,Fri Nov 22 2024 15:13:46 GMT-0600 (Central Standard Time),205369.70000000298,CFD-WF-019-015-A.jpg,1000,solid,I,z,800,12,2,22776.30000000447,182593.3999999985,8004,ATS,A,10
11,test,1,A,haborder.png,1,m,Fri Nov 22 2024 15:13:46 GMT-0600 (Central Standard Time),208368.5,CFD-BF-028-020-HC.jpg,2000,solid,I,m,967,5,2,25775.10000000149,182593.3999999985,8004,ATS,A,11
12,test,1,A,haborder.png,1,z,Fri Nov 22 2024 15:13:46 GMT-0600 (Central Standard Time),211018.1000000015,CFD-WF-003-014-A.jpg,1600,solid,I,z,1024,10,2,28424.70000000298,182593.3999999985,8004,ATS,A,12
13,test,1,A,haborder.png,1,z,Fri Nov 22 2024 15:13:46 GMT-0600 (Central Standard Time),214250.5,CFD-WM-013-015-A.jpg,1900,solid,I,z,1300,8,2,31657.10000000149,182593.3999999985,8004,ATS,A,13
14,test,1,A,haborder.png,1,z,Fri Nov 22 2024 15:13:46 GMT-0600 (Central Standard Time),216033.1000000015,CFD-WF-019-015-A.jpg,1000,solid,I,z,751,12,2,33439.70000000298,182593.3999999985,8004,ATS,A,14
15,test,1,A,haborder.png,1,z,Fri Nov 22 2024 15:13:46 GMT-0600 (Central Standard Time),218915.30000000447,CFD-WM-013-015-A.jpg,1900,solid,I,z,957,8,2,36321.90000000596,182593.3999999985,8004,ATS,A,15
16,test,1,A,haborder.png,1,z,Fri Nov 22 2024 15:13:46 GMT-0600 (Central Standard Time),221481.20000000298,CFD-BM-005-010-A.jpg,1600,solid,I,z,934,2,2,38887.80000000447,182593.3999999985,8004,ATS,A,16
17,test,1,A,haborder.png,1,z,Fri Nov 22 2024 15:13:46 GMT-0600 (Central Standard Time),223680.70000000298,CFD-BF-039-039-A.jpg,1200,solid,I,z,976,6,2,41087.30000000447,182593.3999999985,8004,ATS,A,17
18,test,1,A,haborder.png,1,m,Fri Nov 22 2024 15:13:46 GMT-0600 (Central Standard Time),226229.70000000298,CFD-BM-017-052-HC.jpg,1700,solid,I,m,821,1,2,43636.30000000447,182593.3999999985,8004,ATS,A,18
19,test,1,A,haborder.png,1,m,Fri Nov 22 2024 15:13:46 GMT-0600 (Central Standard Time),228512.3999999985,CFD-WM-004-005-HC.jpg,1400,solid,I,m,851,7,2,45919.0,182593.3999999985,8004,ATS,A,19
20,test,1,A,haborder.png,1,m,Fri Nov 22 2024 15:13:46 GMT-0600 (Central Standard Time),231278.20000000298,CFD-BM-017-052-HC.jpg,1700,solid,I,m,1045,1,2,48684.80000000447,182593.3999999985,8004,ATS,A,20
21,test,1,A,haborder.png,1,z,Fri Nov 22 2024 15:13:46 GMT-0600 (Central Standard Time),233594.5,CFD-WF-003-014-A.jpg,1600,solid,I,z,699,10,2,51001.10000000149,182593.3999999985,8004,ATS,A,21
22,test,1,A,haborder.png,1,m,Fri Nov 22 2024 15:13:46 GMT-0600 (Central Standard Time),236226.5,CFD-BM-029-026-HC.jpg,1500,solid,I,m,1115,3,2,53633.10000000149,182593.3999999985,8004,ATS,A,22
23,test,1,A,haborder.png,1,m,Fri Nov 22 2024 15:13:46 GMT-0600 (Central Standard Time),238509.20000000298,CFD-WF-017-016-HC.jpg,1500,solid,I,m,763,11,2,55915.80000000447,182593.3999999985,8004,ATS,A,23
24,test,1,A,haborder.png,1,m,Fri Nov 22 2024 15:13:46 GMT-0600 (Central Standard Time),241191.70000000298,CFD-BF-028-020-HC.jpg,2000,solid,I,m,652,5,2,58598.30000000447,182593.3999999985,8004,ATS,A,24
1,test,1,B,mfborder.png,1,z,Fri Nov 22 2024 15:13:46 GMT-0600 (Central Standard Time),258020.0,CFD-WF-003-014-A.jpg,1500,dash,I,z,731,11,2,2249.39999999851,255770.6000000015,8004,ATS,A,1
2,test,1,B,mfborder.png,1,z,Fri Nov 22 2024 15:13:46 GMT-0600 (Central Standard Time),260469.30000000447,CFD-BF-010-005-HC.jpg,1500,dash,I,z,921,3,2,4698.70000000298,255770.6000000015,8004,ATS,A,2
3,test,1,B,mfborder.png,1,z,Fri Nov 22 2024 15:13:46 GMT-0600 (Central Standard Time),263435.8999999985,CFD-WF-002-008-HC.jpg,1900,dash,I,z,1048,8,2,7665.29999999702,255770.6000000015,8004,ATS,A,3
4,test,1,B,mfborder.png,1,z,Fri Nov 22 2024 15:13:46 GMT-0600 (Central Standard Time),265784.1000000015,CFD-BF-028-020-HC.jpg,1400,dash,I,z,926,7,2,10013.5,255770.6000000015,8004,ATS,A,4
5,test,1,B,mfborder.png,1,m,Fri Nov 22 2024 15:13:46 GMT-0600 (Central Standard Time),268583.200000003,CFD-BM-005-010-A.jpg,2000,dash,I,m,778,5,2,12812.60000000149,255770.6000000015,8004,ATS,A,5
6,test,1,B,mfborder.png,1,m,Fri Nov 22 2024 15:13:46 GMT-0600 (Central Standard Time),271082.5,CFD-WM-006-013-HC.jpg,1600,dash,I,m,866,10,2,15311.89999999851,255770.6000000015,8004,ATS,A,6
7,test,1,B,mfborder.png,1,m,Fri Nov 22 2024 15:13:46 GMT-0600 (Central Standard Time),273565.0,CFD-WM-006-013-HC.jpg,1600,dash,I,m,863,10,2,17794.39999999851,255770.6000000015,8004,ATS,A,7
8,test,1,B,mfborder.png,1,m,Fri Nov 22 2024 15:13:46 GMT-0600 (Central Standard Time),275997.5,CFD-BM-010-019-A.jpg,1600,dash,I,m,812,2,2,20226.89999999851,255770.6000000015,8004,ATS,A,8
9,test,1,B,mfborder.png,1,m,Fri Nov 22 2024 15:13:46 GMT-0600 (Central Standard Time),278809.6000000015,CFD-BM-029-026-HC.jpg,1700,dash,I,m,1095,1,2,23039.0,255770.6000000015,8004,ATS,A,9
10,test,1,B,mfborder.png,1,z,Fri Nov 22 2024 15:13:46 GMT-0600 (Central Standard Time),281362.30000000447,CFD-BF-028-020-HC.jpg,1400,dash,I,z,1132,7,2,25591.70000000298,255770.6000000015,8004,ATS,A,10
11,test,1,B,mfborder.png,1,m,Fri Nov 22 2024 15:13:46 GMT-0600 (Central Standard Time),284578.1000000015,CFD-BM-005-010-A.jpg,2000,dash,I,m,1191,5,2,28807.5,255770.6000000015,8004,ATS,A,11
12,test,1,B,mfborder.png,1,m,Fri Nov 22 2024 15:13:46 GMT-0600 (Central Standard Time),287377.200000003,CFD-BM-029-026-HC.jpg,1700,dash,I,m,1067,1,2,31606.60000000149,255770.6000000015,8004,ATS,A,12
13,test,1,B,mfborder.png,1,z,Fri Nov 22 2024 15:13:46 GMT-0600 (Central Standard Time),289776.80000000447,CFD-BF-010-005-HC.jpg,1500,dash,I,z,876,3,2,34006.20000000298,255770.6000000015,8004,ATS,A,13
14,test,1,B,mfborder.png,1,m,Fri Nov 22 2024 15:13:46 GMT-0600 (Central Standard Time),292142.3999999985,CFD-WM-019-013-A.jpg,1200,dash,I,m,1145,6,2,36371.79999999702,255770.6000000015,8004,ATS,A,14
15,test,1,B,mfborder.png,1,z,Fri Nov 22 2024 15:13:46 GMT-0600 (Central Standard Time),294858.30000000447,CFD-WF-002-008-HC.jpg,1900,dash,I,z,783,8,2,39087.70000000298,255770.6000000015,8004,ATS,A,15
16,test,1,B,mfborder.png,1,z,Fri Nov 22 2024 15:13:46 GMT-0600 (Central Standard Time),297024.30000000447,CFD-BF-023-013-A.jpg,1000,dash,I,z,1143,4,2,41253.70000000298,255770.6000000015,8004,ATS,A,16
17,test,1,B,mfborder.png,1,m,Fri Nov 22 2024 15:13:46 GMT-0600 (Central Standard Time),299173.5,CFD-WM-019-013-A.jpg,1200,dash,I,m,929,6,2,43402.89999999851,255770.6000000015,8004,ATS,A,17
18,test,1,B,mfborder.png,1,z,Fri Nov 22 2024 15:13:46 GMT-0600 (Central Standard Time),301072.80000000447,CFD-BF-023-013-A.jpg,1000,dash,I,z,875,4,2,45302.20000000298,255770.6000000015,8004,ATS,A,18
19,test,1,B,mfborder.png,1,z,Fri Nov 22 2024 15:13:46 GMT-0600 (Central Standard Time),303089.1000000015,CFD-WF-017-016-HC.jpg,1000,dash,I,z,992,12,2,47318.5,255770.6000000015,8004,ATS,A,19
20,test,1,B,mfborder.png,1,m,Fri Nov 22 2024 15:13:46 GMT-0600 (Central Standard Time),305388.3999999985,CFD-BM-010-019-A.jpg,1600,dash,I,m,672,2,2,49617.79999999702,255770.6000000015,8004,ATS,A,20
21,test,1,B,mfborder.png,1,m,Fri Nov 22 2024 15:13:46 GMT-0600 (Central Standard Time),307987.5,CFD-WM-013-015-A.jpg,1700,dash,I,m,873,9,2,52216.89999999851,255770.6000000015,8004,ATS,A,21
22,test,1,B,mfborder.png,1,z,Fri Nov 22 2024 15:13:46 GMT-0600 (Central Standard Time),310153.200000003,CFD-WF-003-014-A.jpg,1500,dash,I,z,642,11,2,54382.60000000149,255770.6000000015,8004,ATS,A,22
23,test,1,B,mfborder.png,1,z,Fri Nov 22 2024 15:13:46 GMT-0600 (Central Standard Time),312236.200000003,CFD-WF-017-016-HC.jpg,1000,dash,I,z,1056,12,2,56465.60000000149,255770.6000000015,8004,ATS,A,23
24,test,1,B,mfborder.png,1,m,Fri Nov 22 2024 15:13:46 GMT-0600 (Central Standard Time),314702.30000000447,CFD-WM-013-015-A.jpg,1700,dash,I,m,745,9,2,58931.70000000298,255770.6000000015,8004,ATS,A,24
1,prac,1,C,haborder.png,1,z,Fri Nov 22 2024 15:13:46 GMT-0600 (Central Standard Time),360137.8999999985,CFD-BF-023-013-A.jpg,1900,dash,I,z,1381,7,2,4065.39999999851,356072.5,8004,ATS,A,1
2,prac,1,C,haborder.png,1,z,Fri Nov 22 2024 15:13:46 GMT-0600 (Central Standard Time),364087.0,CFD-BF-039-039-A.jpg,1700,solid,I,z,1452,8,2,8014.5,356072.5,8004,ATS,A,2
2,prac,1,C,mfborder.png,0,z,Fri Nov 22 2024 15:13:46 GMT-0600 (Central Standard Time),367885.3999999985,CFD-WF-019-015-A.jpg,1500,solid,I,None,1516,2,2,11812.89999999851,356072.5,8004,ATS,A,3
3,prac,1,C,haborder.png,1,z,Fri Nov 22 2024 15:13:46 GMT-0600 (Central Standard Time),371234.3999999985,CFD-WF-003-014-A.jpg,1600,dash,I,z,964,9,2,15161.89999999851,356072.5,8004,ATS,A,4
3,prac,1,C,mfborder.png,0,m,Fri Nov 22 2024 15:13:46 GMT-0600 (Central Standard Time),374200.1000000015,CFD-BM-005-010-A.jpg,1200,dash,I,z,983,5,2,18127.60000000149,356072.5,8004,ATS,A,5
4,prac,1,C,haborder.png,1,m,Fri Nov 22 2024 15:13:46 GMT-0600 (Central Standard Time),377432.5,CFD-WM-004-005-HC.jpg,1400,solid,I,m,1049,12,2,21360.0,356072.5,8004,ATS,A,6
5,prac,1,C,mfborder.png,1,z,Fri Nov 22 2024 15:13:46 GMT-0600 (Central Standard Time),380931.700000003,CFD-WF-017-016-HC.jpg,1600,dash,I,z,1105,1,2,24859.20000000298,356072.5,8004,ATS,A,7
5,prac,1,C,mfborder.png,0,m,Fri Nov 22 2024 15:13:46 GMT-0600 (Central Standard Time),384930.0,CFD-WM-013-015-A.jpg,1700,solid,I,None,1516,6,2,28857.5,356072.5,8004,ATS,A,8
6,prac,1,C,mfborder.png,1,m,Fri Nov 22 2024 15:13:46 GMT-0600 (Central Standard Time),388645.700000003,CFD-BM-017-052-HC.jpg,2000,solid,I,m,927,4,2,32573.20000000298,356072.5,8004,ATS,A,9
7,prac,1,C,mfborder.png,1,z,Fri Nov 22 2024 15:13:46 GMT-0600 (Central Standard Time),391494.700000003,CFD-BF-028-020-HC.jpg,1000,dash,I,z,1060,3,2,35422.20000000298,356072.5,8004,ATS,A,10
8,prac,1,C,haborder.png,1,m,Fri Nov 22 2024 15:13:46 GMT-0600 (Central Standard Time),394593.80000000447,CFD-WM-004-005-HC.jpg,1000,dash,I,m,1314,11,2,38521.30000000447,356072.5,8004,ATS,A,11
9,prac,1,C,haborder.png,1,m,Fri Nov 22 2024 15:13:46 GMT-0600 (Central Standard Time),397992.6000000015,CFD-BM-029-026-HC.jpg,1500,solid,I,m,1099,10,2,41920.10000000149,356072.5,8004,ATS,A,12
0,test,1,C,haborder.png,0,z,Fri Nov 22 2024 15:13:46 GMT-0600 (Central Standard Time),422101.8999999985,CFD-WM-013-015-A.jpg,1400,solid,I,m,1121,7,2,2549.1999999955297,419552.700000003,8004,ATS,A,1
1,test,1,C,mfborder.png,1,z,Fri Nov 22 2024 15:13:46 GMT-0600 (Central Standard Time),424850.80000000447,CFD-BF-023-013-A.jpg,1600,dash,I,z,1131,2,2,5298.10000000149,419552.700000003,8004,ATS,A,2
1,test,1,C,mfborder.png,0,m,Fri Nov 22 2024 15:13:46 GMT-0600 (Central Standard Time),428383.30000000447,CFD-WM-019-013-A.jpg,2000,dash,I,None,1515,5,2,8830.60000000149,419552.700000003,8004,ATS,A,3
2,test,1,C,mfborder.png,1,m,Fri Nov 22 2024 15:13:46 GMT-0600 (Central Standard Time),430882.6000000015,CFD-BM-029-026-HC.jpg,1200,dash,I,m,1266,6,2,11329.89999999851,419552.700000003,8004,ATS,A,4
3,test,1,C,mfborder.png,1,m,Fri Nov 22 2024 15:13:46 GMT-0600 (Central Standard Time),434098.0,CFD-WM-019-013-A.jpg,2000,dash,I,m,1191,5,2,14545.29999999702,419552.700000003,8004,ATS,A,5
3,test,1,C,haborder.png,0,m,Fri Nov 22 2024 15:13:46 GMT-0600 (Central Standard Time),437230.3999999985,CFD-BF-028-020-HC.jpg,1600,solid,I,None,1516,10,2,17677.69999999553,419552.700000003,8004,ATS,A,6
4,test,1,C,haborder.png,1,z,Fri Nov 22 2024 15:13:46 GMT-0600 (Central Standard Time),440446.1000000015,CFD-BM-005-010-A.jpg,1900,solid,I,z,1295,8,2,20893.39999999851,419552.700000003,8004,ATS,A,7
5,test,1,C,mfborder.png,1,m,Fri Nov 22 2024 15:13:46 GMT-0600 (Central Standard Time),442845.200000003,CFD-WM-006-013-HC.jpg,1000,dash,I,m,1371,4,2,23292.5,419552.700000003,8004,ATS,A,8
5,test,1,C,mfborder.png,0,z,Fri Nov 22 2024 15:13:46 GMT-0600 (Central Standard Time),446077.700000003,CFD-BF-010-005-HC.jpg,1700,dash,I,None,1516,1,2,26525.0,419552.700000003,8004,ATS,A,9
6,test,1,C,mfborder.png,1,m,Fri Nov 22 2024 15:13:46 GMT-0600 (Central Standard Time),448710.1000000015,CFD-BM-029-026-HC.jpg,1200,dash,I,m,1412,6,2,29157.39999999851,419552.700000003,8004,ATS,A,10
6,test,1,C,haborder.png,0,z,Fri Nov 22 2024 15:13:46 GMT-0600 (Central Standard Time),452142.700000003,CFD-BM-005-010-A.jpg,1900,solid,I,None,1516,8,2,32590.0,419552.700000003,8004,ATS,A,11
7,test,1,C,mfborder.png,1,m,Fri Nov 22 2024 15:13:46 GMT-0600 (Central Standard Time),454491.700000003,CFD-WM-006-013-HC.jpg,1000,dash,I,m,1323,4,2,34939.0,419552.700000003,8004,ATS,A,12
8,test,1,C,haborder.png,1,m,Fri Nov 22 2024 15:13:46 GMT-0600 (Central Standard Time),456807.700000003,CFD-WF-017-016-HC.jpg,1000,solid,I,m,1286,12,2,37255.0,419552.700000003,8004,ATS,A,13
9,test,1,C,mfborder.png,1,z,Fri Nov 22 2024 15:13:46 GMT-0600 (Central Standard Time),459740.1000000015,CFD-BF-010-005-HC.jpg,1700,dash,I,z,1214,1,2,40187.39999999851,419552.700000003,8004,ATS,A,14
10,test,1,C,haborder.png,1,m,Fri Nov 22 2024 15:13:46 GMT-0600 (Central Standard Time),462539.3999999985,CFD-WF-002-008-HC.jpg,1500,solid,I,m,1273,11,2,42986.69999999553,419552.700000003,8004,ATS,A,15
11,test,1,C,mfborder.png,1,z,Fri Nov 22 2024 15:13:46 GMT-0600 (Central Standard Time),465238.1000000015,CFD-WF-003-014-A.jpg,1500,dash,I,z,1171,3,2,45685.39999999851,419552.700000003,8004,ATS,A,16
12,test,1,C,mfborder.png,1,z,Fri Nov 22 2024 15:13:46 GMT-0600 (Central Standard Time),468204.0,CFD-BF-023-013-A.jpg,1600,dash,I,z,1347,2,2,48651.29999999702,419552.700000003,8004,ATS,A,17
13,test,1,C,haborder.png,1,m,Fri Nov 22 2024 15:13:46 GMT-0600 (Central Standard Time),470903.30000000447,CFD-BF-028-020-HC.jpg,1600,solid,I,m,1077,10,2,51350.60000000149,419552.700000003,8004,ATS,A,18
14,test,1,C,haborder.png,1,z,Fri Nov 22 2024 15:13:46 GMT-0600 (Central Standard Time),474002.200000003,CFD-BM-010-019-A.jpg,1700,solid,I,z,1366,9,2,54449.5,419552.700000003,8004,ATS,A,19
15,test,1,C,haborder.png,1,m,Fri Nov 22 2024 15:13:46 GMT-0600 (Central Standard Time),476401.5,CFD-WF-017-016-HC.jpg,1000,solid,I,m,1367,12,2,56848.79999999702,419552.700000003,8004,ATS,A,20
16,test,1,C,haborder.png,1,z,Fri Nov 22 2024 15:13:46 GMT-0600 (Central Standard Time),478950.80000000447,CFD-WM-013-015-A.jpg,1400,solid,I,z,1120,7,2,59398.10000000149,419552.700000003,8004,ATS,A,21
17,test,1,C,haborder.png,1,m,Fri Nov 22 2024 15:13:46 GMT-0600 (Central Standard Time),481866.30000000447,CFD-WF-002-008-HC.jpg,1500,solid,I,m,1399,11,2,62313.60000000149,419552.700000003,8004,ATS,A,22
18,test,1,C,haborder.png,1,z,Fri Nov 22 2024 15:13:46 GMT-0600 (Central Standard Time),484715.6000000015,CFD-BM-010-019-A.jpg,1700,solid,I,z,1131,9,2,65162.89999999851,419552.700000003,8004,ATS,A,23
19,test,1,C,mfborder.png,1,z,Fri Nov 22 2024 15:13:46 GMT-0600 (Central Standard Time),487364.700000003,CFD-WF-003-014-A.jpg,1500,dash,I,z,1130,3,2,67812.0,419552.700000003,8004,ATS,A,24
1,test,2,C,mfborder.png,1,z,Fri Nov 22 2024 15:13:46 GMT-0600 (Central Standard Time),499894.200000003,CFD-WF-019-015-A.jpg,1600,dash,I,z,1453,2,2,3082.2000000029802,496812.0,8004,ATS,A,1
2,test,2,C,haborder.png,1,m,Fri Nov 22 2024 15:13:46 GMT-0600 (Central Standard Time),502810.200000003,CFD-BM-029-026-HC.jpg,1600,solid,I,m,1283,10,2,5998.20000000298,496812.0,8004,ATS,A,2
3,test,2,C,mfborder.png,1,z,Fri Nov 22 2024 15:13:46 GMT-0600 (Central Standard Time),505825.80000000447,CFD-WF-017-016-HC.jpg,1700,dash,I,z,1284,1,2,9013.80000000447,496812.0,8004,ATS,A,3
3,test,2,C,mfborder.png,0,z,Fri Nov 22 2024 15:13:46 GMT-0600 (Central Standard Time),508959.200000003,CFD-WF-019-015-A.jpg,1600,dash,I,None,1517,2,2,12147.20000000298,496812.0,8004,ATS,A,4
4,test,2,C,haborder.png,1,m,Fri Nov 22 2024 15:13:46 GMT-0600 (Central Standard Time),511924.700000003,CFD-WM-004-005-HC.jpg,1500,solid,I,m,1448,11,2,15112.70000000298,496812.0,8004,ATS,A,5
5,test,2,C,mfborder.png,1,m,Fri Nov 22 2024 15:13:46 GMT-0600 (Central Standard Time),514356.200000003,CFD-BM-017-052-HC.jpg,1000,dash,I,m,1407,4,2,17544.20000000298,496812.0,8004,ATS,A,6
6,test,2,C,haborder.png,1,m,Fri Nov 22 2024 15:13:46 GMT-0600 (Central Standard Time),516855.30000000447,CFD-WM-004-005-HC.jpg,1000,solid,I,m,1469,12,2,20043.30000000447,496812.0,8004,ATS,A,7
6,test,2,C,mfborder.png,0,m,Fri Nov 22 2024 15:13:46 GMT-0600 (Central Standard Time),519204.80000000447,CFD-WM-013-015-A.jpg,1200,dash,I,z,1122,6,2,22392.80000000447,496812.0,8004,ATS,A,8
7,test,2,C,haborder.png,1,m,Fri Nov 22 2024 15:13:46 GMT-0600 (Central Standard Time),521820.6000000015,CFD-BM-029-026-HC.jpg,1600,solid,I,m,989,10,2,25008.60000000149,496812.0,8004,ATS,A,9
8,test,2,C,mfborder.png,1,z,Fri Nov 22 2024 15:13:46 GMT-0600 (Central Standard Time),524486.700000003,CFD-BF-028-020-HC.jpg,1500,dash,I,z,1145,3,2,27674.70000000298,496812.0,8004,ATS,A,10
9,test,2,C,mfborder.png,1,z,Fri Nov 22 2024 15:13:46 GMT-0600 (Central Standard Time),527635.5,CFD-WF-017-016-HC.jpg,1700,dash,I,z,1423,1,2,30823.5,496812.0,8004,ATS,A,11
10,test,2,C,mfborder.png,1,m,Fri Nov 22 2024 15:13:46 GMT-0600 (Central Standard Time),531151.200000003,CFD-BM-005-010-A.jpg,2000,dash,I,m,1486,5,2,34339.20000000298,496812.0,8004,ATS,A,12
11,test,2,C,haborder.png,1,m,Fri Nov 22 2024 15:13:46 GMT-0600 (Central Standard Time),533883.6000000015,CFD-WM-004-005-HC.jpg,1500,solid,I,m,1207,11,2,37071.60000000149,496812.0,8004,ATS,A,13
12,test,2,C,haborder.png,1,z,Fri Nov 22 2024 15:13:46 GMT-0600 (Central Standard Time),536482.8000000045,CFD-BF-023-013-A.jpg,1400,solid,I,z,1174,7,2,39670.80000000447,496812.0,8004,ATS,A,14
13,test,2,C,haborder.png,1,z,Fri Nov 22 2024 15:13:46 GMT-0600 (Central Standard Time),539131.8999999985,CFD-BF-023-013-A.jpg,1400,solid,I,z,1231,7,2,42319.89999999851,496812.0,8004,ATS,A,15
14,test,2,C,mfborder.png,1,m,Fri Nov 22 2024 15:13:46 GMT-0600 (Central Standard Time),541714.3999999985,CFD-WM-013-015-A.jpg,1200,dash,I,m,1365,6,2,44902.39999999851,496812.0,8004,ATS,A,16
14,test,2,C,mfborder.png,0,m,Fri Nov 22 2024 15:13:46 GMT-0600 (Central Standard Time),544246.8999999985,CFD-BM-017-052-HC.jpg,1000,dash,I,None,1516,4,2,47434.89999999851,496812.0,8004,ATS,A,17
14,test,2,C,mfborder.png,0,m,Fri Nov 22 2024 15:13:46 GMT-0600 (Central Standard Time),547779.200000003,CFD-BM-005-010-A.jpg,2000,dash,I,None,1516,5,2,50967.20000000298,496812.0,8004,ATS,A,18
14,test,2,C,haborder.png,0,z,Fri Nov 22 2024 15:13:46 GMT-0600 (Central Standard Time),551211.5,CFD-BF-039-039-A.jpg,1900,solid,I,None,1515,8,2,54399.5,496812.0,8004,ATS,A,19
15,test,2,C,mfborder.png,1,z,Fri Nov 22 2024 15:13:46 GMT-0600 (Central Standard Time),553893.8999999985,CFD-BF-028-020-HC.jpg,1500,dash,I,z,1154,3,2,57081.89999999851,496812.0,8004,ATS,A,20
16,test,2,C,haborder.png,1,z,Fri Nov 22 2024 15:13:46 GMT-0600 (Central Standard Time),557025.8999999985,CFD-WF-003-014-A.jpg,1700,solid,I,z,1416,9,2,60213.89999999851,496812.0,8004,ATS,A,21
17,test,2,C,haborder.png,1,z,Fri Nov 22 2024 15:13:46 GMT-0600 (Central Standard Time),560125.3000000045,CFD-BF-039-039-A.jpg,1900,solid,I,z,1180,8,2,63313.30000000447,496812.0,8004,ATS,A,22
18,test,2,C,haborder.png,1,z,Fri Nov 22 2024 15:13:46 GMT-0600 (Central Standard Time),563024.1000000015,CFD-WF-003-014-A.jpg,1700,solid,I,z,1176,9,2,66212.10000000149,496812.0,8004,ATS,A,23
19,test,2,C,haborder.png,1,m,Fri Nov 22 2024 15:13:46 GMT-0600 (Central Standard Time),565256.700000003,CFD-WM-004-005-HC.jpg,1000,solid,I,m,1201,12,2,68444.70000000298,496812.0,8004,ATS,A,24
0,test,3,C,mfborder.png,0,m,Fri Nov 22 2024 15:13:46 GMT-0600 (Central Standard Time),574920.5,CFD-WM-006-013-HC.jpg,1000,dash,I,z,1435,4,2,2465.89999999851,572454.6000000015,8004,ATS,A,1
1,test,3,C,mfborder.png,1,z,Fri Nov 22 2024 15:13:46 GMT-0600 (Central Standard Time),577952.8000000045,CFD-BF-010-005-HC.jpg,1700,dash,I,z,1309,1,2,5498.20000000298,572454.6000000015,8004,ATS,A,2
2,test,3,C,haborder.png,1,z,Fri Nov 22 2024 15:13:46 GMT-0600 (Central Standard Time),580668.5,CFD-BM-010-019-A.jpg,1700,solid,I,z,989,9,2,8213.89999999851,572454.6000000015,8004,ATS,A,3
3,test,3,C,mfborder.png,1,z,Fri Nov 22 2024 15:13:46 GMT-0600 (Central Standard Time),583784.200000003,CFD-BF-010-005-HC.jpg,1700,dash,I,z,1393,1,2,11329.60000000149,572454.6000000015,8004,ATS,A,4
4,test,3,C,haborder.png,1,z,Fri Nov 22 2024 15:13:46 GMT-0600 (Central Standard Time),586650.0,CFD-BM-005-010-A.jpg,1900,solid,I,z,941,8,2,14195.39999999851,572454.6000000015,8004,ATS,A,5
4,test,3,C,mfborder.png,0,m,Fri Nov 22 2024 15:13:46 GMT-0600 (Central Standard Time),589182.8999999985,CFD-WM-006-013-HC.jpg,1000,dash,I,None,1516,4,2,16728.29999999702,572454.6000000015,8004,ATS,A,6
5,test,3,C,mfborder.png,1,m,Fri Nov 22 2024 15:13:46 GMT-0600 (Central Standard Time),591598.5,CFD-BM-029-026-HC.jpg,1200,dash,I,m,1187,6,2,19143.89999999851,572454.6000000015,8004,ATS,A,7
6,test,3,C,mfborder.png,1,z,Fri Nov 22 2024 15:13:46 GMT-0600 (Central Standard Time),594130.8999999985,CFD-BF-023-013-A.jpg,1600,dash,I,z,915,2,2,21676.29999999702,572454.6000000015,8004,ATS,A,8
7,test,3,C,haborder.png,1,m,Fri Nov 22 2024 15:13:46 GMT-0600 (Central Standard Time),596748.0,CFD-BF-028-020-HC.jpg,1600,solid,I,m,998,10,2,24293.39999999851,572454.6000000015,8004,ATS,A,9
8,test,3,C,haborder.png,1,m,Fri Nov 22 2024 15:13:46 GMT-0600 (Central Standard Time),598879.8000000045,CFD-WF-017-016-HC.jpg,1000,solid,I,m,1109,12,2,26425.20000000298,572454.6000000015,8004,ATS,A,10
8,test,3,C,haborder.png,0,z,Fri Nov 22 2024 15:13:46 GMT-0600 (Central Standard Time),601812.3000000045,CFD-WM-013-015-A.jpg,1400,solid,I,None,1516,7,2,29357.70000000298,572454.6000000015,8004,ATS,A,11
9,test,3,C,mfborder.png,1,m,Fri Nov 22 2024 15:13:46 GMT-0600 (Central Standard Time),605244.1000000015,CFD-WM-019-013-A.jpg,2000,dash,I,m,1413,5,2,32789.5,572454.6000000015,8004,ATS,A,12
10,test,3,C,haborder.png,1,z,Fri Nov 22 2024 15:13:46 GMT-0600 (Central Standard Time),608289.3999999985,CFD-BM-005-010-A.jpg,1900,solid,I,z,1128,8,2,35834.79999999702,572454.6000000015,8004,ATS,A,13
10,test,3,C,haborder.png,0,m,Fri Nov 22 2024 15:13:46 GMT-0600 (Central Standard Time),610825.8999999985,CFD-WF-017-016-HC.jpg,1000,solid,I,None,1516,12,2,38371.29999999702,572454.6000000015,8004,ATS,A,14
11,test,3,C,haborder.png,1,m,Fri Nov 22 2024 15:13:46 GMT-0600 (Central Standard Time),613524.8999999985,CFD-WF-002-008-HC.jpg,1500,solid,I,m,1172,11,2,41070.29999999702,572454.6000000015,8004,ATS,A,15
12,test,3,C,mfborder.png,1,z,Fri Nov 22 2024 15:13:46 GMT-0600 (Central Standard Time),616107.5,CFD-BF-023-013-A.jpg,1600,dash,I,z,957,2,2,43652.89999999851,572454.6000000015,8004,ATS,A,16
13,test,3,C,haborder.png,1,m,Fri Nov 22 2024 15:13:46 GMT-0600 (Central Standard Time),618690.5,CFD-BF-028-020-HC.jpg,1600,solid,I,m,958,10,2,46235.89999999851,572454.6000000015,8004,ATS,A,17
14,test,3,C,mfborder.png,1,m,Fri Nov 22 2024 15:13:46 GMT-0600 (Central Standard Time),621722.5,CFD-WM-019-013-A.jpg,2000,dash,I,m,1016,5,2,49267.89999999851,572454.6000000015,8004,ATS,A,18
15,test,3,C,mfborder.png,1,z,Fri Nov 22 2024 15:13:46 GMT-0600 (Central Standard Time),624404.700000003,CFD-WF-003-014-A.jpg,1500,dash,I,z,1155,3,2,51950.10000000149,572454.6000000015,8004,ATS,A,19
16,test,3,C,haborder.png,1,z,Fri Nov 22 2024 15:13:46 GMT-0600 (Central Standard Time),627170.700000003,CFD-WM-013-015-A.jpg,1400,solid,I,z,1341,7,2,54716.10000000149,572454.6000000015,8004,ATS,A,20
16,test,3,C,mfborder.png,0,m,Fri Nov 22 2024 15:13:46 GMT-0600 (Central Standard Time),629903.200000003,CFD-BM-029-026-HC.jpg,1200,dash,I,None,1516,6,2,57448.60000000149,572454.6000000015,8004,ATS,A,21
17,test,3,C,haborder.png,1,z,Fri Nov 22 2024 15:13:46 GMT-0600 (Central Standard Time),632718.8999999985,CFD-BM-010-019-A.jpg,1700,solid,I,z,1087,9,2,60264.29999999702,572454.6000000015,8004,ATS,A,22
17,test,3,C,mfborder.png,0,z,Fri Nov 22 2024 15:13:46 GMT-0600 (Central Standard Time),635751.3000000045,CFD-WF-003-014-A.jpg,1500,dash,I,None,1516,3,2,63296.70000000298,572454.6000000015,8004,ATS,A,23
18,test,3,C,haborder.png,1,m,Fri Nov 22 2024 15:13:46 GMT-0600 (Central Standard Time),638300.700000003,CFD-WF-002-008-HC.jpg,1500,solid,I,m,1022,11,2,65846.10000000149,572454.6000000015,8004,ATS,A,24
1,test,4,C,mfborder.png,1,z,Fri Nov 22 2024 15:13:46 GMT-0600 (Central Standard Time),645215.3000000045,CFD-WF-019-015-A.jpg,1600,dash,I,z,927,2,2,2548.9000000059605,642666.3999999985,8004,ATS,A,1
2,test,4,C,mfborder.png,1,z,Fri Nov 22 2024 15:13:46 GMT-0600 (Central Standard Time),648147.700000003,CFD-BF-028-020-HC.jpg,1500,dash,I,z,1414,3,2,5481.30000000447,642666.3999999985,8004,ATS,A,2
3,test,4,C,mfborder.png,1,z,Fri Nov 22 2024 15:13:46 GMT-0600 (Central Standard Time),650980.1000000015,CFD-WF-017-016-HC.jpg,1700,dash,I,z,1114,1,2,8313.70000000298,642666.3999999985,8004,ATS,A,3
4,test,4,C,mfborder.png,1,m,Fri Nov 22 2024 15:13:46 GMT-0600 (Central Standard Time),653329.3000000045,CFD-WM-013-015-A.jpg,1200,dash,I,m,1124,6,2,10662.90000000596,642666.3999999985,8004,ATS,A,4
4,test,4,C,haborder.png,0,z,Fri Nov 22 2024 15:13:46 GMT-0600 (Central Standard Time),656878.5,CFD-BF-039-039-A.jpg,1900,solid,I,None,1502,8,2,14212.10000000149,642666.3999999985,8004,ATS,A,5
5,test,4,C,haborder.png,1,m,Fri Nov 22 2024 15:13:46 GMT-0600 (Central Standard Time),658844.3000000045,CFD-WM-004-005-HC.jpg,1000,solid,I,m,947,12,2,16177.90000000596,642666.3999999985,8004,ATS,A,6
6,test,4,C,haborder.png,1,m,Fri Nov 22 2024 15:13:46 GMT-0600 (Central Standard Time),661010.1000000015,CFD-WM-004-005-HC.jpg,1500,solid,I,m,649,11,2,18343.70000000298,642666.3999999985,8004,ATS,A,7
7,test,4,C,haborder.png,1,m,Fri Nov 22 2024 15:13:46 GMT-0600 (Central Standard Time),663126.3000000045,CFD-WM-004-005-HC.jpg,1500,solid,I,m,587,11,2,20459.90000000596,642666.3999999985,8004,ATS,A,8
7,test,4,C,mfborder.png,0,m,Fri Nov 22 2024 15:13:46 GMT-0600 (Central Standard Time),666392.0,CFD-BM-005-010-A.jpg,2000,dash,I,z,1235,5,2,23725.60000000149,642666.3999999985,8004,ATS,A,9
8,test,4,C,mfborder.png,1,m,Fri Nov 22 2024 15:13:46 GMT-0600 (Central Standard Time),668258.1000000015,CFD-BM-017-052-HC.jpg,1000,dash,I,m,849,4,2,25591.70000000298,642666.3999999985,8004,ATS,A,10
9,test,4,C,mfborder.png,1,z,Fri Nov 22 2024 15:13:46 GMT-0600 (Central Standard Time),670790.6000000015,CFD-WF-019-015-A.jpg,1600,dash,I,z,903,2,2,28124.20000000298,642666.3999999985,8004,ATS,A,11
10,test,4,C,mfborder.png,1,z,Fri Nov 22 2024 15:13:46 GMT-0600 (Central Standard Time),673706.3000000045,CFD-WF-017-016-HC.jpg,1700,dash,I,z,1183,1,2,31039.90000000596,642666.3999999985,8004,ATS,A,12
11,test,4,C,haborder.png,1,z,Fri Nov 22 2024 15:13:46 GMT-0600 (Central Standard Time),677088.8000000045,CFD-BF-039-039-A.jpg,1900,solid,I,z,1451,8,2,34422.40000000596,642666.3999999985,8004,ATS,A,13
12,test,4,C,haborder.png,1,z,Fri Nov 22 2024 15:13:46 GMT-0600 (Central Standard Time),680071.0,CFD-WF-003-014-A.jpg,1700,solid,I,z,1156,9,2,37404.60000000149,642666.3999999985,8004,ATS,A,14
13,test,4,C,haborder.png,1,m,Fri Nov 22 2024 15:13:46 GMT-0600 (Central Standard Time),682686.8000000045,CFD-BM-029-026-HC.jpg,1600,solid,I,m,986,10,2,40020.40000000596,642666.3999999985,8004,ATS,A,15
14,test,4,C,mfborder.png,1,m,Fri Nov 22 2024 15:13:46 GMT-0600 (Central Standard Time),685852.5,CFD-BM-005-010-A.jpg,2000,dash,I,m,1147,5,2,43186.10000000149,642666.3999999985,8004,ATS,A,16
15,test,4,C,mfborder.png,1,z,Fri Nov 22 2024 15:13:46 GMT-0600 (Central Standard Time),688418.700000003,CFD-BF-028-020-HC.jpg,1500,dash,I,z,1033,3,2,45752.30000000447,642666.3999999985,8004,ATS,A,17
15,test,4,C,haborder.png,0,z,Fri Nov 22 2024 15:13:46 GMT-0600 (Central Standard Time),691352.0,CFD-BF-023-013-A.jpg,1400,solid,I,None,1514,7,2,48685.60000000149,642666.3999999985,8004,ATS,A,18
16,test,4,C,haborder.png,1,z,Fri Nov 22 2024 15:13:46 GMT-0600 (Central Standard Time),694200.0,CFD-WF-003-014-A.jpg,1700,solid,I,z,1118,9,2,51533.60000000149,642666.3999999985,8004,ATS,A,19
17,test,4,C,haborder.png,1,m,Fri Nov 22 2024 15:13:46 GMT-0600 (Central Standard Time),696782.6000000015,CFD-BM-029-026-HC.jpg,1600,solid,I,m,953,10,2,54116.20000000298,642666.3999999985,8004,ATS,A,20
18,test,4,C,haborder.png,1,m,Fri Nov 22 2024 15:13:46 GMT-0600 (Central Standard Time),698965.200000003,CFD-WM-004-005-HC.jpg,1000,solid,I,m,1155,12,2,56298.80000000447,642666.3999999985,8004,ATS,A,21
18,test,4,C,mfborder.png,0,m,Fri Nov 22 2024 15:13:46 GMT-0600 (Central Standard Time),701497.700000003,CFD-BM-017-052-HC.jpg,1000,dash,I,None,1516,4,2,58831.30000000447,642666.3999999985,8004,ATS,A,22
19,test,4,C,mfborder.png,1,m,Fri Nov 22 2024 15:13:46 GMT-0600 (Central Standard Time),703780.3000000045,CFD-WM-013-015-A.jpg,1200,dash,I,m,1064,6,2,61113.90000000596,642666.3999999985,8004,ATS,A,23
20,test,4,C,haborder.png,1,z,Fri Nov 22 2024 15:13:46 GMT-0600 (Central Standard Time),706512.8999999985,CFD-BF-023-013-A.jpg,1400,solid,I,z,1301,7,2,63846.5,642666.3999999985,8004,ATS,A,24
