acc_sum,block,block_c,block_cond,con_img,correct,correct_response,datetime,endtime,face,jitter,line,project,response,response_time,row_sel,session_number,start_end,starttime,subject_id,task,task_vers,trial
0,prac,1,A,haborder.png,0,m,Tue Mar 11 2025 16:16:39 GMT-0500 (Central Daylight Time),46125.39999999851,CFD-BM-015-017-HC.jpg,1700,solid,I,None,1516,1,3,3998.7999999970198,42126.60000000149,8004,ATS,B,1
1,prac,1,A,haborder.png,1,m,Tue Mar 11 2025 16:16:39 GMT-0500 (Central Daylight Time),49157.89999999851,CFD-WF-011-006-HC.jpg,1500,solid,I,m,744,11,3,7031.29999999702,42126.60000000149,8004,ATS,B,2
2,prac,1,A,haborder.png,1,z,Tue Mar 11 2025 16:16:39 GMT-0500 (Central Daylight Time),52540.0,CFD-BM-037-041-A.jpg,1600,solid,I,z,987,2,3,10413.39999999851,42126.60000000149,8004,ATS,B,3
3,prac,1,A,haborder.png,1,z,Tue Mar 11 2025 16:16:39 GMT-0500 (Central Daylight Time),55255.79999999702,CFD-BF-051-043-A.jpg,1000,solid,I,z,917,4,3,13129.19999999553,42126.60000000149,8004,ATS,B,4
4,prac,1,A,haborder.png,1,z,Tue Mar 11 2025 16:16:39 GMT-0500 (Central Daylight Time),58205.0,CFD-BF-050-012-A.jpg,1200,solid,I,z,960,6,3,16078.39999999851,42126.60000000149,8004,ATS,B,5
5,prac,1,A,haborder.png,1,m,Tue Mar 11 2025 16:16:39 GMT-0500 (Central Daylight Time),61287.20000000298,CFD-BM-020-024-HC.jpg,1500,solid,I,m,783,3,3,19160.60000000149,42126.60000000149,8004,ATS,B,6
6,prac,1,A,haborder.png,1,m,Tue Mar 11 2025 16:16:39 GMT-0500 (Central Daylight Time),64269.89999999851,CFD-WM-011-006-HC.jpg,1400,solid,I,m,785,7,3,22143.29999999702,42126.60000000149,8004,ATS,B,7
7,prac,1,A,haborder.png,1,m,Tue Mar 11 2025 16:16:39 GMT-0500 (Central Daylight Time),67618.60000000149,CFD-WM-012-007-HC.jpg,1700,solid,I,m,856,9,3,25492.0,42126.60000000149,8004,ATS,B,8
8,prac,1,A,haborder.png,1,m,Tue Mar 11 2025 16:16:39 GMT-0500 (Central Daylight Time),71184.10000000149,CFD-BF-035-007-HC.jpg,2000,solid,I,m,774,5,3,29057.5,42126.60000000149,8004,ATS,B,9
9,prac,1,A,haborder.png,1,z,Tue Mar 11 2025 16:16:39 GMT-0500 (Central Daylight Time),73833.29999999702,CFD-WF-013-015-A.jpg,1000,solid,I,z,857,12,3,31706.69999999553,42126.60000000149,8004,ATS,B,10
10,prac,1,A,haborder.png,1,z,Tue Mar 11 2025 16:16:39 GMT-0500 (Central Daylight Time),77465.70000000298,CFD-WM-009-009-A.jpg,1900,solid,I,z,948,8,3,35339.10000000149,42126.60000000149,8004,ATS,B,11
11,prac,1,A,haborder.png,1,z,Tue Mar 11 2025 16:16:39 GMT-0500 (Central Daylight Time),80747.89999999851,CFD-WF-026-008-A.jpg,1600,solid,I,z,896,10,3,38621.29999999702,42126.60000000149,8004,ATS,B,12
0,prac,1,B,mfborder.png,0,z,Tue Mar 11 2025 16:16:39 GMT-0500 (Central Daylight Time),100225.0,CFD-BF-035-007-HC.jpg,1400,dash,I,None,1516,7,3,3698.60000000149,96526.39999999851,8004,ATS,B,1
1,prac,1,B,mfborder.png,1,z,Tue Mar 11 2025 16:16:39 GMT-0500 (Central Daylight Time),103407.70000000298,CFD-WF-026-008-A.jpg,1500,dash,I,z,883,11,3,6881.30000000447,96526.39999999851,8004,ATS,B,2
2,prac,1,B,mfborder.png,1,z,Tue Mar 11 2025 16:16:39 GMT-0500 (Central Daylight Time),106940.0,CFD-WF-027-007-HC.jpg,1900,dash,I,z,845,8,3,10413.60000000149,96526.39999999851,8004,ATS,B,3
3,prac,1,B,mfborder.png,1,m,Tue Mar 11 2025 16:16:39 GMT-0500 (Central Daylight Time),109872.0,CFD-WM-037-060-A.jpg,1200,dash,I,m,942,6,3,13345.60000000149,96526.39999999851,8004,ATS,B,4
3,prac,1,B,mfborder.png,0,z,Tue Mar 11 2025 16:16:39 GMT-0500 (Central Daylight Time),113287.70000000298,CFD-BF-027-013-HC.jpg,1500,dash,I,m,1124,3,3,16761.30000000447,96526.39999999851,8004,ATS,B,5
4,prac,1,B,mfborder.png,1,m,Tue Mar 11 2025 16:16:39 GMT-0500 (Central Daylight Time),117286.39999999851,CFD-BM-037-041-A.jpg,2000,dash,I,m,1206,5,3,20760.0,96526.39999999851,8004,ATS,B,6
5,prac,1,B,mfborder.png,1,m,Tue Mar 11 2025 16:16:39 GMT-0500 (Central Daylight Time),120651.89999999851,CFD-BM-020-024-HC.jpg,1700,dash,I,m,870,1,3,24125.5,96526.39999999851,8004,ATS,B,7
6,prac,1,B,mfborder.png,1,m,Tue Mar 11 2025 16:16:39 GMT-0500 (Central Daylight Time),123951.0,CFD-WM-012-007-HC.jpg,1600,dash,I,m,900,10,3,27424.60000000149,96526.39999999851,8004,ATS,B,8
7,prac,1,B,mfborder.png,1,z,Tue Mar 11 2025 16:16:39 GMT-0500 (Central Daylight Time),126516.79999999702,CFD-BF-051-043-A.jpg,1000,dash,I,z,770,4,3,29990.39999999851,96526.39999999851,8004,ATS,B,9
8,prac,1,B,mfborder.png,1,m,Tue Mar 11 2025 16:16:39 GMT-0500 (Central Daylight Time),129865.60000000149,CFD-BM-041-048-A.jpg,1600,dash,I,m,957,2,3,33339.20000000298,96526.39999999851,8004,ATS,B,10
9,prac,1,B,mfborder.png,1,m,Tue Mar 11 2025 16:16:39 GMT-0500 (Central Daylight Time),133198.1000000015,CFD-WM-009-009-A.jpg,1700,dash,I,m,835,9,3,36671.70000000298,96526.39999999851,8004,ATS,B,11
10,prac,1,B,mfborder.png,1,z,Tue Mar 11 2025 16:16:39 GMT-0500 (Central Daylight Time),136013.8999999985,CFD-WF-011-006-HC.jpg,1000,dash,I,z,1018,12,3,39487.5,96526.39999999851,8004,ATS,B,12
1,test,1,A,haborder.png,1,z,Tue Mar 11 2025 16:16:39 GMT-0500 (Central Daylight Time),152642.20000000298,CFD-WM-009-009-A.jpg,1900,solid,I,z,1366,8,3,3299.3000000044703,149342.8999999985,8004,ATS,B,1
2,test,1,A,haborder.png,1,z,Tue Mar 11 2025 16:16:39 GMT-0500 (Central Daylight Time),154424.70000000298,CFD-WF-013-015-A.jpg,1000,solid,I,z,750,12,3,5081.80000000447,149342.8999999985,8004,ATS,B,2
3,test,1,A,haborder.png,1,m,Tue Mar 11 2025 16:16:39 GMT-0500 (Central Daylight Time),156857.29999999702,CFD-WM-012-007-HC.jpg,1700,solid,I,m,709,9,3,7514.39999999851,149342.8999999985,8004,ATS,B,3
4,test,1,A,haborder.png,1,z,Tue Mar 11 2025 16:16:39 GMT-0500 (Central Daylight Time),159323.29999999702,CFD-BM-037-041-A.jpg,1600,solid,I,z,839,2,3,9980.39999999851,149342.8999999985,8004,ATS,B,4
4,test,1,A,haborder.png,0,m,Tue Mar 11 2025 16:16:39 GMT-0500 (Central Daylight Time),161739.20000000298,CFD-BM-020-024-HC.jpg,1500,solid,I,z,897,3,3,12396.30000000447,149342.8999999985,8004,ATS,B,5
4,test,1,A,haborder.png,0,z,Tue Mar 11 2025 16:16:39 GMT-0500 (Central Daylight Time),164671.8999999985,CFD-WF-026-008-A.jpg,1600,solid,I,m,1309,10,3,15329.0,149342.8999999985,8004,ATS,B,6
5,test,1,A,haborder.png,1,z,Tue Mar 11 2025 16:16:39 GMT-0500 (Central Daylight Time),167220.70000000298,CFD-BM-037-041-A.jpg,1600,solid,I,z,922,2,3,17877.80000000447,149342.8999999985,8004,ATS,B,7
6,test,1,A,haborder.png,1,m,Tue Mar 11 2025 16:16:39 GMT-0500 (Central Daylight Time),170236.5,CFD-BF-035-007-HC.jpg,2000,solid,I,m,988,5,3,20893.60000000149,149342.8999999985,8004,ATS,B,8
7,test,1,A,haborder.png,1,m,Tue Mar 11 2025 16:16:39 GMT-0500 (Central Daylight Time),172785.5,CFD-BM-020-024-HC.jpg,1500,solid,I,m,1017,3,3,23442.60000000149,149342.8999999985,8004,ATS,B,9
8,test,1,A,haborder.png,1,z,Tue Mar 11 2025 16:16:39 GMT-0500 (Central Daylight Time),174668.3999999985,CFD-BF-051-043-A.jpg,1000,solid,I,z,854,4,3,25325.5,149342.8999999985,8004,ATS,B,10
9,test,1,A,haborder.png,1,z,Tue Mar 11 2025 16:16:39 GMT-0500 (Central Daylight Time),177534.20000000298,CFD-WM-009-009-A.jpg,1900,solid,I,z,945,8,3,28191.30000000447,149342.8999999985,8004,ATS,B,11
10,test,1,A,haborder.png,1,m,Tue Mar 11 2025 16:16:39 GMT-0500 (Central Daylight Time),180233.3999999985,CFD-BM-015-017-HC.jpg,1700,solid,I,m,966,1,3,30890.5,149342.8999999985,8004,ATS,B,12
11,test,1,A,haborder.png,1,m,Tue Mar 11 2025 16:16:39 GMT-0500 (Central Daylight Time),182465.8999999985,CFD-WM-011-006-HC.jpg,1400,solid,I,m,800,7,3,33123.0,149342.8999999985,8004,ATS,B,13
12,test,1,A,haborder.png,1,z,Tue Mar 11 2025 16:16:39 GMT-0500 (Central Daylight Time),184398.79999999702,CFD-WF-013-015-A.jpg,1000,solid,I,z,903,12,3,35055.89999999851,149342.8999999985,8004,ATS,B,14
13,test,1,A,haborder.png,1,z,Tue Mar 11 2025 16:16:39 GMT-0500 (Central Daylight Time),186498.0,CFD-BF-050-012-A.jpg,1200,solid,I,z,873,6,3,37155.10000000149,149342.8999999985,8004,ATS,B,15
14,test,1,A,haborder.png,1,m,Tue Mar 11 2025 16:16:39 GMT-0500 (Central Daylight Time),189294.8999999985,CFD-WF-011-006-HC.jpg,1500,solid,I,m,1280,11,3,39952.0,149342.8999999985,8004,ATS,B,16
15,test,1,A,haborder.png,1,z,Tue Mar 11 2025 16:16:39 GMT-0500 (Central Daylight Time),191013.3999999985,CFD-BF-051-043-A.jpg,1000,solid,I,z,688,4,3,41670.5,149342.8999999985,8004,ATS,B,17
16,test,1,A,haborder.png,1,m,Tue Mar 11 2025 16:16:39 GMT-0500 (Central Daylight Time),193595.8999999985,CFD-WM-011-006-HC.jpg,1400,solid,I,m,1164,7,3,44253.0,149342.8999999985,8004,ATS,B,18
17,test,1,A,haborder.png,1,z,Tue Mar 11 2025 16:16:39 GMT-0500 (Central Daylight Time),195928.3999999985,CFD-WF-026-008-A.jpg,1600,solid,I,z,701,10,3,46585.5,149342.8999999985,8004,ATS,B,19
18,test,1,A,haborder.png,1,m,Tue Mar 11 2025 16:16:39 GMT-0500 (Central Daylight Time),198377.70000000298,CFD-BM-015-017-HC.jpg,1700,solid,I,m,725,1,3,49034.80000000447,149342.8999999985,8004,ATS,B,20
19,test,1,A,haborder.png,1,z,Tue Mar 11 2025 16:16:39 GMT-0500 (Central Daylight Time),200560.1000000015,CFD-BF-050-012-A.jpg,1200,solid,I,z,950,6,3,51217.20000000298,149342.8999999985,8004,ATS,B,21
20,test,1,A,haborder.png,1,m,Tue Mar 11 2025 16:16:39 GMT-0500 (Central Daylight Time),203076.1000000015,CFD-WM-012-007-HC.jpg,1700,solid,I,m,788,9,3,53733.20000000298,149342.8999999985,8004,ATS,B,22
21,test,1,A,haborder.png,1,m,Tue Mar 11 2025 16:16:39 GMT-0500 (Central Daylight Time),205375.70000000298,CFD-WF-011-006-HC.jpg,1500,solid,I,m,769,11,3,56032.80000000447,149342.8999999985,8004,ATS,B,23
22,test,1,A,haborder.png,1,m,Tue Mar 11 2025 16:16:39 GMT-0500 (Central Daylight Time),208258.0,CFD-BF-035-007-HC.jpg,2000,solid,I,m,866,5,3,58915.10000000149,149342.8999999985,8004,ATS,B,24
1,test,1,B,mfborder.png,1,m,Tue Mar 11 2025 16:16:39 GMT-0500 (Central Daylight Time),222553.70000000298,CFD-WM-037-060-A.jpg,1200,dash,I,m,861,6,3,2083.0,220470.70000000298,8004,ATS,B,1
2,test,1,B,mfborder.png,1,z,Tue Mar 11 2025 16:16:39 GMT-0500 (Central Daylight Time),225002.6000000015,CFD-BF-027-013-HC.jpg,1500,dash,I,z,923,3,3,4531.89999999851,220470.70000000298,8004,ATS,B,2
3,test,1,B,mfborder.png,1,z,Tue Mar 11 2025 16:16:39 GMT-0500 (Central Daylight Time),227785.1000000015,CFD-WF-027-007-HC.jpg,1900,dash,I,z,859,8,3,7314.39999999851,220470.70000000298,8004,ATS,B,3
4,test,1,B,mfborder.png,1,z,Tue Mar 11 2025 16:16:39 GMT-0500 (Central Daylight Time),230034.5,CFD-WF-011-006-HC.jpg,1000,dash,I,z,1224,12,3,9563.79999999702,220470.70000000298,8004,ATS,B,4
5,test,1,B,mfborder.png,1,m,Tue Mar 11 2025 16:16:39 GMT-0500 (Central Daylight Time),232883.6000000015,CFD-WM-009-009-A.jpg,1700,dash,I,m,1131,9,3,12412.89999999851,220470.70000000298,8004,ATS,B,5
6,test,1,B,mfborder.png,1,z,Tue Mar 11 2025 16:16:39 GMT-0500 (Central Daylight Time),235566.0,CFD-BF-027-013-HC.jpg,1500,dash,I,z,1161,3,3,15095.29999999702,220470.70000000298,8004,ATS,B,6
7,test,1,B,mfborder.png,1,m,Tue Mar 11 2025 16:16:39 GMT-0500 (Central Daylight Time),237865.29999999702,CFD-BM-020-024-HC.jpg,1700,dash,I,m,576,1,3,17394.59999999404,220470.70000000298,8004,ATS,B,7
8,test,1,B,mfborder.png,1,z,Tue Mar 11 2025 16:16:39 GMT-0500 (Central Daylight Time),239764.70000000298,CFD-WF-011-006-HC.jpg,1000,dash,I,z,879,12,3,19294.0,220470.70000000298,8004,ATS,B,8
8,test,1,B,mfborder.png,0,z,Tue Mar 11 2025 16:16:39 GMT-0500 (Central Daylight Time),242080.8999999985,CFD-BF-035-007-HC.jpg,1400,dash,I,m,892,7,3,21610.19999999553,220470.70000000298,8004,ATS,B,9
9,test,1,B,mfborder.png,1,m,Tue Mar 11 2025 16:16:39 GMT-0500 (Central Daylight Time),245046.5,CFD-BM-037-041-A.jpg,2000,dash,I,m,937,5,3,24575.79999999702,220470.70000000298,8004,ATS,B,10
10,test,1,B,mfborder.png,1,m,Tue Mar 11 2025 16:16:39 GMT-0500 (Central Daylight Time),247562.29999999702,CFD-BM-020-024-HC.jpg,1700,dash,I,m,791,1,3,27091.59999999404,220470.70000000298,8004,ATS,B,11
11,test,1,B,mfborder.png,1,m,Tue Mar 11 2025 16:16:39 GMT-0500 (Central Daylight Time),250345.0,CFD-BM-041-048-A.jpg,1600,dash,I,m,1159,2,3,29874.29999999702,220470.70000000298,8004,ATS,B,12
12,test,1,B,mfborder.png,1,z,Tue Mar 11 2025 16:16:39 GMT-0500 (Central Daylight Time),252777.3999999985,CFD-WF-026-008-A.jpg,1500,dash,I,z,908,11,3,32306.69999999553,220470.70000000298,8004,ATS,B,13
13,test,1,B,mfborder.png,1,m,Tue Mar 11 2025 16:16:39 GMT-0500 (Central Daylight Time),254793.5,CFD-WM-037-060-A.jpg,1200,dash,I,m,792,6,3,34322.79999999702,220470.70000000298,8004,ATS,B,14
14,test,1,B,mfborder.png,1,m,Tue Mar 11 2025 16:16:39 GMT-0500 (Central Daylight Time),257592.5,CFD-BM-037-041-A.jpg,2000,dash,I,m,776,5,3,37121.79999999702,220470.70000000298,8004,ATS,B,15
15,test,1,B,mfborder.png,1,m,Tue Mar 11 2025 16:16:39 GMT-0500 (Central Daylight Time),260109.20000000298,CFD-WM-012-007-HC.jpg,1600,dash,I,m,896,10,3,39638.5,220470.70000000298,8004,ATS,B,16
16,test,1,B,mfborder.png,1,m,Tue Mar 11 2025 16:16:39 GMT-0500 (Central Daylight Time),262607.700000003,CFD-BM-041-048-A.jpg,1600,dash,I,m,877,2,3,42137.0,220470.70000000298,8004,ATS,B,17
17,test,1,B,mfborder.png,1,m,Tue Mar 11 2025 16:16:39 GMT-0500 (Central Daylight Time),265140.1000000015,CFD-WM-009-009-A.jpg,1700,dash,I,m,806,9,3,44669.39999999851,220470.70000000298,8004,ATS,B,18
18,test,1,B,mfborder.png,1,z,Tue Mar 11 2025 16:16:39 GMT-0500 (Central Daylight Time),267522.700000003,CFD-BF-051-043-A.jpg,1000,dash,I,z,1356,4,3,47052.0,220470.70000000298,8004,ATS,B,19
19,test,1,B,mfborder.png,1,z,Tue Mar 11 2025 16:16:39 GMT-0500 (Central Daylight Time),269805.3999999985,CFD-WF-026-008-A.jpg,1500,dash,I,z,762,11,3,49334.69999999553,220470.70000000298,8004,ATS,B,20
20,test,1,B,mfborder.png,1,m,Tue Mar 11 2025 16:16:39 GMT-0500 (Central Daylight Time),272387.799999997,CFD-WM-012-007-HC.jpg,1600,dash,I,m,956,10,3,51917.09999999404,220470.70000000298,8004,ATS,B,21
21,test,1,B,mfborder.png,1,z,Tue Mar 11 2025 16:16:39 GMT-0500 (Central Daylight Time),274387.299999997,CFD-BF-051-043-A.jpg,1000,dash,I,z,973,4,3,53916.59999999404,220470.70000000298,8004,ATS,B,22
22,test,1,B,mfborder.png,1,z,Tue Mar 11 2025 16:16:39 GMT-0500 (Central Daylight Time),277136.6000000015,CFD-BF-035-007-HC.jpg,1400,dash,I,z,1326,7,3,56665.89999999851,220470.70000000298,8004,ATS,B,23
23,test,1,B,mfborder.png,1,z,Tue Mar 11 2025 16:16:39 GMT-0500 (Central Daylight Time),280052.1000000015,CFD-WF-027-007-HC.jpg,1900,dash,I,z,989,8,3,59581.39999999851,220470.70000000298,8004,ATS,B,24
1,11,1,C,haborder.png,1,m,Tue Mar 11 2025 16:16:39 GMT-0500 (Central Daylight Time),309876.1000000015,CFD-WM-011-006-HC.jpg,1000,dash,I,m,1412,prac,3,3199.10000000149,306677.0,8004,ATS,B,1
1,7,1,C,haborder.png,0,z,Tue Mar 11 2025 16:16:39 GMT-0500 (Central Daylight Time),314074.799999997,CFD-BF-051-043-A.jpg,1900,dash,I,None,1515,prac,3,7397.79999999702,306677.0,8004,ATS,B,2
2,9,1,C,haborder.png,1,z,Tue Mar 11 2025 16:16:39 GMT-0500 (Central Daylight Time),317357.299999997,CFD-WF-026-008-A.jpg,1600,dash,I,z,894,prac,3,10680.29999999702,306677.0,8004,ATS,B,3
3,2,1,C,mfborder.png,1,z,Tue Mar 11 2025 16:16:39 GMT-0500 (Central Daylight Time),320839.3999999985,CFD-WF-013-015-A.jpg,1500,solid,I,z,1183,prac,3,14162.39999999851,306677.0,8004,ATS,B,4
4,5,1,C,mfborder.png,1,m,Tue Mar 11 2025 16:16:39 GMT-0500 (Central Daylight Time),324021.700000003,CFD-BM-037-041-A.jpg,1200,dash,I,m,1194,prac,3,17344.70000000298,306677.0,8004,ATS,B,5
5,12,1,C,haborder.png,1,m,Tue Mar 11 2025 16:16:39 GMT-0500 (Central Daylight Time),327220.799999997,CFD-WM-011-006-HC.jpg,1400,solid,I,m,1012,prac,3,20543.79999999702,306677.0,8004,ATS,B,6
6,10,1,C,haborder.png,1,m,Tue Mar 11 2025 16:16:39 GMT-0500 (Central Daylight Time),330303.0,CFD-BM-020-024-HC.jpg,1500,solid,I,m,792,prac,3,23626.0,306677.0,8004,ATS,B,7
7,4,1,C,mfborder.png,1,m,Tue Mar 11 2025 16:16:39 GMT-0500 (Central Daylight Time),334501.700000003,CFD-BM-015-017-HC.jpg,2000,solid,I,m,1410,prac,3,27824.70000000298,306677.0,8004,ATS,B,8
8,1,1,C,mfborder.png,1,z,Tue Mar 11 2025 16:16:39 GMT-0500 (Central Daylight Time),337934.1000000015,CFD-WF-011-006-HC.jpg,1600,dash,I,z,1044,prac,3,31257.10000000149,306677.0,8004,ATS,B,9
9,3,1,C,mfborder.png,1,z,Tue Mar 11 2025 16:16:39 GMT-0500 (Central Daylight Time),340616.6000000015,CFD-BF-035-007-HC.jpg,1000,dash,I,z,882,prac,3,33939.60000000149,306677.0,8004,ATS,B,10
9,6,1,C,mfborder.png,0,m,Tue Mar 11 2025 16:16:39 GMT-0500 (Central Daylight Time),344615.200000003,CFD-WM-009-009-A.jpg,1700,solid,I,None,1516,prac,3,37938.20000000298,306677.0,8004,ATS,B,11
10,8,1,C,haborder.png,1,z,Tue Mar 11 2025 16:16:39 GMT-0500 (Central Daylight Time),347948.1000000015,CFD-BF-050-012-A.jpg,1700,solid,I,z,846,prac,3,41271.10000000149,306677.0,8004,ATS,B,12
1,test,1,C,haborder.png,1,z,Tue Mar 11 2025 16:16:39 GMT-0500 (Central Daylight Time),360010.6000000015,CFD-WM-009-009-A.jpg,1400,solid,I,z,1124,7,3,2549.2000000029802,357461.3999999985,8004,ATS,B,1
2,test,1,C,mfborder.png,1,m,Tue Mar 11 2025 16:16:39 GMT-0500 (Central Daylight Time),363475.8999999985,CFD-WM-037-060-A.jpg,2000,dash,I,m,1439,5,3,6014.5,357461.3999999985,8004,ATS,B,2
2,test,1,C,mfborder.png,0,z,Tue Mar 11 2025 16:16:39 GMT-0500 (Central Daylight Time),366508.5,CFD-WF-026-008-A.jpg,1500,dash,I,None,1515,3,3,9047.10000000149,357461.3999999985,8004,ATS,B,3
3,test,1,C,haborder.png,1,m,Tue Mar 11 2025 16:16:39 GMT-0500 (Central Daylight Time),369290.799999997,CFD-WF-027-007-HC.jpg,1500,solid,I,m,1257,11,3,11829.39999999851,357461.3999999985,8004,ATS,B,4
3,test,1,C,mfborder.png,0,m,Tue Mar 11 2025 16:16:39 GMT-0500 (Central Daylight Time),372456.200000003,CFD-WM-037-060-A.jpg,2000,dash,I,z,1142,5,3,14994.80000000447,357461.3999999985,8004,ATS,B,5
3,test,1,C,haborder.png,0,z,Tue Mar 11 2025 16:16:39 GMT-0500 (Central Daylight Time),375688.799999997,CFD-BM-041-048-A.jpg,1700,solid,I,None,1516,9,3,18227.39999999851,357461.3999999985,8004,ATS,B,6
3,test,1,C,mfborder.png,0,z,Tue Mar 11 2025 16:16:39 GMT-0500 (Central Daylight Time),378921.200000003,CFD-BF-027-013-HC.jpg,1700,dash,I,None,1515,1,3,21459.80000000447,357461.3999999985,8004,ATS,B,7
4,test,1,C,mfborder.png,1,m,Tue Mar 11 2025 16:16:39 GMT-0500 (Central Daylight Time),381536.8999999985,CFD-BM-020-024-HC.jpg,1200,dash,I,m,1392,6,3,24075.5,357461.3999999985,8004,ATS,B,8
4,test,1,C,mfborder.png,0,m,Tue Mar 11 2025 16:16:39 GMT-0500 (Central Daylight Time),384269.6000000015,CFD-BM-020-024-HC.jpg,1200,dash,I,None,1516,6,3,26808.20000000298,357461.3999999985,8004,ATS,B,9
4,test,1,C,mfborder.png,0,m,Tue Mar 11 2025 16:16:39 GMT-0500 (Central Daylight Time),386802.1000000015,CFD-WM-012-007-HC.jpg,1000,dash,I,None,1511,4,3,29340.70000000298,357461.3999999985,8004,ATS,B,10
4,test,1,C,mfborder.png,0,z,Tue Mar 11 2025 16:16:39 GMT-0500 (Central Daylight Time),389600.8999999985,CFD-BF-027-013-HC.jpg,1700,dash,I,m,1067,1,3,32139.5,357461.3999999985,8004,ATS,B,11
5,test,1,C,haborder.png,1,z,Tue Mar 11 2025 16:16:39 GMT-0500 (Central Daylight Time),392499.8999999985,CFD-WM-009-009-A.jpg,1400,solid,I,z,1468,7,3,35038.5,357461.3999999985,8004,ATS,B,12
6,test,1,C,mfborder.png,1,m,Tue Mar 11 2025 16:16:39 GMT-0500 (Central Daylight Time),394599.299999997,CFD-WM-012-007-HC.jpg,1000,dash,I,m,1076,4,3,37137.89999999851,357461.3999999985,8004,ATS,B,13
6,test,1,C,haborder.png,0,m,Tue Mar 11 2025 16:16:39 GMT-0500 (Central Daylight Time),396798.799999997,CFD-WF-011-006-HC.jpg,1000,solid,I,z,1177,12,3,39337.39999999851,357461.3999999985,8004,ATS,B,14
6,test,1,C,haborder.png,0,m,Tue Mar 11 2025 16:16:39 GMT-0500 (Central Daylight Time),399481.5,CFD-BF-035-007-HC.jpg,1600,solid,I,z,1066,10,3,42020.10000000149,357461.3999999985,8004,ATS,B,15
6,test,1,C,haborder.png,0,m,Tue Mar 11 2025 16:16:39 GMT-0500 (Central Daylight Time),402246.8999999985,CFD-BF-035-007-HC.jpg,1600,solid,I,z,1030,10,3,44785.5,357461.3999999985,8004,ATS,B,16
6,test,1,C,haborder.png,0,m,Tue Mar 11 2025 16:16:39 GMT-0500 (Central Daylight Time),405029.5,CFD-WF-027-007-HC.jpg,1500,solid,I,z,1253,11,3,47568.10000000149,357461.3999999985,8004,ATS,B,17
6,test,1,C,haborder.png,0,z,Tue Mar 11 2025 16:16:39 GMT-0500 (Central Daylight Time),408111.700000003,CFD-BM-037-041-A.jpg,1900,solid,I,m,1151,8,3,50650.30000000447,357461.3999999985,8004,ATS,B,18
6,test,1,C,haborder.png,0,z,Tue Mar 11 2025 16:16:39 GMT-0500 (Central Daylight Time),411294.1000000015,CFD-BM-037-041-A.jpg,1900,solid,I,m,1261,8,3,53832.70000000298,357461.3999999985,8004,ATS,B,19
7,test,1,C,mfborder.png,1,z,Tue Mar 11 2025 16:16:39 GMT-0500 (Central Daylight Time),414343.200000003,CFD-BF-051-043-A.jpg,1600,dash,I,z,1418,2,3,56881.80000000447,357461.3999999985,8004,ATS,B,20
7,test,1,C,haborder.png,0,z,Tue Mar 11 2025 16:16:39 GMT-0500 (Central Daylight Time),417192.299999997,CFD-BM-041-048-A.jpg,1700,solid,I,m,1125,9,3,59730.89999999851,357461.3999999985,8004,ATS,B,21
7,test,1,C,haborder.png,0,m,Tue Mar 11 2025 16:16:39 GMT-0500 (Central Daylight Time),419441.700000003,CFD-WF-011-006-HC.jpg,1000,solid,I,z,1217,12,3,61980.30000000447,357461.3999999985,8004,ATS,B,22
8,test,1,C,mfborder.png,1,z,Tue Mar 11 2025 16:16:39 GMT-0500 (Central Daylight Time),422290.700000003,CFD-WF-026-008-A.jpg,1500,dash,I,z,1331,3,3,64829.30000000447,357461.3999999985,8004,ATS,B,23
9,test,1,C,mfborder.png,1,z,Tue Mar 11 2025 16:16:39 GMT-0500 (Central Daylight Time),425006.5,CFD-BF-051-043-A.jpg,1600,dash,I,z,1094,2,3,67545.10000000149,357461.3999999985,8004,ATS,B,24
1,test,2,C,haborder.png,1,m,Tue Mar 11 2025 16:16:39 GMT-0500 (Central Daylight Time),456546.6000000015,CFD-WM-011-006-HC.jpg,1500,solid,I,m,952,11,3,2482.39999999851,454064.200000003,8004,ATS,B,1
2,test,2,C,haborder.png,1,m,Tue Mar 11 2025 16:16:39 GMT-0500 (Central Daylight Time),459329.1000000015,CFD-BM-020-024-HC.jpg,1600,solid,I,m,1149,10,3,5264.89999999851,454064.200000003,8004,ATS,B,2
2,test,2,C,mfborder.png,0,m,Tue Mar 11 2025 16:16:39 GMT-0500 (Central Daylight Time),462861.3999999985,CFD-BM-037-041-A.jpg,2000,dash,I,None,1515,5,3,8797.19999999553,454064.200000003,8004,ATS,B,3
2,test,2,C,mfborder.png,0,z,Tue Mar 11 2025 16:16:39 GMT-0500 (Central Daylight Time),465993.8999999985,CFD-WF-013-015-A.jpg,1600,dash,I,None,1516,2,3,11929.69999999553,454064.200000003,8004,ATS,B,4
3,test,2,C,mfborder.png,1,z,Tue Mar 11 2025 16:16:39 GMT-0500 (Central Daylight Time),469026.200000003,CFD-WF-011-006-HC.jpg,1700,dash,I,z,1316,1,3,14962.0,454064.200000003,8004,ATS,B,5
3,test,2,C,mfborder.png,0,z,Tue Mar 11 2025 16:16:39 GMT-0500 (Central Daylight Time),472258.6000000015,CFD-WF-011-006-HC.jpg,1700,dash,I,None,1516,1,3,18194.39999999851,454064.200000003,8004,ATS,B,6
3,test,2,C,mfborder.png,0,z,Tue Mar 11 2025 16:16:39 GMT-0500 (Central Daylight Time),475057.8999999985,CFD-WF-013-015-A.jpg,1600,dash,I,m,1167,2,3,20993.69999999553,454064.200000003,8004,ATS,B,7
4,test,2,C,haborder.png,1,m,Tue Mar 11 2025 16:16:39 GMT-0500 (Central Daylight Time),477708.0,CFD-BM-020-024-HC.jpg,1600,solid,I,m,1031,10,3,23643.79999999702,454064.200000003,8004,ATS,B,8
5,test,2,C,haborder.png,1,z,Tue Mar 11 2025 16:16:39 GMT-0500 (Central Daylight Time),480756.200000003,CFD-BF-050-012-A.jpg,1900,solid,I,z,1122,8,3,26692.0,454064.200000003,8004,ATS,B,9
6,test,2,C,mfborder.png,1,m,Tue Mar 11 2025 16:16:39 GMT-0500 (Central Daylight Time),483255.0,CFD-BM-015-017-HC.jpg,1000,dash,I,m,1468,4,3,29190.79999999702,454064.200000003,8004,ATS,B,10
6,test,2,C,haborder.png,0,z,Tue Mar 11 2025 16:16:39 GMT-0500 (Central Daylight Time),486687.5,CFD-BF-050-012-A.jpg,1900,solid,I,None,1515,8,3,32623.29999999702,454064.200000003,8004,ATS,B,11
7,test,2,C,haborder.png,1,m,Tue Mar 11 2025 16:16:39 GMT-0500 (Central Daylight Time),488820.1000000015,CFD-WM-011-006-HC.jpg,1000,solid,I,m,1105,12,3,34755.89999999851,454064.200000003,8004,ATS,B,12
8,test,2,C,mfborder.png,1,m,Tue Mar 11 2025 16:16:39 GMT-0500 (Central Daylight Time),491019.0,CFD-BM-015-017-HC.jpg,1000,dash,I,m,1172,4,3,36954.79999999702,454064.200000003,8004,ATS,B,13
9,test,2,C,mfborder.png,1,z,Tue Mar 11 2025 16:16:39 GMT-0500 (Central Daylight Time),493634.8999999985,CFD-BF-035-007-HC.jpg,1500,dash,I,z,1097,3,3,39570.69999999553,454064.200000003,8004,ATS,B,14
10,test,2,C,haborder.png,1,m,Tue Mar 11 2025 16:16:39 GMT-0500 (Central Daylight Time),495951.3999999985,CFD-WM-011-006-HC.jpg,1000,solid,I,m,1285,12,3,41887.19999999553,454064.200000003,8004,ATS,B,15
10,test,2,C,haborder.png,0,z,Tue Mar 11 2025 16:16:39 GMT-0500 (Central Daylight Time),498650.200000003,CFD-WF-026-008-A.jpg,1700,solid,I,m,981,9,3,44586.0,454064.200000003,8004,ATS,B,16
11,test,2,C,mfborder.png,1,m,Tue Mar 11 2025 16:16:39 GMT-0500 (Central Daylight Time),501066.5,CFD-WM-009-009-A.jpg,1200,dash,I,m,1183,6,3,47002.29999999702,454064.200000003,8004,ATS,B,17
12,test,2,C,mfborder.png,1,z,Tue Mar 11 2025 16:16:39 GMT-0500 (Central Daylight Time),503681.8999999985,CFD-BF-035-007-HC.jpg,1500,dash,I,z,1099,3,3,49617.69999999553,454064.200000003,8004,ATS,B,18
12,test,2,C,mfborder.png,0,m,Tue Mar 11 2025 16:16:39 GMT-0500 (Central Daylight Time),506198.0,CFD-WM-009-009-A.jpg,1200,dash,I,z,1295,6,3,52133.79999999702,454064.200000003,8004,ATS,B,19
13,test,2,C,haborder.png,1,z,Tue Mar 11 2025 16:16:39 GMT-0500 (Central Daylight Time),509063.799999997,CFD-WF-026-008-A.jpg,1700,solid,I,z,1135,9,3,54999.59999999404,454064.200000003,8004,ATS,B,20
14,test,2,C,haborder.png,1,m,Tue Mar 11 2025 16:16:39 GMT-0500 (Central Daylight Time),511979.6000000015,CFD-WM-011-006-HC.jpg,1500,solid,I,m,1389,11,3,57915.39999999851,454064.200000003,8004,ATS,B,21
15,test,2,C,haborder.png,1,z,Tue Mar 11 2025 16:16:39 GMT-0500 (Central Daylight Time),514645.299999997,CFD-BF-051-043-A.jpg,1400,solid,I,z,1245,7,3,60581.09999999404,454064.200000003,8004,ATS,B,22
16,test,2,C,haborder.png,1,z,Tue Mar 11 2025 16:16:39 GMT-0500 (Central Daylight Time),517461.299999997,CFD-BF-051-043-A.jpg,1400,solid,I,z,1388,7,3,63397.09999999404,454064.200000003,8004,ATS,B,23
17,test,2,C,mfborder.png,1,m,Tue Mar 11 2025 16:16:39 GMT-0500 (Central Daylight Time),520543.799999997,CFD-BM-037-041-A.jpg,2000,dash,I,m,1060,5,3,66479.59999999404,454064.200000003,8004,ATS,B,24
1,test,3,C,haborder.png,1,m,Tue Mar 11 2025 16:16:39 GMT-0500 (Central Daylight Time),525692.1000000015,CFD-WF-027-007-HC.jpg,1500,solid,I,m,939,11,3,2464.89999999851,523227.200000003,8004,ATS,B,1
2,test,3,C,haborder.png,1,z,Tue Mar 11 2025 16:16:39 GMT-0500 (Central Daylight Time),528291.1000000015,CFD-WM-009-009-A.jpg,1400,solid,I,z,1174,7,3,5063.89999999851,523227.200000003,8004,ATS,B,2
3,test,3,C,mfborder.png,1,z,Tue Mar 11 2025 16:16:39 GMT-0500 (Central Daylight Time),531140.1000000015,CFD-BF-051-043-A.jpg,1600,dash,I,z,1222,2,3,7912.89999999851,523227.200000003,8004,ATS,B,3
3,test,3,C,haborder.png,0,m,Tue Mar 11 2025 16:16:39 GMT-0500 (Central Daylight Time),534172.5,CFD-WF-027-007-HC.jpg,1500,solid,I,None,1515,11,3,10945.29999999702,523227.200000003,8004,ATS,B,4
3,test,3,C,mfborder.png,0,m,Tue Mar 11 2025 16:16:39 GMT-0500 (Central Daylight Time),536905.200000003,CFD-BM-020-024-HC.jpg,1200,dash,I,None,1512,6,3,13678.0,523227.200000003,8004,ATS,B,5
4,test,3,C,mfborder.png,1,z,Tue Mar 11 2025 16:16:39 GMT-0500 (Central Daylight Time),539804.0,CFD-WF-026-008-A.jpg,1500,dash,I,z,1380,3,3,16576.79999999702,523227.200000003,8004,ATS,B,6
4,test,3,C,haborder.png,0,m,Tue Mar 11 2025 16:16:39 GMT-0500 (Central Daylight Time),542736.700000003,CFD-BF-035-007-HC.jpg,1600,solid,I,z,1305,10,3,19509.5,523227.200000003,8004,ATS,B,7
5,test,3,C,haborder.png,1,z,Tue Mar 11 2025 16:16:39 GMT-0500 (Central Daylight Time),545668.8999999985,CFD-BM-041-048-A.jpg,1700,solid,I,z,1212,9,3,22441.69999999553,523227.200000003,8004,ATS,B,8
6,test,3,C,mfborder.png,1,z,Tue Mar 11 2025 16:16:39 GMT-0500 (Central Daylight Time),548451.5,CFD-BF-027-013-HC.jpg,1700,dash,I,z,1056,1,3,25224.29999999702,523227.200000003,8004,ATS,B,9
7,test,3,C,haborder.png,1,m,Tue Mar 11 2025 16:16:39 GMT-0500 (Central Daylight Time),551500.6000000015,CFD-BF-035-007-HC.jpg,1600,solid,I,m,1422,10,3,28273.39999999851,523227.200000003,8004,ATS,B,10
7,test,3,C,mfborder.png,0,m,Tue Mar 11 2025 16:16:39 GMT-0500 (Central Daylight Time),554033.3999999985,CFD-WM-012-007-HC.jpg,1000,dash,I,None,1516,4,3,30806.19999999553,523227.200000003,8004,ATS,B,11
7,test,3,C,mfborder.png,0,z,Tue Mar 11 2025 16:16:39 GMT-0500 (Central Daylight Time),557265.299999997,CFD-BF-027-013-HC.jpg,1700,dash,I,None,1515,1,3,34038.09999999404,523227.200000003,8004,ATS,B,12
8,test,3,C,mfborder.png,1,z,Tue Mar 11 2025 16:16:39 GMT-0500 (Central Daylight Time),560347.700000003,CFD-BF-051-043-A.jpg,1600,dash,I,z,1464,2,3,37120.5,523227.200000003,8004,ATS,B,13
9,test,3,C,mfborder.png,1,z,Tue Mar 11 2025 16:16:39 GMT-0500 (Central Daylight Time),563130.200000003,CFD-WF-026-008-A.jpg,1500,dash,I,z,1256,3,3,39903.0,523227.200000003,8004,ATS,B,14
10,test,3,C,mfborder.png,1,m,Tue Mar 11 2025 16:16:39 GMT-0500 (Central Daylight Time),565413.0,CFD-WM-012-007-HC.jpg,1000,dash,I,m,1254,4,3,42185.79999999702,523227.200000003,8004,ATS,B,15
10,test,3,C,haborder.png,0,z,Tue Mar 11 2025 16:16:39 GMT-0500 (Central Daylight Time),568645.0,CFD-BM-041-048-A.jpg,1700,solid,I,None,1514,9,3,45417.79999999702,523227.200000003,8004,ATS,B,16
11,test,3,C,haborder.png,1,z,Tue Mar 11 2025 16:16:39 GMT-0500 (Central Daylight Time),571110.8999999985,CFD-WM-009-009-A.jpg,1400,solid,I,z,1044,7,3,47883.69999999553,523227.200000003,8004,ATS,B,17
12,test,3,C,haborder.png,1,z,Tue Mar 11 2025 16:16:39 GMT-0500 (Central Daylight Time),573927.8999999985,CFD-BM-037-041-A.jpg,1900,solid,I,z,885,8,3,50700.69999999553,523227.200000003,8004,ATS,B,18
13,test,3,C,mfborder.png,1,m,Tue Mar 11 2025 16:16:39 GMT-0500 (Central Daylight Time),577277.200000003,CFD-WM-037-060-A.jpg,2000,dash,I,m,1331,5,3,54050.0,523227.200000003,8004,ATS,B,19
14,test,3,C,mfborder.png,1,m,Tue Mar 11 2025 16:16:39 GMT-0500 (Central Daylight Time),580458.1000000015,CFD-WM-037-060-A.jpg,2000,dash,I,m,1165,5,3,57230.89999999851,523227.200000003,8004,ATS,B,20
15,test,3,C,haborder.png,1,z,Tue Mar 11 2025 16:16:39 GMT-0500 (Central Daylight Time),583590.5,CFD-BM-037-041-A.jpg,1900,solid,I,z,1212,8,3,60363.29999999702,523227.200000003,8004,ATS,B,21
16,test,3,C,mfborder.png,1,m,Tue Mar 11 2025 16:16:39 GMT-0500 (Central Daylight Time),586056.3999999985,CFD-BM-020-024-HC.jpg,1200,dash,I,m,1234,6,3,62829.19999999553,523227.200000003,8004,ATS,B,22
16,test,3,C,haborder.png,0,m,Tue Mar 11 2025 16:16:39 GMT-0500 (Central Daylight Time),588588.700000003,CFD-WF-011-006-HC.jpg,1000,solid,I,None,1516,12,3,65361.5,523227.200000003,8004,ATS,B,23
17,test,3,C,haborder.png,1,m,Tue Mar 11 2025 16:16:39 GMT-0500 (Central Daylight Time),590755.8999999985,CFD-WF-011-006-HC.jpg,1000,solid,I,m,1141,12,3,67528.69999999553,523227.200000003,8004,ATS,B,24
0,test,4,C,mfborder.png,0,m,Tue Mar 11 2025 16:16:39 GMT-0500 (Central Daylight Time),595304.700000003,CFD-WM-009-009-A.jpg,1200,dash,I,None,1517,6,3,2733.8000000044703,592570.8999999985,8004,ATS,B,1
1,test,4,C,haborder.png,1,z,Tue Mar 11 2025 16:16:39 GMT-0500 (Central Daylight Time),598352.700000003,CFD-WF-026-008-A.jpg,1700,solid,I,z,1326,9,3,5781.80000000447,592570.8999999985,8004,ATS,B,2
1,test,4,C,mfborder.png,0,m,Tue Mar 11 2025 16:16:39 GMT-0500 (Central Daylight Time),601085.1000000015,CFD-WM-009-009-A.jpg,1200,dash,I,None,1515,6,3,8514.20000000298,592570.8999999985,8004,ATS,B,3
2,test,4,C,haborder.png,1,m,Tue Mar 11 2025 16:16:39 GMT-0500 (Central Daylight Time),603650.6000000015,CFD-BM-020-024-HC.jpg,1600,solid,I,m,944,10,3,11079.70000000298,592570.8999999985,8004,ATS,B,4
2,test,4,C,mfborder.png,0,m,Tue Mar 11 2025 16:16:39 GMT-0500 (Central Daylight Time),605933.5,CFD-BM-015-017-HC.jpg,1000,dash,I,z,1262,4,3,13362.60000000149,592570.8999999985,8004,ATS,B,5
3,test,4,C,haborder.png,1,m,Tue Mar 11 2025 16:16:39 GMT-0500 (Central Daylight Time),608849.1000000015,CFD-WM-011-006-HC.jpg,1500,solid,I,m,1387,11,3,16278.20000000298,592570.8999999985,8004,ATS,B,6
4,test,4,C,haborder.png,1,z,Tue Mar 11 2025 16:16:39 GMT-0500 (Central Daylight Time),611998.299999997,CFD-BF-050-012-A.jpg,1900,solid,I,z,1229,8,3,19427.39999999851,592570.8999999985,8004,ATS,B,7
4,test,4,C,mfborder.png,0,z,Tue Mar 11 2025 16:16:39 GMT-0500 (Central Daylight Time),615030.6000000015,CFD-BF-035-007-HC.jpg,1500,dash,I,None,1515,3,3,22459.70000000298,592570.8999999985,8004,ATS,B,8
5,test,4,C,haborder.png,1,m,Tue Mar 11 2025 16:16:39 GMT-0500 (Central Daylight Time),617796.6000000015,CFD-BM-020-024-HC.jpg,1600,solid,I,m,1139,10,3,25225.70000000298,592570.8999999985,8004,ATS,B,9
6,test,4,C,haborder.png,1,z,Tue Mar 11 2025 16:16:39 GMT-0500 (Central Daylight Time),620663.200000003,CFD-WF-026-008-A.jpg,1700,solid,I,z,1137,9,3,28092.30000000447,592570.8999999985,8004,ATS,B,10
7,test,4,C,mfborder.png,1,m,Tue Mar 11 2025 16:16:39 GMT-0500 (Central Daylight Time),623011.3999999985,CFD-BM-015-017-HC.jpg,1000,dash,I,m,1323,4,3,30440.5,592570.8999999985,8004,ATS,B,11
8,test,4,C,haborder.png,1,m,Tue Mar 11 2025 16:16:39 GMT-0500 (Central Daylight Time),625410.5,CFD-WM-011-006-HC.jpg,1000,solid,I,m,1382,12,3,32839.60000000149,592570.8999999985,8004,ATS,B,12
9,test,4,C,haborder.png,1,m,Tue Mar 11 2025 16:16:39 GMT-0500 (Central Daylight Time),627726.6000000015,CFD-WM-011-006-HC.jpg,1000,solid,I,m,1295,12,3,35155.70000000298,592570.8999999985,8004,ATS,B,13
10,test,4,C,mfborder.png,1,z,Tue Mar 11 2025 16:16:39 GMT-0500 (Central Daylight Time),630842.200000003,CFD-WF-011-006-HC.jpg,1700,dash,I,z,1391,1,3,38271.30000000447,592570.8999999985,8004,ATS,B,14
11,test,4,C,haborder.png,1,z,Tue Mar 11 2025 16:16:39 GMT-0500 (Central Daylight Time),634191.1000000015,CFD-BF-050-012-A.jpg,1900,solid,I,z,1427,8,3,41620.20000000298,592570.8999999985,8004,ATS,B,15
11,test,4,C,mfborder.png,0,z,Tue Mar 11 2025 16:16:39 GMT-0500 (Central Daylight Time),637323.700000003,CFD-WF-013-015-A.jpg,1600,dash,I,None,1512,2,3,44752.80000000447,592570.8999999985,8004,ATS,B,16
11,test,4,C,haborder.png,0,z,Tue Mar 11 2025 16:16:39 GMT-0500 (Central Daylight Time),640239.5,CFD-BF-051-043-A.jpg,1400,solid,I,m,1493,7,3,47668.60000000149,592570.8999999985,8004,ATS,B,17
12,test,4,C,haborder.png,1,m,Tue Mar 11 2025 16:16:39 GMT-0500 (Central Daylight Time),642756.8999999985,CFD-WM-011-006-HC.jpg,1500,solid,I,m,994,11,3,50186.0,592570.8999999985,8004,ATS,B,18
13,test,4,C,mfborder.png,1,m,Tue Mar 11 2025 16:16:39 GMT-0500 (Central Daylight Time),646087.700000003,CFD-BM-037-041-A.jpg,2000,dash,I,m,1310,5,3,53516.80000000447,592570.8999999985,8004,ATS,B,19
14,test,4,C,mfborder.png,1,z,Tue Mar 11 2025 16:16:39 GMT-0500 (Central Daylight Time),649086.6000000015,CFD-WF-013-015-A.jpg,1600,dash,I,z,1370,2,3,56515.70000000298,592570.8999999985,8004,ATS,B,20
14,test,4,C,haborder.png,0,z,Tue Mar 11 2025 16:16:39 GMT-0500 (Central Daylight Time),652019.0,CFD-BF-051-043-A.jpg,1400,solid,I,None,1516,7,3,59448.10000000149,592570.8999999985,8004,ATS,B,21
14,test,4,C,mfborder.png,0,z,Tue Mar 11 2025 16:16:39 GMT-0500 (Central Daylight Time),655251.299999997,CFD-WF-011-006-HC.jpg,1700,dash,I,None,1511,1,3,62680.39999999851,592570.8999999985,8004,ATS,B,22
15,test,4,C,mfborder.png,1,m,Tue Mar 11 2025 16:16:39 GMT-0500 (Central Daylight Time),658533.6000000015,CFD-BM-037-041-A.jpg,2000,dash,I,m,1254,5,3,65962.70000000298,592570.8999999985,8004,ATS,B,23
16,test,4,C,mfborder.png,1,z,Tue Mar 11 2025 16:16:39 GMT-0500 (Central Daylight Time),661516.1000000015,CFD-BF-035-007-HC.jpg,1500,dash,I,z,1355,3,3,68945.20000000298,592570.8999999985,8004,ATS,B,24
