block_c,block_dur,condition,countdown,datetime,endtime,list,multichar_response,project,response,response_time,session_number,start_end,starttime,subject_id,task,task_vers,trial
,,,,Mon Mar 17 2025 15:40:28 GMT-0500 (Central Daylight Time),,,,O,space,1891,1,,,7085,WL,A,
prac,,0,,Mon Mar 17 2025 15:40:28 GMT-0500 (Central Daylight Time),,NA,b,O,b,8120,1,,,7085,WL,A,1.0
prac,,0,,Mon Mar 17 2025 15:40:28 GMT-0500 (Central Daylight Time),,NA,bo,O,o,201,1,,,7085,WL,A,1.0
prac,,0,,Mon Mar 17 2025 15:40:28 GMT-0500 (Central Daylight Time),,NA,boo,O,o,136,1,,,7085,WL,A,1.0
prac,,0,,Mon Mar 17 2025 15:40:28 GMT-0500 (Central Daylight Time),,NA,boos,O,s,82,1,,,7085,WL,A,1.0
prac,,0,,Mon Mar 17 2025 15:40:28 GMT-0500 (Central Daylight Time),,NA,boost,O,t,175,1,,,7085,WL,A,1.0
prac,,0,,Mon Mar 17 2025 15:40:28 GMT-0500 (Central Daylight Time),,NA,boostenter,O,enter,352,1,,,7085,WL,A,1.0
1,4.115000009536743,learn,55884.99999046326,Mon Mar 17 2025 15:40:28 GMT-0500 (Central Daylight Time),147163.59999999404,A,c,O,c,4107,1,4115.0,143048.59999999404,7085,WL,A,1.0
1,4.398000001907349,learn,55601.99999809265,Mon Mar 17 2025 15:40:28 GMT-0500 (Central Daylight Time),147446.69999998808,A,ch,O,h,271,1,4398.0999999940395,143048.59999999404,7085,WL,A,1.0
1,4.88100004196167,learn,55118.99995803833,Mon Mar 17 2025 15:40:28 GMT-0500 (Central Daylight Time),147929.90000000596,A,chi,O,i,477,1,4881.300000011921,143048.59999999404,7085,WL,A,1.0
1,5.13100004196167,learn,54868.99995803833,Mon Mar 17 2025 15:40:28 GMT-0500 (Central Daylight Time),148179.5,A,chim,O,m,242,1,5130.9000000059605,143048.59999999404,7085,WL,A,1.0
1,5.31499981880188,learn,54685.00018119812,Mon Mar 17 2025 15:40:28 GMT-0500 (Central Daylight Time),148363.19999998808,A,chimn,O,n,176,1,5314.5999999940395,143048.59999999404,7085,WL,A,1.0
1,5.5309998989105225,learn,54469.00010108948,Mon Mar 17 2025 15:40:28 GMT-0500 (Central Daylight Time),148579.59999999404,A,chimne,O,e,208,1,5531.0,143048.59999999404,7085,WL,A,1.0
1,5.997999906539917,learn,54002.00009346008,Mon Mar 17 2025 15:40:28 GMT-0500 (Central Daylight Time),149046.30000001192,A,chimney,O,y,448,1,5997.700000017881,143048.59999999404,7085,WL,A,1.0
1,7.2809998989105225,learn,52719.00010108948,Mon Mar 17 2025 15:40:28 GMT-0500 (Central Daylight Time),150329.40000000596,A,chimneyenter,O,enter,1277,1,7280.800000011921,143048.59999999404,7085,WL,A,1.0
1,8.230999946594238,learn,51769.00005340576,Mon Mar 17 2025 15:40:28 GMT-0500 (Central Daylight Time),151279.0,A,l,O,l,938,1,949.1999999880791,150329.80000001192,7085,WL,A,2.0
1,8.496999979019165,learn,51503.000020980835,Mon Mar 17 2025 15:40:28 GMT-0500 (Central Daylight Time),151545.40000000596,A,lo,O,o,253,1,1215.5999999940395,150329.80000001192,7085,WL,A,2.0
1,8.730000019073486,learn,51269.999980926514,Mon Mar 17 2025 15:40:28 GMT-0500 (Central Daylight Time),151778.69999998808,A,log,O,g,217,1,1448.8999999761581,150329.80000001192,7085,WL,A,2.0
1,9.429999828338623,learn,50570.00017166138,Mon Mar 17 2025 15:40:28 GMT-0500 (Central Daylight Time),152478.5,A,logenter,O,enter,680,1,2148.699999988079,150329.80000001192,7085,WL,A,2.0
1,10.079999923706055,learn,49920.000076293945,Mon Mar 17 2025 15:40:28 GMT-0500 (Central Daylight Time),153128.19999998808,A,m,O,m,637,1,649.1999999880791,152479.0,7085,WL,A,3.0
1,10.379999876022339,learn,49620.00012397766,Mon Mar 17 2025 15:40:28 GMT-0500 (Central Daylight Time),153428.30000001192,A,me,O,e,292,1,949.3000000119209,152479.0,7085,WL,A,3.0
1,10.61299991607666,learn,49387.00008392334,Mon Mar 17 2025 15:40:28 GMT-0500 (Central Daylight Time),153661.40000000596,A,mea,O,a,215,1,1182.4000000059605,152479.0,7085,WL,A,3.0
1,10.745999813079834,learn,49254.000186920166,Mon Mar 17 2025 15:40:28 GMT-0500 (Central Daylight Time),153794.59999999404,A,mead,O,d,118,1,1315.5999999940395,152479.0,7085,WL,A,3.0
1,10.928999900817871,learn,49071.00009918213,Mon Mar 17 2025 15:40:28 GMT-0500 (Central Daylight Time),153977.80000001192,A,meado,O,o,177,1,1498.800000011921,152479.0,7085,WL,A,3.0
1,11.145999908447266,learn,48854.000091552734,Mon Mar 17 2025 15:40:28 GMT-0500 (Central Daylight Time),154194.40000000596,A,meadow,O,w,210,1,1715.4000000059605,152479.0,7085,WL,A,3.0
1,11.596999883651733,learn,48403.00011634827,Mon Mar 17 2025 15:40:28 GMT-0500 (Central Daylight Time),154645.59999999404,A,meadowenter,O,enter,441,1,2166.5999999940395,152479.0,7085,WL,A,3.0
1,19.55999994277954,learn,40440.00005722046,Mon Mar 17 2025 15:40:28 GMT-0500 (Central Daylight Time),162608.59999999404,A,r,O,r,7942,1,7962.5,154646.09999999404,7085,WL,A,4.0
1,20.22699999809265,learn,39773.00000190735,Mon Mar 17 2025 15:40:28 GMT-0500 (Central Daylight Time),163275.19999998808,A,re,O,e,659,1,8629.09999999404,154646.09999999404,7085,WL,A,4.0
1,20.493000030517578,learn,39506.99996948242,Mon Mar 17 2025 15:40:28 GMT-0500 (Central Daylight Time),163541.80000001192,A,red,O,d,249,1,8895.700000017881,154646.09999999404,7085,WL,A,4.0
1,20.759999990463257,learn,39240.00000953674,Mon Mar 17 2025 15:40:28 GMT-0500 (Central Daylight Time),163808.0,A,redenter,O,enter,254,1,9161.90000000596,154646.09999999404,7085,WL,A,4.0
1,21.425999879837036,learn,38574.000120162964,Mon Mar 17 2025 15:40:28 GMT-0500 (Central Daylight Time),164474.59999999404,A,b,O,b,652,1,666.0999999940395,163808.5,7085,WL,A,5.0
1,21.692999839782715,learn,38307.000160217285,Mon Mar 17 2025 15:40:28 GMT-0500 (Central Daylight Time),164741.30000001192,A,bo,O,o,249,1,932.8000000119209,163808.5,7085,WL,A,5.0
1,21.842999935150146,learn,38157.00006484985,Mon Mar 17 2025 15:40:28 GMT-0500 (Central Daylight Time),164891.30000001192,A,boo,O,o,134,1,1082.800000011921,163808.5,7085,WL,A,5.0
1,22.042999982833862,learn,37957.00001716614,Mon Mar 17 2025 15:40:28 GMT-0500 (Central Daylight Time),165091.0,A,book,O,k,184,1,1282.5,163808.5,7085,WL,A,5.0
1,22.276000022888184,learn,37723.99997711182,Mon Mar 17 2025 15:40:28 GMT-0500 (Central Daylight Time),165324.30000001192,A,bookenter,O,enter,217,1,1515.800000011921,163808.5,7085,WL,A,5.0
1,48.51699995994568,learn,11483.000040054321,Mon Mar 17 2025 15:40:28 GMT-0500 (Central Daylight Time),191565.90000000596,A,a,O,a,26234,1,26241.09999999404,165324.80000001192,7085,WL,A,6.0
1,48.81699991226196,learn,11183.000087738037,Mon Mar 17 2025 15:40:28 GMT-0500 (Central Daylight Time),191865.90000000596,A,ap,O,p,294,1,26541.09999999404,165324.80000001192,7085,WL,A,6.0
1,49.01699995994568,learn,10983.000040054321,Mon Mar 17 2025 15:40:28 GMT-0500 (Central Daylight Time),192065.90000000596,A,app,O,p,194,1,26741.09999999404,165324.80000001192,7085,WL,A,6.0
1,49.23399996757507,learn,10766.000032424927,Mon Mar 17 2025 15:40:28 GMT-0500 (Central Daylight Time),192282.59999999404,A,appl,O,l,210,1,26957.79999998212,165324.80000001192,7085,WL,A,6.0
1,49.45099997520447,learn,10549.000024795532,Mon Mar 17 2025 15:40:28 GMT-0500 (Central Daylight Time),192499.09999999404,A,apple,O,e,209,1,27174.29999998212,165324.80000001192,7085,WL,A,6.0
1,49.68400001525879,learn,10315.999984741211,Mon Mar 17 2025 15:40:28 GMT-0500 (Central Daylight Time),192732.5,A,appleenter,O,enter,225,1,27407.69999998808,165324.80000001192,7085,WL,A,6.0
1,60.013999938964844,learn,-13.99993896484375,Mon Mar 17 2025 15:40:28 GMT-0500 (Central Daylight Time),203062.69999998808,A,None,O,None,10324,1,10329.799999982119,192732.90000000596,7085,WL,A,7.0
2,0.9000000953674316,learn,59099.99990463257,Mon Mar 17 2025 15:40:28 GMT-0500 (Central Daylight Time),271358.0,A,g,O,g,890,1,899.5,270458.5,7085,WL,A,1.0
2,1.0840001106262207,learn,58915.99988937378,Mon Mar 17 2025 15:40:28 GMT-0500 (Central Daylight Time),271541.40000000596,A,go,O,o,173,1,1082.9000000059605,270458.5,7085,WL,A,1.0
2,1.316999912261963,learn,58683.00008773804,Mon Mar 17 2025 15:40:28 GMT-0500 (Central Daylight Time),271774.40000000596,A,gol,O,l,215,1,1315.9000000059605,270458.5,7085,WL,A,1.0
2,1.5,learn,58500.0,Mon Mar 17 2025 15:40:28 GMT-0500 (Central Daylight Time),271957.6999999881,A,gold,O,d,173,1,1499.199999988079,270458.5,7085,WL,A,1.0
2,1.9170000553131104,learn,58082.99994468689,Mon Mar 17 2025 15:40:28 GMT-0500 (Central Daylight Time),272375.1999999881,A,goldenter,O,enter,398,1,1916.699999988079,270458.5,7085,WL,A,1.0
2,2.4830000400543213,learn,57516.99995994568,Mon Mar 17 2025 15:40:28 GMT-0500 (Central Daylight Time),272940.6999999881,A,b,O,b,549,1,565.1999999880791,272375.5,7085,WL,A,2.0
2,2.7660000324249268,learn,57233.99996757507,Mon Mar 17 2025 15:40:28 GMT-0500 (Central Daylight Time),273223.8000000119,A,bo,O,o,271,1,848.3000000119209,272375.5,7085,WL,A,2.0
2,2.9160001277923584,learn,57083.99987220764,Mon Mar 17 2025 15:40:28 GMT-0500 (Central Daylight Time),273374.09999999404,A,boo,O,o,140,1,998.5999999940395,272375.5,7085,WL,A,2.0
2,3.115999937057495,learn,56884.000062942505,Mon Mar 17 2025 15:40:28 GMT-0500 (Central Daylight Time),273573.90000000596,A,book,O,k,182,1,1198.4000000059605,272375.5,7085,WL,A,2.0
2,3.3489999771118164,learn,56651.00002288818,Mon Mar 17 2025 15:40:28 GMT-0500 (Central Daylight Time),273807.1999999881,A,bookenter,O,enter,222,1,1431.699999988079,272375.5,7085,WL,A,2.0
2,3.949000120162964,learn,56050.999879837036,Mon Mar 17 2025 15:40:28 GMT-0500 (Central Daylight Time),274407.09999999404,A,k,O,k,589,1,599.2999999821186,273807.8000000119,7085,WL,A,3.0
2,4.199000120162964,learn,55800.999879837036,Mon Mar 17 2025 15:40:28 GMT-0500 (Central Daylight Time),274656.90000000596,A,ke,O,e,237,1,849.0999999940395,273807.8000000119,7085,WL,A,3.0
2,4.416000127792358,learn,55583.99987220764,Mon Mar 17 2025 15:40:28 GMT-0500 (Central Daylight Time),274873.59999999404,A,key,O,y,196,1,1065.7999999821186,273807.8000000119,7085,WL,A,3.0
2,4.766000032424927,learn,55233.99996757507,Mon Mar 17 2025 15:40:28 GMT-0500 (Central Daylight Time),275223.3000000119,A,keyenter,O,enter,330,1,1415.5,273807.8000000119,7085,WL,A,3.0
2,5.131999969482422,learn,54868.00003051758,Mon Mar 17 2025 15:40:28 GMT-0500 (Central Daylight Time),275590.0,A,m,O,m,357,1,366.30000001192093,275223.6999999881,7085,WL,A,4.0
2,5.648999929428101,learn,54351.0000705719,Mon Mar 17 2025 15:40:28 GMT-0500 (Central Daylight Time),276106.59999999404,A,,O,backspace,502,1,882.9000000059605,275223.6999999881,7085,WL,A,4.0
2,6.181999921798706,learn,53818.000078201294,Mon Mar 17 2025 15:40:28 GMT-0500 (Central Daylight Time),276639.8000000119,A,m,O,m,521,1,1416.1000000238419,275223.6999999881,7085,WL,A,4.0
2,6.365000009536743,learn,53634.99999046326,Mon Mar 17 2025 15:40:28 GMT-0500 (Central Daylight Time),276823.0,A,me,O,e,164,1,1599.300000011921,275223.6999999881,7085,WL,A,4.0
2,6.482000112533569,learn,53517.99988746643,Mon Mar 17 2025 15:40:28 GMT-0500 (Central Daylight Time),276939.5,A,mea,O,a,109,1,1715.800000011921,275223.6999999881,7085,WL,A,4.0
2,6.681999921798706,learn,53318.000078201294,Mon Mar 17 2025 15:40:28 GMT-0500 (Central Daylight Time),277139.40000000596,A,meas,O,s,193,1,1915.7000000178814,275223.6999999881,7085,WL,A,4.0
2,7.29800009727478,learn,52701.99990272522,Mon Mar 17 2025 15:40:28 GMT-0500 (Central Daylight Time),277756.40000000596,A,mea,O,backspace,609,1,2532.7000000178814,275223.6999999881,7085,WL,A,4.0
2,7.447999954223633,learn,52552.00004577637,Mon Mar 17 2025 15:40:28 GMT-0500 (Central Daylight Time),277905.6999999881,A,mead,O,d,136,1,2682.0,275223.6999999881,7085,WL,A,4.0
2,7.615000009536743,learn,52384.99999046326,Mon Mar 17 2025 15:40:28 GMT-0500 (Central Daylight Time),278072.8000000119,A,meado,O,o,146,1,2849.100000023842,275223.6999999881,7085,WL,A,4.0
2,7.898000001907349,learn,52101.99999809265,Mon Mar 17 2025 15:40:28 GMT-0500 (Central Daylight Time),278355.6999999881,A,meadow,O,w,268,1,3132.0,275223.6999999881,7085,WL,A,4.0
2,8.763999938964844,learn,51236.000061035156,Mon Mar 17 2025 15:40:28 GMT-0500 (Central Daylight Time),279221.90000000596,A,meadowenter,O,enter,848,1,3998.2000000178814,275223.6999999881,7085,WL,A,4.0
2,9.397000074386597,learn,50602.9999256134,Mon Mar 17 2025 15:40:28 GMT-0500 (Central Daylight Time),279855.3000000119,A,l,O,l,614,1,633.0,279222.3000000119,7085,WL,A,5.0
2,9.564000129699707,learn,50435.99987030029,Mon Mar 17 2025 15:40:28 GMT-0500 (Central Daylight Time),280021.8000000119,A,lo,O,o,156,1,799.5,279222.3000000119,7085,WL,A,5.0
2,9.730999946594238,learn,50269.00005340576,Mon Mar 17 2025 15:40:28 GMT-0500 (Central Daylight Time),280188.59999999404,A,log,O,g,150,1,966.2999999821186,279222.3000000119,7085,WL,A,5.0
2,9.96399998664856,learn,50036.00001335144,Mon Mar 17 2025 15:40:28 GMT-0500 (Central Daylight Time),280421.90000000596,A,logenter,O,enter,224,1,1199.5999999940395,279222.3000000119,7085,WL,A,5.0
2,15.26200008392334,learn,44737.99991607666,Mon Mar 17 2025 15:40:28 GMT-0500 (Central Daylight Time),285719.6999999881,A,f,O,f,5291,1,5297.399999976158,280422.3000000119,7085,WL,A,6.0
2,15.407999992370605,learn,44592.000007629395,Mon Mar 17 2025 15:40:28 GMT-0500 (Central Daylight Time),285865.40000000596,A,fi,O,i,140,1,5443.0999999940395,280422.3000000119,7085,WL,A,6.0
2,15.495000123977661,learn,44504.99987602234,Mon Mar 17 2025 15:40:28 GMT-0500 (Central Daylight Time),285953.1999999881,A,fir,O,r,82,1,5530.899999976158,280422.3000000119,7085,WL,A,6.0
2,15.779000043869019,learn,44220.99995613098,Mon Mar 17 2025 15:40:28 GMT-0500 (Central Daylight Time),286236.6999999881,A,fire,O,e,275,1,5814.399999976158,280422.3000000119,7085,WL,A,6.0
2,16.161999940872192,learn,43838.00005912781,Mon Mar 17 2025 15:40:28 GMT-0500 (Central Daylight Time),286619.90000000596,A,fireenter,O,enter,367,1,6197.5999999940395,280422.3000000119,7085,WL,A,6.0
2,17.812000036239624,learn,42187.999963760376,Mon Mar 17 2025 15:40:28 GMT-0500 (Central Daylight Time),288269.5,A,r,O,r,1632,1,1649.199999988079,286620.3000000119,7085,WL,A,7.0
2,17.911999940872192,learn,42088.00005912781,Mon Mar 17 2025 15:40:28 GMT-0500 (Central Daylight Time),288369.40000000596,A,re,O,e,94,1,1749.0999999940395,286620.3000000119,7085,WL,A,7.0
2,18.144999980926514,learn,41855.000019073486,Mon Mar 17 2025 15:40:28 GMT-0500 (Central Daylight Time),288602.3000000119,A,red,O,d,227,1,1982.0,286620.3000000119,7085,WL,A,7.0
2,18.378000020980835,learn,41621.999979019165,Mon Mar 17 2025 15:40:28 GMT-0500 (Central Daylight Time),288835.8000000119,A,redenter,O,enter,226,1,2215.5,286620.3000000119,7085,WL,A,7.0
2,20.55999994277954,learn,39440.00005722046,Mon Mar 17 2025 15:40:28 GMT-0500 (Central Daylight Time),291018.1999999881,A,a,O,a,2176,1,2182.0,288836.1999999881,7085,WL,A,8.0
2,20.811000108718872,learn,39188.99989128113,Mon Mar 17 2025 15:40:28 GMT-0500 (Central Daylight Time),291268.40000000596,A,ap,O,p,234,1,2432.2000000178814,288836.1999999881,7085,WL,A,8.0
2,20.944000005722046,learn,39055.999994277954,Mon Mar 17 2025 15:40:28 GMT-0500 (Central Daylight Time),291401.6999999881,A,app,O,p,112,1,2565.5,288836.1999999881,7085,WL,A,8.0
2,21.177000045776367,learn,38822.99995422363,Mon Mar 17 2025 15:40:28 GMT-0500 (Central Daylight Time),291635.0,A,appl,O,l,226,1,2798.800000011921,288836.1999999881,7085,WL,A,8.0
2,21.776999950408936,learn,38223.000049591064,Mon Mar 17 2025 15:40:28 GMT-0500 (Central Daylight Time),292234.6999999881,A,apple,O,e,585,1,3398.5,288836.1999999881,7085,WL,A,8.0
2,22.14400005340576,learn,37855.99994659424,Mon Mar 17 2025 15:40:28 GMT-0500 (Central Daylight Time),292601.3000000119,A,appleenter,O,enter,345,1,3765.100000023842,288836.1999999881,7085,WL,A,8.0
2,40.73799991607666,learn,19262.00008392334,Mon Mar 17 2025 15:40:28 GMT-0500 (Central Daylight Time),311195.5,A,k,O,k,18587,1,18593.90000000596,292601.59999999404,7085,WL,A,9.0
2,40.937000036239624,learn,19062.999963760376,Mon Mar 17 2025 15:40:28 GMT-0500 (Central Daylight Time),311395.40000000596,A,ke,O,e,184,1,18793.80000001192,292601.59999999404,7085,WL,A,9.0
2,41.08800005912781,learn,18911.999940872192,Mon Mar 17 2025 15:40:28 GMT-0500 (Central Daylight Time),311545.5,A,key,O,y,145,1,18943.90000000596,292601.59999999404,7085,WL,A,9.0
2,41.38700008392334,learn,18612.99991607666,Mon Mar 17 2025 15:40:28 GMT-0500 (Central Daylight Time),311845.1999999881,A,keyenter,O,enter,291,1,19243.59999999404,292601.59999999404,7085,WL,A,9.0
2,60.015000104904175,learn,-15.000104904174805,Mon Mar 17 2025 15:40:28 GMT-0500 (Central Daylight Time),330472.90000000596,A,None,O,None,18623,1,18627.5,311845.40000000596,7085,WL,A,10.0
3,0.9829998016357422,learn,59017.00019836426,Mon Mar 17 2025 15:40:28 GMT-0500 (Central Daylight Time),397318.5,A,g,O,g,973,1,982.9000000059605,396335.59999999404,7085,WL,A,1.0
3,1.2170000076293945,learn,58782.999992370605,Mon Mar 17 2025 15:40:28 GMT-0500 (Central Daylight Time),397551.8000000119,A,go,O,o,213,1,1216.2000000178814,396335.59999999404,7085,WL,A,1.0
3,1.3999998569488525,learn,58600.00014305115,Mon Mar 17 2025 15:40:28 GMT-0500 (Central Daylight Time),397735.3000000119,A,gol,O,l,164,1,1399.7000000178814,396335.59999999404,7085,WL,A,1.0
3,1.6180000305175781,learn,58381.99996948242,Mon Mar 17 2025 15:40:28 GMT-0500 (Central Daylight Time),397952.90000000596,A,gold,O,d,197,1,1617.300000011921,396335.59999999404,7085,WL,A,1.0
3,1.9499998092651367,learn,58050.00019073486,Mon Mar 17 2025 15:40:28 GMT-0500 (Central Daylight Time),398285.0,A,goldenter,O,enter,323,1,1949.4000000059605,396335.59999999404,7085,WL,A,1.0
3,2.299999952316284,learn,57700.000047683716,Mon Mar 17 2025 15:40:28 GMT-0500 (Central Daylight Time),398634.90000000596,A,b,O,b,343,1,349.5,398285.40000000596,7085,WL,A,2.0
3,2.5160000324249268,learn,57483.99996757507,Mon Mar 17 2025 15:40:28 GMT-0500 (Central Daylight Time),398851.5,A,bu,O,u,201,1,566.0999999940395,398285.40000000596,7085,WL,A,2.0
3,2.732999801635742,learn,57267.00019836426,Mon Mar 17 2025 15:40:28 GMT-0500 (Central Daylight Time),399068.09999999404,A,but,O,t,201,1,782.6999999880791,398285.40000000596,7085,WL,A,2.0
3,2.8989999294281006,learn,57101.0000705719,Mon Mar 17 2025 15:40:28 GMT-0500 (Central Daylight Time),399234.8000000119,A,butt,O,t,152,1,949.4000000059605,398285.40000000596,7085,WL,A,2.0
3,3.0329999923706055,learn,56967.000007629395,Mon Mar 17 2025 15:40:28 GMT-0500 (Central Daylight Time),399368.0,A,butti,O,i,114,1,1082.5999999940395,398285.40000000596,7085,WL,A,2.0
3,3.2660000324249268,learn,56733.99996757507,Mon Mar 17 2025 15:40:28 GMT-0500 (Central Daylight Time),399601.1999999881,A,buttin,O,n,220,1,1315.7999999821186,398285.40000000596,7085,WL,A,2.0
3,3.8320000171661377,learn,56167.99998283386,Mon Mar 17 2025 15:40:28 GMT-0500 (Central Daylight Time),400167.6999999881,A,butti,O,backspace,547,1,1882.2999999821186,398285.40000000596,7085,WL,A,2.0
3,4.115999937057495,learn,55884.000062942505,Mon Mar 17 2025 15:40:28 GMT-0500 (Central Daylight Time),400450.90000000596,A,butt,O,backspace,268,1,2165.5,398285.40000000596,7085,WL,A,2.0
3,4.631999969482422,learn,55368.00003051758,Mon Mar 17 2025 15:40:28 GMT-0500 (Central Daylight Time),400967.40000000596,A,butto,O,o,497,1,2682.0,398285.40000000596,7085,WL,A,2.0
3,4.848999977111816,learn,55151.00002288818,Mon Mar 17 2025 15:40:28 GMT-0500 (Central Daylight Time),401184.09999999404,A,button,O,n,197,1,2898.699999988079,398285.40000000596,7085,WL,A,2.0
3,5.7149999141693115,learn,54285.00008583069,Mon Mar 17 2025 15:40:28 GMT-0500 (Central Daylight Time),402050.40000000596,A,buttonenter,O,enter,852,1,3765.0,398285.40000000596,7085,WL,A,2.0
3,6.082000017166138,learn,53917.99998283386,Mon Mar 17 2025 15:40:28 GMT-0500 (Central Daylight Time),402417.09999999404,A,k,O,k,345,1,366.2999999821186,402050.8000000119,7085,WL,A,3.0
3,6.31499981880188,learn,53685.00018119812,Mon Mar 17 2025 15:40:28 GMT-0500 (Central Daylight Time),402650.09999999404,A,ke,O,e,219,1,599.2999999821186,402050.8000000119,7085,WL,A,3.0
3,6.630999803543091,learn,53369.00019645691,Mon Mar 17 2025 15:40:28 GMT-0500 (Central Daylight Time),402966.6999999881,A,key,O,y,306,1,915.8999999761581,402050.8000000119,7085,WL,A,3.0
3,7.292999982833862,learn,52707.00001716614,Mon Mar 17 2025 15:40:28 GMT-0500 (Central Daylight Time),403627.8000000119,A,keyenter,O,enter,656,1,1577.0,402050.8000000119,7085,WL,A,3.0
3,7.631999969482422,learn,52368.00003051758,Mon Mar 17 2025 15:40:28 GMT-0500 (Central Daylight Time),403967.6999999881,A,b,O,b,329,1,339.59999999403954,403628.09999999404,7085,WL,A,4.0
3,7.930999994277954,learn,52069.000005722046,Mon Mar 17 2025 15:40:28 GMT-0500 (Central Daylight Time),404266.59999999404,A,bo,O,o,284,1,638.5,403628.09999999404,7085,WL,A,4.0
3,8.080999851226807,learn,51919.00014877319,Mon Mar 17 2025 15:40:28 GMT-0500 (Central Daylight Time),404416.5,A,boo,O,o,130,1,788.4000000059605,403628.09999999404,7085,WL,A,4.0
3,8.280999898910522,learn,51719.00010108948,Mon Mar 17 2025 15:40:28 GMT-0500 (Central Daylight Time),404616.3000000119,A,book,O,k,180,1,988.2000000178814,403628.09999999404,7085,WL,A,4.0
3,8.46399998664856,learn,51536.00001335144,Mon Mar 17 2025 15:40:28 GMT-0500 (Central Daylight Time),404799.40000000596,A,bookenter,O,enter,172,1,1171.300000011921,403628.09999999404,7085,WL,A,4.0
3,8.648000001907349,learn,51351.99999809265,Mon Mar 17 2025 15:40:28 GMT-0500 (Central Daylight Time),404982.90000000596,A,t,O,t,165,1,183.2000000178814,404799.6999999881,7085,WL,A,5.0
3,8.846999883651733,learn,51153.00011634827,Mon Mar 17 2025 15:40:28 GMT-0500 (Central Daylight Time),405182.6999999881,A,tr,O,r,189,1,383.0,404799.6999999881,7085,WL,A,5.0
3,8.896999835968018,learn,51103.00016403198,Mon Mar 17 2025 15:40:28 GMT-0500 (Central Daylight Time),405232.5,A,tra,O,a,37,1,432.80000001192093,404799.6999999881,7085,WL,A,5.0
3,9.080999851226807,learn,50919.00014877319,Mon Mar 17 2025 15:40:28 GMT-0500 (Central Daylight Time),405416.09999999404,A,trai,O,i,164,1,616.4000000059605,404799.6999999881,7085,WL,A,5.0
3,9.496999979019165,learn,50503.000020980835,Mon Mar 17 2025 15:40:28 GMT-0500 (Central Daylight Time),405832.59999999404,A,train,O,n,404,1,1032.9000000059605,404799.6999999881,7085,WL,A,5.0
3,10.246999979019165,learn,49753.000020980835,Mon Mar 17 2025 15:40:28 GMT-0500 (Central Daylight Time),406582.3000000119,A,trainenter,O,enter,739,1,1782.6000000238419,404799.6999999881,7085,WL,A,5.0
3,12.19700002670288,learn,47802.99997329712,Mon Mar 17 2025 15:40:28 GMT-0500 (Central Daylight Time),408531.8000000119,A,r,O,r,1942,1,1949.2000000178814,406582.59999999404,7085,WL,A,6.0
3,12.52999997138977,learn,47470.00002861023,Mon Mar 17 2025 15:40:28 GMT-0500 (Central Daylight Time),408865.09999999404,A,re,O,e,312,1,2282.5,406582.59999999404,7085,WL,A,6.0
3,12.745999813079834,learn,47254.000186920166,Mon Mar 17 2025 15:40:28 GMT-0500 (Central Daylight Time),409081.59999999404,A,red,O,d,211,1,2499.0,406582.59999999404,7085,WL,A,6.0
3,12.962999820709229,learn,47037.00017929077,Mon Mar 17 2025 15:40:28 GMT-0500 (Central Daylight Time),409298.3000000119,A,redenter,O,enter,202,1,2715.7000000178814,406582.59999999404,7085,WL,A,6.0
3,13.312999963760376,learn,46687.000036239624,Mon Mar 17 2025 15:40:28 GMT-0500 (Central Daylight Time),409648.1999999881,A,m,O,m,338,1,349.5,409298.6999999881,7085,WL,A,7.0
3,13.462999820709229,learn,46537.00017929077,Mon Mar 17 2025 15:40:28 GMT-0500 (Central Daylight Time),409798.3000000119,A,me,O,e,140,1,499.60000002384186,409298.6999999881,7085,WL,A,7.0
3,13.562999963760376,learn,46437.000036239624,Mon Mar 17 2025 15:40:28 GMT-0500 (Central Daylight Time),409897.8000000119,A,mea,O,a,94,1,599.1000000238419,409298.6999999881,7085,WL,A,7.0
3,13.763000011444092,learn,46236.99998855591,Mon Mar 17 2025 15:40:28 GMT-0500 (Central Daylight Time),410098.0,A,mead,O,d,186,1,799.3000000119209,409298.6999999881,7085,WL,A,7.0
3,13.995999813079834,learn,46004.000186920166,Mon Mar 17 2025 15:40:28 GMT-0500 (Central Daylight Time),410331.3000000119,A,meado,O,o,226,1,1032.6000000238419,409298.6999999881,7085,WL,A,7.0
3,14.395999908447266,learn,45604.000091552734,Mon Mar 17 2025 15:40:28 GMT-0500 (Central Daylight Time),410731.0,A,meadom,O,m,385,1,1432.300000011921,409298.6999999881,7085,WL,A,7.0
3,15.095999956130981,learn,44904.00004386902,Mon Mar 17 2025 15:40:28 GMT-0500 (Central Daylight Time),411430.8000000119,A,meadomenter,O,enter,689,1,2132.100000023842,409298.6999999881,7085,WL,A,7.0
3,15.52899980545044,learn,44471.00019454956,Mon Mar 17 2025 15:40:28 GMT-0500 (Central Daylight Time),411864.1999999881,A,c,O,c,421,1,433.09999999403954,411431.09999999404,7085,WL,A,8.0
3,15.645999908447266,learn,44354.000091552734,Mon Mar 17 2025 15:40:28 GMT-0500 (Central Daylight Time),411980.8000000119,A,ch,O,h,108,1,549.7000000178814,411431.09999999404,7085,WL,A,8.0
3,15.77899980545044,learn,44221.00019454956,Mon Mar 17 2025 15:40:28 GMT-0500 (Central Daylight Time),412114.09999999404,A,chi,O,i,112,1,683.0,411431.09999999404,7085,WL,A,8.0
3,15.928999900817871,learn,44071.00009918213,Mon Mar 17 2025 15:40:28 GMT-0500 (Central Daylight Time),412264.0,A,chim,O,m,130,1,832.9000000059605,411431.09999999404,7085,WL,A,8.0
3,16.078999996185303,learn,43921.0000038147,Mon Mar 17 2025 15:40:28 GMT-0500 (Central Daylight Time),412413.90000000596,A,chime,O,e,132,1,982.8000000119209,411431.09999999404,7085,WL,A,8.0
3,16.57799983024597,learn,43422.00016975403,Mon Mar 17 2025 15:40:28 GMT-0500 (Central Daylight Time),412913.59999999404,A,chimen,O,n,479,1,1482.5,411431.09999999404,7085,WL,A,8.0
3,17.144999980926514,learn,42855.000019073486,Mon Mar 17 2025 15:40:28 GMT-0500 (Central Daylight Time),413480.1999999881,A,chimeny,O,y,554,1,2049.0999999940395,411431.09999999404,7085,WL,A,8.0
3,17.92799997329712,learn,42072.00002670288,Mon Mar 17 2025 15:40:28 GMT-0500 (Central Daylight Time),414263.40000000596,A,chimen,O,backspace,772,1,2832.300000011921,411431.09999999404,7085,WL,A,8.0
3,18.227999925613403,learn,41772.0000743866,Mon Mar 17 2025 15:40:28 GMT-0500 (Central Daylight Time),414563.5,A,chime,O,backspace,285,1,3132.4000000059605,411431.09999999404,7085,WL,A,8.0
3,18.560999870300293,learn,41439.00012969971,Mon Mar 17 2025 15:40:28 GMT-0500 (Central Daylight Time),414896.3000000119,A,chim,O,backspace,321,1,3465.2000000178814,411431.09999999404,7085,WL,A,8.0
3,18.977999925613403,learn,41022.0000743866,Mon Mar 17 2025 15:40:28 GMT-0500 (Central Daylight Time),415313.09999999404,A,chimn,O,n,396,1,3882.0,411431.09999999404,7085,WL,A,8.0
3,19.17799997329712,learn,40822.00002670288,Mon Mar 17 2025 15:40:28 GMT-0500 (Central Daylight Time),415513.0,A,chimne,O,e,179,1,4081.9000000059605,411431.09999999404,7085,WL,A,8.0
3,19.360999822616577,learn,40639.00017738342,Mon Mar 17 2025 15:40:28 GMT-0500 (Central Daylight Time),415696.0,A,chimney,O,y,163,1,4264.9000000059605,411431.09999999404,7085,WL,A,8.0
3,19.926999807357788,learn,40073.00019264221,Mon Mar 17 2025 15:40:28 GMT-0500 (Central Daylight Time),416262.8000000119,A,chimneyenter,O,enter,556,1,4831.700000017881,411431.09999999404,7085,WL,A,8.0
3,21.209999799728394,learn,38790.00020027161,Mon Mar 17 2025 15:40:28 GMT-0500 (Central Daylight Time),417545.59999999404,A,b,O,b,1262,1,1282.5,416263.09999999404,7085,WL,A,9.0
3,21.426999807357788,learn,38573.00019264221,Mon Mar 17 2025 15:40:28 GMT-0500 (Central Daylight Time),417762.09999999404,A,bo,O,o,211,1,1499.0,416263.09999999404,7085,WL,A,9.0
3,21.5939998626709,learn,38406.0001373291,Mon Mar 17 2025 15:40:28 GMT-0500 (Central Daylight Time),417928.6999999881,A,boo,O,o,154,1,1665.5999999940395,416263.09999999404,7085,WL,A,9.0
3,21.776999950408936,learn,38223.000049591064,Mon Mar 17 2025 15:40:28 GMT-0500 (Central Daylight Time),418112.1999999881,A,book,O,k,171,1,1849.0999999940395,416263.09999999404,7085,WL,A,9.0
3,22.009999990463257,learn,37990.00000953674,Mon Mar 17 2025 15:40:28 GMT-0500 (Central Daylight Time),418345.40000000596,A,bookenter,O,enter,228,1,2082.300000011921,416263.09999999404,7085,WL,A,9.0
3,26.256999969482422,learn,33743.00003051758,Mon Mar 17 2025 15:40:28 GMT-0500 (Central Daylight Time),422593.8000000119,A,f,O,f,4244,1,4248.100000023842,418345.6999999881,7085,WL,A,10.0
3,26.457000017166138,learn,33542.99998283386,Mon Mar 17 2025 15:40:28 GMT-0500 (Central Daylight Time),422793.90000000596,A,fi,O,i,194,1,4448.200000017881,418345.6999999881,7085,WL,A,10.0
3,26.573999881744385,learn,33426.000118255615,Mon Mar 17 2025 15:40:28 GMT-0500 (Central Daylight Time),422910.59999999404,A,fir,O,r,98,1,4564.9000000059605,418345.6999999881,7085,WL,A,10.0
3,26.806999921798706,learn,33193.000078201294,Mon Mar 17 2025 15:40:28 GMT-0500 (Central Daylight Time),423143.6999999881,A,fire,O,e,214,1,4798.0,418345.6999999881,7085,WL,A,10.0
3,27.174000024795532,learn,32825.99997520447,Mon Mar 17 2025 15:40:28 GMT-0500 (Central Daylight Time),423510.3000000119,A,fireenter,O,enter,357,1,5164.600000023842,418345.6999999881,7085,WL,A,10.0
3,28.240000009536743,learn,31759.999990463257,Mon Mar 17 2025 15:40:28 GMT-0500 (Central Daylight Time),424576.8000000119,A,t,O,t,1046,1,1066.1000000238419,423510.6999999881,7085,WL,A,11.0
3,28.389999866485596,learn,31610.000133514404,Mon Mar 17 2025 15:40:28 GMT-0500 (Central Daylight Time),424726.6999999881,A,tr,O,r,139,1,1216.0,423510.6999999881,7085,WL,A,11.0
3,28.472999811172485,learn,31527.000188827515,Mon Mar 17 2025 15:40:28 GMT-0500 (Central Daylight Time),424809.8000000119,A,tra,O,a,77,1,1299.1000000238419,423510.6999999881,7085,WL,A,11.0
3,28.639999866485596,learn,31360.000133514404,Mon Mar 17 2025 15:40:28 GMT-0500 (Central Daylight Time),424976.59999999404,A,trai,O,i,154,1,1465.9000000059605,423510.6999999881,7085,WL,A,11.0
3,28.822999954223633,learn,31177.000045776367,Mon Mar 17 2025 15:40:28 GMT-0500 (Central Daylight Time),425159.90000000596,A,train,O,n,164,1,1649.2000000178814,423510.6999999881,7085,WL,A,11.0
3,29.072999954223633,learn,30927.000045776367,Mon Mar 17 2025 15:40:28 GMT-0500 (Central Daylight Time),425410.0,A,trainenter,O,enter,228,1,1899.300000011921,423510.6999999881,7085,WL,A,11.0
3,37.90499997138977,learn,22095.00002861023,Mon Mar 17 2025 15:40:28 GMT-0500 (Central Daylight Time),434241.3000000119,A,g,O,g,8810,1,8831.0,425410.3000000119,7085,WL,A,12.0
3,38.13699984550476,learn,21863.00015449524,Mon Mar 17 2025 15:40:28 GMT-0500 (Central Daylight Time),434473.59999999404,A,go,O,o,218,1,9063.299999982119,425410.3000000119,7085,WL,A,12.0
3,38.32099986076355,learn,21679.00013923645,Mon Mar 17 2025 15:40:28 GMT-0500 (Central Daylight Time),434657.0,A,gol,O,l,163,1,9246.699999988079,425410.3000000119,7085,WL,A,12.0
3,38.4210000038147,learn,21578.999996185303,Mon Mar 17 2025 15:40:28 GMT-0500 (Central Daylight Time),434757.0,A,gold,O,d,91,1,9346.699999988079,425410.3000000119,7085,WL,A,12.0
3,38.90399980545044,learn,21096.00019454956,Mon Mar 17 2025 15:40:28 GMT-0500 (Central Daylight Time),435240.1999999881,A,goldenter,O,enter,463,1,9829.899999976158,425410.3000000119,7085,WL,A,12.0
3,45.484999895095825,learn,14515.000104904175,Mon Mar 17 2025 15:40:28 GMT-0500 (Central Daylight Time),441821.3000000119,A,k,O,k,6572,1,6580.800000011921,435240.5,7085,WL,A,13.0
3,45.734999895095825,learn,14265.000104904175,Mon Mar 17 2025 15:40:28 GMT-0500 (Central Daylight Time),442071.3000000119,A,ke,O,e,231,1,6830.800000011921,435240.5,7085,WL,A,13.0
3,45.93499994277954,learn,14065.000057220459,Mon Mar 17 2025 15:40:28 GMT-0500 (Central Daylight Time),442271.40000000596,A,key,O,y,181,1,7030.9000000059605,435240.5,7085,WL,A,13.0
3,46.25099992752075,learn,13749.000072479248,Mon Mar 17 2025 15:40:28 GMT-0500 (Central Daylight Time),442587.6999999881,A,keyenter,O,enter,301,1,7347.199999988079,435240.5,7085,WL,A,13.0
3,51.632999897003174,learn,8367.000102996826,Mon Mar 17 2025 15:40:28 GMT-0500 (Central Daylight Time),447969.40000000596,A,b,O,b,5362,1,5381.300000011921,442588.09999999404,7085,WL,A,14.0
3,51.81599998474121,learn,8184.000015258789,Mon Mar 17 2025 15:40:28 GMT-0500 (Central Daylight Time),448152.8000000119,A,bu,O,u,162,1,5564.700000017881,442588.09999999404,7085,WL,A,14.0
3,51.99899983406067,learn,8001.000165939331,Mon Mar 17 2025 15:40:28 GMT-0500 (Central Daylight Time),448335.90000000596,A,but,O,t,171,1,5747.800000011921,442588.09999999404,7085,WL,A,14.0
3,52.18299984931946,learn,7817.000150680542,Mon Mar 17 2025 15:40:28 GMT-0500 (Central Daylight Time),448519.0,A,butt,O,t,172,1,5930.9000000059605,442588.09999999404,7085,WL,A,14.0
3,52.29900002479553,learn,7700.999975204468,Mon Mar 17 2025 15:40:28 GMT-0500 (Central Daylight Time),448635.59999999404,A,butto,O,o,109,1,6047.5,442588.09999999404,7085,WL,A,14.0
3,52.33299994468689,learn,7667.00005531311,Mon Mar 17 2025 15:40:28 GMT-0500 (Central Daylight Time),448669.0,A,buttoi,O,i,16,1,6080.9000000059605,442588.09999999404,7085,WL,A,14.0
3,52.882999897003174,learn,7117.000102996826,Mon Mar 17 2025 15:40:28 GMT-0500 (Central Daylight Time),449219.09999999404,A,butto,O,backspace,543,1,6631.0,442588.09999999404,7085,WL,A,14.0
3,53.467000007629395,learn,6532.9999923706055,Mon Mar 17 2025 15:40:28 GMT-0500 (Central Daylight Time),449803.40000000596,A,button,O,n,577,1,7215.300000011921,442588.09999999404,7085,WL,A,14.0
3,54.24300003051758,learn,5756.999969482422,Mon Mar 17 2025 15:40:28 GMT-0500 (Central Daylight Time),450579.90000000596,A,buttonenter,O,enter,772,1,7991.800000011921,442588.09999999404,7085,WL,A,14.0
3,60.013999938964844,learn,-13.99993896484375,Mon Mar 17 2025 15:40:28 GMT-0500 (Central Daylight Time),456350.1999999881,A,None,O,None,5764,1,5769.699999988079,450580.5,7085,WL,A,15.0
4,0.9489998817443848,learn,59051.000118255615,Mon Mar 17 2025 15:40:28 GMT-0500 (Central Daylight Time),523195.90000000596,A,b,O,b,943,1,949.5,522246.40000000596,7085,WL,A,1.0
4,1.2990000247955322,learn,58700.99997520447,Mon Mar 17 2025 15:40:28 GMT-0500 (Central Daylight Time),523545.8000000119,A,bo,O,o,344,1,1299.4000000059605,522246.40000000596,7085,WL,A,1.0
4,1.5320000648498535,learn,58467.99993515015,Mon Mar 17 2025 15:40:28 GMT-0500 (Central Daylight Time),523779.0,A,boo,O,o,218,1,1532.5999999940395,522246.40000000596,7085,WL,A,1.0
4,1.8819999694824219,learn,58118.00003051758,Mon Mar 17 2025 15:40:28 GMT-0500 (Central Daylight Time),524129.0,A,book,O,k,329,1,1882.5999999940395,522246.40000000596,7085,WL,A,1.0
4,2.315000057220459,learn,57684.99994277954,Mon Mar 17 2025 15:40:28 GMT-0500 (Central Daylight Time),524562.099999994,A,bookenter,O,enter,419,1,2315.699999988079,522246.40000000596,7085,WL,A,1.0
4,2.6489999294281006,learn,57351.0000705719,Mon Mar 17 2025 15:40:28 GMT-0500 (Central Daylight Time),524895.400000006,A,f,O,f,314,1,332.80000001192093,524562.599999994,7085,WL,A,2.0
4,2.881999969482422,learn,57118.00003051758,Mon Mar 17 2025 15:40:28 GMT-0500 (Central Daylight Time),525128.5,A,fl,O,l,213,1,565.9000000059605,524562.599999994,7085,WL,A,2.0
4,3.0999999046325684,learn,56900.00009536743,Mon Mar 17 2025 15:40:28 GMT-0500 (Central Daylight Time),525346.400000006,A,flo,O,o,196,1,783.8000000119209,524562.599999994,7085,WL,A,2.0
4,3.4820001125335693,learn,56517.99988746643,Mon Mar 17 2025 15:40:28 GMT-0500 (Central Daylight Time),525728.1999999881,A,flow,O,w,362,1,1165.5999999940395,524562.599999994,7085,WL,A,2.0
4,3.631999969482422,learn,56368.00003051758,Mon Mar 17 2025 15:40:28 GMT-0500 (Central Daylight Time),525878.400000006,A,flowe,O,e,140,1,1315.800000011921,524562.599999994,7085,WL,A,2.0
4,3.8320000171661377,learn,56167.99998283386,Mon Mar 17 2025 15:40:28 GMT-0500 (Central Daylight Time),526078.400000006,A,flower,O,r,182,1,1515.800000011921,524562.599999994,7085,WL,A,2.0
4,4.115000009536743,learn,55884.99999046326,Mon Mar 17 2025 15:40:28 GMT-0500 (Central Daylight Time),526361.5,A,flowerenter,O,enter,270,1,1798.9000000059605,524562.599999994,7085,WL,A,2.0
4,4.497999906539917,learn,55502.00009346008,Mon Mar 17 2025 15:40:28 GMT-0500 (Central Daylight Time),526744.900000006,A,t,O,t,363,1,383.09999999403954,526361.8000000119,7085,WL,A,3.0
4,4.815000057220459,learn,55184.99994277954,Mon Mar 17 2025 15:40:28 GMT-0500 (Central Daylight Time),527061.3000000119,A,tr,O,r,307,1,699.5,526361.8000000119,7085,WL,A,3.0
4,5.049000024795532,learn,54950.99997520447,Mon Mar 17 2025 15:40:28 GMT-0500 (Central Daylight Time),527295.6999999881,A,tra,O,a,223,1,933.8999999761581,526361.8000000119,7085,WL,A,3.0
4,5.247999906539917,learn,54752.00009346008,Mon Mar 17 2025 15:40:28 GMT-0500 (Central Daylight Time),527494.599999994,A,trai,O,i,181,1,1132.7999999821186,526361.8000000119,7085,WL,A,3.0
4,5.46399998664856,learn,54536.00001335144,Mon Mar 17 2025 15:40:28 GMT-0500 (Central Daylight Time),527711.099999994,A,train,O,n,206,1,1349.2999999821186,526361.8000000119,7085,WL,A,3.0
4,5.730999946594238,learn,54269.00005340576,Mon Mar 17 2025 15:40:28 GMT-0500 (Central Daylight Time),527977.599999994,A,trainenter,O,enter,254,1,1615.7999999821186,526361.8000000119,7085,WL,A,3.0
4,6.197999954223633,learn,53802.00004577637,Mon Mar 17 2025 15:40:28 GMT-0500 (Central Daylight Time),528444.400000006,A,m,O,m,451,1,466.40000000596046,527978.0,7085,WL,A,4.0
4,6.46399998664856,learn,53536.00001335144,Mon Mar 17 2025 15:40:28 GMT-0500 (Central Daylight Time),528710.6999999881,A,me,O,e,256,1,732.6999999880791,527978.0,7085,WL,A,4.0
4,6.664000034332275,learn,53335.999965667725,Mon Mar 17 2025 15:40:28 GMT-0500 (Central Daylight Time),528910.599999994,A,mea,O,a,189,1,932.5999999940395,527978.0,7085,WL,A,4.0
4,6.897000074386597,learn,53102.9999256134,Mon Mar 17 2025 15:40:28 GMT-0500 (Central Daylight Time),529144.099999994,A,mead,O,d,214,1,1166.0999999940395,527978.0,7085,WL,A,4.0
4,7.0309998989105225,learn,52969.00010108948,Mon Mar 17 2025 15:40:28 GMT-0500 (Central Daylight Time),529277.3000000119,A,meado,O,o,116,1,1299.300000011921,527978.0,7085,WL,A,4.0
4,7.2809998989105225,learn,52719.00010108948,Mon Mar 17 2025 15:40:28 GMT-0500 (Central Daylight Time),529527.400000006,A,meadow,O,w,231,1,1549.4000000059605,527978.0,7085,WL,A,4.0
4,8.21399998664856,learn,51786.00001335144,Mon Mar 17 2025 15:40:28 GMT-0500 (Central Daylight Time),530460.400000006,A,meadowenter,O,enter,925,1,2482.4000000059605,527978.0,7085,WL,A,4.0
4,9.397000074386597,learn,50602.9999256134,Mon Mar 17 2025 15:40:28 GMT-0500 (Central Daylight Time),531643.3000000119,A,g,O,g,1176,1,1182.6000000238419,530460.6999999881,7085,WL,A,5.0
4,9.61299991607666,learn,50387.00008392334,Mon Mar 17 2025 15:40:28 GMT-0500 (Central Daylight Time),531859.900000006,A,go,O,o,209,1,1399.2000000178814,530460.6999999881,7085,WL,A,5.0
4,9.796000003814697,learn,50203.9999961853,Mon Mar 17 2025 15:40:28 GMT-0500 (Central Daylight Time),532043.099999994,A,gol,O,l,168,1,1582.4000000059605,530460.6999999881,7085,WL,A,5.0
4,9.946000099182129,learn,50053.99990081787,Mon Mar 17 2025 15:40:28 GMT-0500 (Central Daylight Time),532193.099999994,A,gold,O,d,137,1,1732.4000000059605,530460.6999999881,7085,WL,A,5.0
4,10.079999923706055,learn,49920.000076293945,Mon Mar 17 2025 15:40:28 GMT-0500 (Central Daylight Time),532326.5,A,goldenter,O,enter,124,1,1865.800000011921,530460.6999999881,7085,WL,A,5.0
4,10.329999923706055,learn,49670.000076293945,Mon Mar 17 2025 15:40:28 GMT-0500 (Central Daylight Time),532576.5,A,k,O,k,230,1,249.69999998807907,532326.8000000119,7085,WL,A,6.0
4,10.513000011444092,learn,49486.99998855591,Mon Mar 17 2025 15:40:28 GMT-0500 (Central Daylight Time),532759.5,A,ke,O,e,172,1,432.69999998807907,532326.8000000119,7085,WL,A,6.0
4,10.680000066757202,learn,49319.9999332428,Mon Mar 17 2025 15:40:28 GMT-0500 (Central Daylight Time),532926.3000000119,A,key,O,y,157,1,599.5,532326.8000000119,7085,WL,A,6.0
4,11.180000066757202,learn,48819.9999332428,Mon Mar 17 2025 15:40:28 GMT-0500 (Central Daylight Time),533427.099999994,A,keyenter,O,enter,494,1,1100.2999999821186,532326.8000000119,7085,WL,A,6.0
4,13.678999900817871,learn,46321.00009918213,Mon Mar 17 2025 15:40:28 GMT-0500 (Central Daylight Time),535925.1999999881,A,b,O,b,2489,1,2497.699999988079,533427.5,7085,WL,A,7.0
4,13.861999988555908,learn,46138.00001144409,Mon Mar 17 2025 15:40:28 GMT-0500 (Central Daylight Time),536108.599999994,A,bu,O,u,166,1,2681.0999999940395,533427.5,7085,WL,A,7.0
4,14.045000076293945,learn,45954.999923706055,Mon Mar 17 2025 15:40:28 GMT-0500 (Central Daylight Time),536291.900000006,A,but,O,t,176,1,2864.4000000059605,533427.5,7085,WL,A,7.0
4,14.210999965667725,learn,45789.000034332275,Mon Mar 17 2025 15:40:28 GMT-0500 (Central Daylight Time),536458.099999994,A,butt,O,t,160,1,3030.5999999940395,533427.5,7085,WL,A,7.0
4,14.32800006866455,learn,45671.99993133545,Mon Mar 17 2025 15:40:28 GMT-0500 (Central Daylight Time),536575.0,A,butto,O,o,98,1,3147.5,533427.5,7085,WL,A,7.0
4,14.528000116348267,learn,45471.99988365173,Mon Mar 17 2025 15:40:28 GMT-0500 (Central Daylight Time),536775.0,A,button,O,n,189,1,3347.5,533427.5,7085,WL,A,7.0
4,14.744999885559082,learn,45255.00011444092,Mon Mar 17 2025 15:40:28 GMT-0500 (Central Daylight Time),536991.5,A,buttonenter,O,enter,205,1,3564.0,533427.5,7085,WL,A,7.0
4,20.009000062942505,learn,39990.999937057495,Mon Mar 17 2025 15:40:28 GMT-0500 (Central Daylight Time),542256.6999999881,A,r,O,r,5244,1,5264.899999976158,536991.8000000119,7085,WL,A,8.0
4,20.174999952316284,learn,39825.000047683716,Mon Mar 17 2025 15:40:28 GMT-0500 (Central Daylight Time),542423.3000000119,A,ru,O,u,147,1,5431.5,536991.8000000119,7085,WL,A,8.0
4,20.375,learn,39625.0,Mon Mar 17 2025 15:40:28 GMT-0500 (Central Daylight Time),542623.099999994,A,rug,O,g,189,1,5631.299999982119,536991.8000000119,7085,WL,A,8.0
4,20.625,learn,39375.0,Mon Mar 17 2025 15:40:28 GMT-0500 (Central Daylight Time),542873.3000000119,A,rugenter,O,enter,237,1,5881.5,536991.8000000119,7085,WL,A,8.0
4,34.72099995613098,learn,25279.00004386902,Mon Mar 17 2025 15:40:28 GMT-0500 (Central Daylight Time),556968.599999994,A,l,O,l,14084,1,14095.0,542873.599999994,7085,WL,A,9.0
4,34.9539999961853,learn,25046.000003814697,Mon Mar 17 2025 15:40:28 GMT-0500 (Central Daylight Time),557201.5,A,lo,O,o,227,1,14327.90000000596,542873.599999994,7085,WL,A,9.0
4,35.187000036239624,learn,24812.999963760376,Mon Mar 17 2025 15:40:28 GMT-0500 (Central Daylight Time),557435.3000000119,A,log,O,g,219,1,14561.700000017881,542873.599999994,7085,WL,A,9.0
4,35.4210000038147,learn,24578.999996185303,Mon Mar 17 2025 15:40:28 GMT-0500 (Central Daylight Time),557668.599999994,A,logenter,O,enter,225,1,14795.0,542873.599999994,7085,WL,A,9.0
4,60.01300001144409,learn,-13.000011444091797,Mon Mar 17 2025 15:40:28 GMT-0500 (Central Daylight Time),582260.599999994,A,None,O,None,24587,1,24591.59999999404,557669.0,7085,WL,A,10.0
5,0.7999999523162842,learn,60000.0,Mon Mar 17 2025 15:40:28 GMT-0500 (Central Daylight Time),651722.5,A,s,O,s,786,1,799.6999999880791,650922.8000000119,7085,WL,A,1.0
5,0.9839999675750732,learn,60000.0,Mon Mar 17 2025 15:40:28 GMT-0500 (Central Daylight Time),651905.6999999881,A,sa,O,a,177,1,982.8999999761581,650922.8000000119,7085,WL,A,1.0
5,1.1329998970031738,learn,60000.0,Mon Mar 17 2025 15:40:28 GMT-0500 (Central Daylight Time),652055.5,A,sal,O,l,138,1,1132.699999988079,650922.8000000119,7085,WL,A,1.0
5,1.3499999046325684,learn,60000.0,Mon Mar 17 2025 15:40:28 GMT-0500 (Central Daylight Time),652272.3000000119,A,salt,O,t,197,1,1349.5,650922.8000000119,7085,WL,A,1.0
5,1.6999998092651367,learn,60000.0,Mon Mar 17 2025 15:40:28 GMT-0500 (Central Daylight Time),652622.1999999881,A,saltenter,O,enter,340,1,1699.3999999761581,650922.8000000119,7085,WL,A,1.0
5,2.4659998416900635,learn,60000.0,Mon Mar 17 2025 15:40:28 GMT-0500 (Central Daylight Time),653388.5,A,f,O,f,759,1,766.0999999940395,652622.400000006,7085,WL,A,2.0
5,2.6659998893737793,learn,60000.0,Mon Mar 17 2025 15:40:28 GMT-0500 (Central Daylight Time),653588.400000006,A,fi,O,i,193,1,966.0,652622.400000006,7085,WL,A,2.0
5,2.8989999294281006,learn,60000.0,Mon Mar 17 2025 15:40:28 GMT-0500 (Central Daylight Time),653821.599999994,A,fin,O,n,223,1,1199.199999988079,652622.400000006,7085,WL,A,2.0
5,3.065999984741211,learn,60000.0,Mon Mar 17 2025 15:40:28 GMT-0500 (Central Daylight Time),653988.5,A,fing,O,g,151,1,1366.0999999940395,652622.400000006,7085,WL,A,2.0
5,3.2829999923706055,learn,60000.0,Mon Mar 17 2025 15:40:28 GMT-0500 (Central Daylight Time),654204.8000000119,A,finge,O,e,208,1,1582.4000000059605,652622.400000006,7085,WL,A,2.0
5,3.3999998569488525,learn,60000.0,Mon Mar 17 2025 15:40:28 GMT-0500 (Central Daylight Time),654321.6999999881,A,finger,O,r,96,1,1699.2999999821186,652622.400000006,7085,WL,A,2.0
5,3.6989998817443848,learn,60000.0,Mon Mar 17 2025 15:40:28 GMT-0500 (Central Daylight Time),654621.400000006,A,fingerenter,O,enter,291,1,1999.0,652622.400000006,7085,WL,A,2.0
5,4.232999801635742,learn,60000.0,Mon Mar 17 2025 15:40:28 GMT-0500 (Central Daylight Time),655155.6999999881,A,b,O,b,526,1,534.0,654621.6999999881,7085,WL,A,3.0
5,4.398999929428101,learn,60000.0,Mon Mar 17 2025 15:40:28 GMT-0500 (Central Daylight Time),655321.400000006,A,bu,O,u,144,1,699.7000000178814,654621.6999999881,7085,WL,A,3.0
5,4.615999937057495,learn,60000.0,Mon Mar 17 2025 15:40:28 GMT-0500 (Central Daylight Time),655537.599999994,A,but,O,t,210,1,915.9000000059605,654621.6999999881,7085,WL,A,3.0
5,4.798999786376953,learn,60000.0,Mon Mar 17 2025 15:40:28 GMT-0500 (Central Daylight Time),655721.3000000119,A,butt,O,t,171,1,1099.6000000238419,654621.6999999881,7085,WL,A,3.0
5,4.948999881744385,learn,60000.0,Mon Mar 17 2025 15:40:28 GMT-0500 (Central Daylight Time),655871.1999999881,A,butto,O,o,132,1,1249.5,654621.6999999881,7085,WL,A,3.0
5,5.115000009536743,learn,60000.0,Mon Mar 17 2025 15:40:28 GMT-0500 (Central Daylight Time),656037.599999994,A,button,O,n,149,1,1415.9000000059605,654621.6999999881,7085,WL,A,3.0
5,5.31499981880188,learn,60000.0,Mon Mar 17 2025 15:40:28 GMT-0500 (Central Daylight Time),656237.599999994,A,buttonenter,O,enter,184,1,1615.9000000059605,654621.6999999881,7085,WL,A,3.0
5,5.531999826431274,learn,60000.0,Mon Mar 17 2025 15:40:28 GMT-0500 (Central Daylight Time),656454.3000000119,A,t,O,t,198,1,216.30000001192093,656238.0,7085,WL,A,4.0
5,5.698999881744385,learn,60000.0,Mon Mar 17 2025 15:40:28 GMT-0500 (Central Daylight Time),656621.0,A,tr,O,r,150,1,383.0,656238.0,7085,WL,A,4.0
5,5.781999826431274,learn,60000.0,Mon Mar 17 2025 15:40:28 GMT-0500 (Central Daylight Time),656704.3000000119,A,tra,O,a,63,1,466.30000001192093,656238.0,7085,WL,A,4.0
5,5.931999921798706,learn,60000.0,Mon Mar 17 2025 15:40:28 GMT-0500 (Central Daylight Time),656854.3000000119,A,trai,O,i,132,1,616.3000000119209,656238.0,7085,WL,A,4.0
5,6.082000017166138,learn,60000.0,Mon Mar 17 2025 15:40:28 GMT-0500 (Central Daylight Time),657004.099999994,A,train,O,n,142,1,766.0999999940395,656238.0,7085,WL,A,4.0
5,6.264999866485596,learn,60000.0,Mon Mar 17 2025 15:40:28 GMT-0500 (Central Daylight Time),657187.400000006,A,trainenter,O,enter,176,1,949.4000000059605,656238.0,7085,WL,A,4.0
5,6.414999961853027,learn,60000.0,Mon Mar 17 2025 15:40:28 GMT-0500 (Central Daylight Time),657337.3000000119,A,f,O,f,130,1,149.5,657187.8000000119,7085,WL,A,5.0
5,6.797999858856201,learn,60000.0,Mon Mar 17 2025 15:40:28 GMT-0500 (Central Daylight Time),657720.3000000119,A,fo,O,o,372,1,532.5,657187.8000000119,7085,WL,A,5.0
5,7.181999921798706,learn,60000.0,Mon Mar 17 2025 15:40:28 GMT-0500 (Central Daylight Time),658103.6999999881,A,f,O,backspace,364,1,915.8999999761581,657187.8000000119,7085,WL,A,5.0
5,7.414999961853027,learn,60000.0,Mon Mar 17 2025 15:40:28 GMT-0500 (Central Daylight Time),658336.900000006,A,fl,O,l,212,1,1149.0999999940395,657187.8000000119,7085,WL,A,5.0
5,7.597999811172485,learn,60000.0,Mon Mar 17 2025 15:40:28 GMT-0500 (Central Daylight Time),658520.3000000119,A,flo,O,o,171,1,1332.5,657187.8000000119,7085,WL,A,5.0
5,7.648000001907349,learn,60000.0,Mon Mar 17 2025 15:40:28 GMT-0500 (Central Daylight Time),658570.1999999881,A,flow,O,w,36,1,1382.3999999761581,657187.8000000119,7085,WL,A,5.0
5,7.730999946594238,learn,60000.0,Mon Mar 17 2025 15:40:28 GMT-0500 (Central Daylight Time),658653.5,A,flowe,O,e,65,1,1465.699999988079,657187.8000000119,7085,WL,A,5.0
5,8.38099980354309,learn,60000.0,Mon Mar 17 2025 15:40:28 GMT-0500 (Central Daylight Time),659303.5,A,flower,O,r,631,1,2115.699999988079,657187.8000000119,7085,WL,A,5.0
5,9.047999858856201,learn,60000.0,Mon Mar 17 2025 15:40:28 GMT-0500 (Central Daylight Time),659969.6999999881,A,flowerenter,O,enter,653,1,2781.899999976158,657187.8000000119,7085,WL,A,5.0
5,19.22699999809265,learn,60000.0,Mon Mar 17 2025 15:40:28 GMT-0500 (Central Daylight Time),670149.900000006,A,l,O,l,10171,1,10179.90000000596,659970.0,7085,WL,A,6.0
5,19.459999799728394,learn,60000.0,Mon Mar 17 2025 15:40:28 GMT-0500 (Central Daylight Time),670382.900000006,A,lo,O,o,223,1,10412.90000000596,659970.0,7085,WL,A,6.0
5,19.676999807357788,learn,60000.0,Mon Mar 17 2025 15:40:28 GMT-0500 (Central Daylight Time),670599.900000006,A,log,O,g,205,1,10629.90000000596,659970.0,7085,WL,A,6.0
5,19.959999799728394,learn,60000.0,Mon Mar 17 2025 15:40:28 GMT-0500 (Central Daylight Time),670883.099999994,A,logenter,O,enter,276,1,10913.09999999404,659970.0,7085,WL,A,6.0
5,20.359999895095825,learn,60000.0,Mon Mar 17 2025 15:40:28 GMT-0500 (Central Daylight Time),671282.6999999881,A,c,O,c,393,1,399.2999999821186,670883.400000006,7085,WL,A,7.0
5,20.442999839782715,learn,60000.0,Mon Mar 17 2025 15:40:28 GMT-0500 (Central Daylight Time),671366.3000000119,A,ch,O,h,65,1,482.90000000596046,670883.400000006,7085,WL,A,7.0
5,20.57799983024597,learn,60000.0,Mon Mar 17 2025 15:40:28 GMT-0500 (Central Daylight Time),671501.400000006,A,chi,O,i,118,1,618.0,670883.400000006,7085,WL,A,7.0
5,20.759999990463257,learn,60000.0,Mon Mar 17 2025 15:40:28 GMT-0500 (Central Daylight Time),671682.6999999881,A,chim,O,m,167,1,799.2999999821186,670883.400000006,7085,WL,A,7.0
5,20.908999919891357,learn,60000.0,Mon Mar 17 2025 15:40:28 GMT-0500 (Central Daylight Time),671832.599999994,A,chimn,O,n,137,1,949.1999999880791,670883.400000006,7085,WL,A,7.0
5,21.05900001525879,learn,60000.0,Mon Mar 17 2025 15:40:28 GMT-0500 (Central Daylight Time),671982.6999999881,A,chimne,O,e,140,1,1099.2999999821186,670883.400000006,7085,WL,A,7.0
5,21.210999965667725,learn,60000.0,Mon Mar 17 2025 15:40:28 GMT-0500 (Central Daylight Time),672133.6999999881,A,chimney,O,y,134,1,1250.2999999821186,670883.400000006,7085,WL,A,7.0
5,21.941999912261963,learn,60000.0,Mon Mar 17 2025 15:40:28 GMT-0500 (Central Daylight Time),672865.6999999881,A,chimneyenter,O,enter,726,1,1982.2999999821186,670883.400000006,7085,WL,A,7.0
5,25.890999794006348,learn,60000.0,Mon Mar 17 2025 15:40:28 GMT-0500 (Central Daylight Time),676814.400000006,A,b,O,b,3931,1,3948.4000000059605,672866.0,7085,WL,A,8.0
5,26.024999856948853,learn,60000.0,Mon Mar 17 2025 15:40:28 GMT-0500 (Central Daylight Time),676948.0,A,bu,O,u,118,1,4082.0,672866.0,7085,WL,A,8.0
5,26.174999952316284,learn,60000.0,Mon Mar 17 2025 15:40:28 GMT-0500 (Central Daylight Time),677097.8000000119,A,but,O,t,129,1,4231.800000011921,672866.0,7085,WL,A,8.0
5,26.340999841690063,learn,60000.0,Mon Mar 17 2025 15:40:28 GMT-0500 (Central Daylight Time),677264.5,A,butt,O,t,155,1,4398.5,672866.0,7085,WL,A,8.0
5,26.490999937057495,learn,60000.0,Mon Mar 17 2025 15:40:28 GMT-0500 (Central Daylight Time),677414.1999999881,A,butto,O,o,140,1,4548.199999988079,672866.0,7085,WL,A,8.0
5,26.740999937057495,learn,60000.0,Mon Mar 17 2025 15:40:28 GMT-0500 (Central Daylight Time),677664.400000006,A,button,O,n,230,1,4798.4000000059605,672866.0,7085,WL,A,8.0
5,27.173999786376953,learn,60000.0,Mon Mar 17 2025 15:40:28 GMT-0500 (Central Daylight Time),678097.400000006,A,buttonenter,O,enter,412,1,5231.4000000059605,672866.0,7085,WL,A,8.0
5,32.805999994277954,learn,60000.0,Mon Mar 17 2025 15:40:28 GMT-0500 (Central Daylight Time),683729.0,A,g,O,g,5619,1,5631.300000011921,678097.6999999881,7085,WL,A,9.0
5,32.98899984359741,learn,60000.0,Mon Mar 17 2025 15:40:28 GMT-0500 (Central Daylight Time),683912.3000000119,A,go,O,o,171,1,5814.600000023842,678097.6999999881,7085,WL,A,9.0
5,33.17199993133545,learn,60000.0,Mon Mar 17 2025 15:40:28 GMT-0500 (Central Daylight Time),684095.5,A,gol,O,l,164,1,5997.800000011921,678097.6999999881,7085,WL,A,9.0
5,33.33899998664856,learn,60000.0,Mon Mar 17 2025 15:40:28 GMT-0500 (Central Daylight Time),684262.3000000119,A,gold,O,d,149,1,6164.600000023842,678097.6999999881,7085,WL,A,9.0
5,33.5719997882843,learn,60000.0,Mon Mar 17 2025 15:40:28 GMT-0500 (Central Daylight Time),684495.5,A,goldenter,O,enter,222,1,6397.800000011921,678097.6999999881,7085,WL,A,9.0
5,39.169999837875366,learn,60000.0,Mon Mar 17 2025 15:40:28 GMT-0500 (Central Daylight Time),690093.599999994,A,m,O,m,5589,1,5597.799999982119,684495.8000000119,7085,WL,A,10.0
5,40.13699984550476,learn,60000.0,Mon Mar 17 2025 15:40:28 GMT-0500 (Central Daylight Time),691060.099999994,A,me,O,e,950,1,6564.299999982119,684495.8000000119,7085,WL,A,10.0
5,40.30299997329712,learn,60000.0,Mon Mar 17 2025 15:40:28 GMT-0500 (Central Daylight Time),691226.5,A,mea,O,a,160,1,6730.699999988079,684495.8000000119,7085,WL,A,10.0
5,40.48699998855591,learn,60000.0,Mon Mar 17 2025 15:40:28 GMT-0500 (Central Daylight Time),691409.8000000119,A,mead,O,d,178,1,6914.0,684495.8000000119,7085,WL,A,10.0
5,40.96999979019165,learn,60000.0,Mon Mar 17 2025 15:40:28 GMT-0500 (Central Daylight Time),691893.099999994,A,meado,O,o,467,1,7397.299999982119,684495.8000000119,7085,WL,A,10.0
5,42.30299997329712,learn,60000.0,Mon Mar 17 2025 15:40:28 GMT-0500 (Central Daylight Time),693226.099999994,A,meadow,O,w,1319,1,8730.299999982119,684495.8000000119,7085,WL,A,10.0
5,43.1029999256134,learn,60000.0,Mon Mar 17 2025 15:40:28 GMT-0500 (Central Daylight Time),694025.8000000119,A,meadowenter,O,enter,779,1,9530.0,684495.8000000119,7085,WL,A,10.0
5,45.91799998283386,learn,60000.0,Mon Mar 17 2025 15:40:28 GMT-0500 (Central Daylight Time),696841.599999994,A,t,O,t,2803,1,2815.5,694026.099999994,7085,WL,A,11.0
5,46.10199999809265,learn,60000.0,Mon Mar 17 2025 15:40:28 GMT-0500 (Central Daylight Time),697024.900000006,A,tr,O,r,162,1,2998.800000011921,694026.099999994,7085,WL,A,11.0
5,46.78499984741211,learn,60000.0,Mon Mar 17 2025 15:40:28 GMT-0500 (Central Daylight Time),697708.0,A,tra,O,a,676,1,3681.9000000059605,694026.099999994,7085,WL,A,11.0
5,46.984999895095825,learn,60000.0,Mon Mar 17 2025 15:40:28 GMT-0500 (Central Daylight Time),697908.0,A,trai,O,i,192,1,3881.9000000059605,694026.099999994,7085,WL,A,11.0
5,47.20099997520447,learn,60000.0,Mon Mar 17 2025 15:40:28 GMT-0500 (Central Daylight Time),698124.6999999881,A,train,O,n,208,1,4098.5999999940395,694026.099999994,7085,WL,A,11.0
5,47.550999879837036,learn,60000.0,Mon Mar 17 2025 15:40:28 GMT-0500 (Central Daylight Time),698474.400000006,A,trainenter,O,enter,335,1,4448.300000011921,694026.099999994,7085,WL,A,11.0
5,107.56499981880188,learn,60000.0,Mon Mar 17 2025 15:40:28 GMT-0500 (Central Daylight Time),758489.0,A,None,O,None,60010,1,60014.30000001192,698474.6999999881,7085,WL,A,12.0
6,0.6330001354217529,distr,59366.99986457825,Mon Mar 17 2025 15:40:28 GMT-0500 (Central Daylight Time),831266.3000000119,B,c,O,c,621,1,633.2000000178814,830633.099999994,7085,WL,A,1.0
6,1.3329999446868896,distr,58667.00005531311,Mon Mar 17 2025 15:40:28 GMT-0500 (Central Daylight Time),831966.0,B,ch,O,h,689,1,1332.9000000059605,830633.099999994,7085,WL,A,1.0
6,1.4820001125335693,distr,58517.99988746643,Mon Mar 17 2025 15:40:28 GMT-0500 (Central Daylight Time),832115.599999994,B,cha,O,a,134,1,1482.5,830633.099999994,7085,WL,A,1.0
6,1.633000135421753,distr,58366.99986457825,Mon Mar 17 2025 15:40:28 GMT-0500 (Central Daylight Time),832265.900000006,B,chai,O,i,137,1,1632.800000011921,830633.099999994,7085,WL,A,1.0
6,1.8489999771118164,distr,58151.00002288818,Mon Mar 17 2025 15:40:28 GMT-0500 (Central Daylight Time),832482.3000000119,B,chair,O,r,211,1,1849.2000000178814,830633.099999994,7085,WL,A,1.0
6,2.5989999771118164,distr,57401.00002288818,Mon Mar 17 2025 15:40:28 GMT-0500 (Central Daylight Time),833232.400000006,B,chairenter,O,enter,738,1,2599.300000011921,830633.099999994,7085,WL,A,1.0
6,5.4649999141693115,distr,54535.00008583069,Mon Mar 17 2025 15:40:28 GMT-0500 (Central Daylight Time),836098.0,B,d,O,d,2860,1,2865.300000011921,833232.6999999881,7085,WL,A,2.0
6,5.781000137329102,distr,54218.9998626709,Mon Mar 17 2025 15:40:28 GMT-0500 (Central Daylight Time),836414.8000000119,B,da,O,a,298,1,3182.100000023842,833232.6999999881,7085,WL,A,2.0
6,6.081000089645386,distr,53918.999910354614,Mon Mar 17 2025 15:40:28 GMT-0500 (Central Daylight Time),836714.5,B,daw,O,w,285,1,3481.800000011921,833232.6999999881,7085,WL,A,2.0
6,6.331000089645386,distr,53668.999910354614,Mon Mar 17 2025 15:40:28 GMT-0500 (Central Daylight Time),836964.599999994,B,dawn,O,n,242,1,3731.9000000059605,833232.6999999881,7085,WL,A,2.0
6,6.79800009727478,distr,53201.99990272522,Mon Mar 17 2025 15:40:28 GMT-0500 (Central Daylight Time),837431.0,B,dawnenter,O,enter,456,1,4198.300000011921,833232.6999999881,7085,WL,A,2.0
6,7.46399998664856,distr,52536.00001335144,Mon Mar 17 2025 15:40:28 GMT-0500 (Central Daylight Time),838097.400000006,B,b,O,b,646,1,666.0,837431.400000006,7085,WL,A,3.0
6,7.814000129699707,distr,52185.99987030029,Mon Mar 17 2025 15:40:28 GMT-0500 (Central Daylight Time),838447.400000006,B,bo,O,o,331,1,1016.0,837431.400000006,7085,WL,A,3.0
6,8.180999994277954,distr,51819.000005722046,Mon Mar 17 2025 15:40:28 GMT-0500 (Central Daylight Time),838813.900000006,B,bow,O,w,357,1,1382.5,837431.400000006,7085,WL,A,3.0
6,8.480000019073486,distr,51519.999980926514,Mon Mar 17 2025 15:40:28 GMT-0500 (Central Daylight Time),839113.8000000119,B,bowl,O,l,279,1,1682.4000000059605,837431.400000006,7085,WL,A,3.0
6,8.847000122070312,distr,51152.99987792969,Mon Mar 17 2025 15:40:28 GMT-0500 (Central Daylight Time),839480.400000006,B,bowlenter,O,enter,355,1,2049.0,837431.400000006,7085,WL,A,3.0
6,9.27999997138977,distr,50720.00002861023,Mon Mar 17 2025 15:40:28 GMT-0500 (Central Daylight Time),839913.599999994,B,s,O,s,411,1,432.90000000596046,839480.6999999881,7085,WL,A,4.0
6,9.480000019073486,distr,50519.999980926514,Mon Mar 17 2025 15:40:28 GMT-0500 (Central Daylight Time),840113.400000006,B,sh,O,h,187,1,632.7000000178814,839480.6999999881,7085,WL,A,4.0
6,9.746000051498413,distr,50253.99994850159,Mon Mar 17 2025 15:40:28 GMT-0500 (Central Daylight Time),840380.0,B,she,O,e,259,1,899.3000000119209,839480.6999999881,7085,WL,A,4.0
6,9.913000106811523,distr,50086.99989318848,Mon Mar 17 2025 15:40:28 GMT-0500 (Central Daylight Time),840546.5,B,shee,O,e,161,1,1065.800000011921,839480.6999999881,7085,WL,A,4.0
6,10.095999956130981,distr,49904.00004386902,Mon Mar 17 2025 15:40:28 GMT-0500 (Central Daylight Time),840729.6999999881,B,sheep,O,p,178,1,1249.0,839480.6999999881,7085,WL,A,4.0
6,10.61299991607666,distr,49387.00008392334,Mon Mar 17 2025 15:40:28 GMT-0500 (Central Daylight Time),841246.400000006,B,sheepenter,O,enter,507,1,1765.7000000178814,839480.6999999881,7085,WL,A,4.0
6,19.7260000705719,distr,40273.9999294281,Mon Mar 17 2025 15:40:28 GMT-0500 (Central Daylight Time),850360.3000000119,B,b,O,b,9094,1,9113.600000023842,841246.6999999881,7085,WL,A,5.0
6,19.91000008583069,distr,40089.99991416931,Mon Mar 17 2025 15:40:28 GMT-0500 (Central Daylight Time),850543.5,B,bu,O,u,164,1,9296.800000011921,841246.6999999881,7085,WL,A,5.0
6,20.272000074386597,distr,39727.9999256134,Mon Mar 17 2025 15:40:28 GMT-0500 (Central Daylight Time),850905.599999994,B,but,O,t,357,1,9658.90000000596,841246.6999999881,7085,WL,A,5.0
6,20.342999935150146,distr,39657.00006484985,Mon Mar 17 2025 15:40:28 GMT-0500 (Central Daylight Time),850976.400000006,B,butt,O,t,58,1,9729.700000017881,841246.6999999881,7085,WL,A,5.0
6,20.493000030517578,distr,39506.99996948242,Mon Mar 17 2025 15:40:28 GMT-0500 (Central Daylight Time),851126.8000000119,B,butto,O,o,131,1,9880.100000023842,841246.6999999881,7085,WL,A,5.0
6,20.70900011062622,distr,39290.99988937378,Mon Mar 17 2025 15:40:28 GMT-0500 (Central Daylight Time),851343.3000000119,B,button,O,n,206,1,10096.600000023842,841246.6999999881,7085,WL,A,5.0
6,21.2260000705719,distr,38773.9999294281,Mon Mar 17 2025 15:40:28 GMT-0500 (Central Daylight Time),851859.8000000119,B,buttonenter,O,enter,501,1,10613.100000023842,841246.6999999881,7085,WL,A,5.0
6,42.35199999809265,distr,17648.00000190735,Mon Mar 17 2025 15:40:28 GMT-0500 (Central Daylight Time),872986.3000000119,B,p,O,p,21121,1,21126.20000001788,851860.099999994,7085,WL,A,6.0
6,42.5699999332428,distr,17430.000066757202,Mon Mar 17 2025 15:40:28 GMT-0500 (Central Daylight Time),873203.8000000119,B,pe,O,e,210,1,21343.70000001788,851860.099999994,7085,WL,A,6.0
6,42.71900010108948,distr,17280.999898910522,Mon Mar 17 2025 15:40:28 GMT-0500 (Central Daylight Time),873353.0,B,pea,O,a,137,1,21492.90000000596,851860.099999994,7085,WL,A,6.0
6,42.90300011634827,distr,17096.999883651733,Mon Mar 17 2025 15:40:28 GMT-0500 (Central Daylight Time),873536.400000006,B,peac,O,c,171,1,21676.30000001192,851860.099999994,7085,WL,A,6.0
6,43.13599991798401,distr,16864.00008201599,Mon Mar 17 2025 15:40:28 GMT-0500 (Central Daylight Time),873769.599999994,B,peach,O,h,213,1,21909.5,851860.099999994,7085,WL,A,6.0
6,43.66700005531311,distr,16332.99994468689,Mon Mar 17 2025 15:40:28 GMT-0500 (Central Daylight Time),874300.900000006,B,peachenter,O,enter,388,1,22440.80000001192,851860.099999994,7085,WL,A,6.0
6,60.013999938964844,distr,-13.99993896484375,Mon Mar 17 2025 15:40:28 GMT-0500 (Central Daylight Time),890647.8000000119,B,None,O,None,16339,1,16346.600000023842,874301.1999999881,7085,WL,A,7.0
7,31.33999991416931,immed,28660.00008583069,Mon Mar 17 2025 15:40:28 GMT-0500 (Central Daylight Time),924520.400000006,A,t,O,t,31330,1,31340.0,893180.400000006,7085,WL,A,1.0
7,31.52300000190735,immed,28476.99999809265,Mon Mar 17 2025 15:40:28 GMT-0500 (Central Daylight Time),924703.599999994,A,tr,O,r,171,1,31523.19999998808,893180.400000006,7085,WL,A,1.0
7,31.640000104904175,immed,28359.999895095825,Mon Mar 17 2025 15:40:28 GMT-0500 (Central Daylight Time),924820.400000006,A,tra,O,a,101,1,31640.0,893180.400000006,7085,WL,A,1.0
7,32.62299990653992,immed,27377.000093460083,Mon Mar 17 2025 15:40:28 GMT-0500 (Central Daylight Time),925803.599999994,A,trai,O,i,968,1,32623.19999998808,893180.400000006,7085,WL,A,1.0
7,32.82299995422363,immed,27177.000045776367,Mon Mar 17 2025 15:40:28 GMT-0500 (Central Daylight Time),926003.1999999881,A,train,O,n,193,1,32822.79999998212,893180.400000006,7085,WL,A,1.0
7,33.388999938964844,immed,26611.000061035156,Mon Mar 17 2025 15:40:28 GMT-0500 (Central Daylight Time),926569.599999994,A,trainenter,O,enter,553,1,33389.19999998808,893180.400000006,7085,WL,A,1.0
7,40.337000131607056,immed,19662.999868392944,Mon Mar 17 2025 15:40:28 GMT-0500 (Central Daylight Time),933517.5,A,b,O,b,6939,1,6947.5,926570.0,7085,WL,A,2.0
7,40.53699994087219,immed,19463.000059127808,Mon Mar 17 2025 15:40:28 GMT-0500 (Central Daylight Time),933717.599999994,A,bo,O,o,183,1,7147.5999999940395,926570.0,7085,WL,A,2.0
7,40.7039999961853,immed,19296.000003814697,Mon Mar 17 2025 15:40:28 GMT-0500 (Central Daylight Time),933884.0,A,bow,O,w,151,1,7314.0,926570.0,7085,WL,A,2.0
7,40.80400013923645,immed,19195.99986076355,Mon Mar 17 2025 15:40:28 GMT-0500 (Central Daylight Time),933984.099999994,A,bowe,O,e,89,1,7414.0999999940395,926570.0,7085,WL,A,2.0
7,41.437000036239624,immed,18562.999963760376,Mon Mar 17 2025 15:40:28 GMT-0500 (Central Daylight Time),934617.3000000119,A,bow,O,backspace,612,1,8047.300000011921,926570.0,7085,WL,A,2.0
7,41.97000002861023,immed,18029.99997138977,Mon Mar 17 2025 15:40:28 GMT-0500 (Central Daylight Time),935150.400000006,A,bowl,O,l,524,1,8580.40000000596,926570.0,7085,WL,A,2.0
7,43.03600001335144,immed,16963.99998664856,Mon Mar 17 2025 15:40:28 GMT-0500 (Central Daylight Time),936216.5,A,bowlenter,O,enter,1046,1,9646.5,926570.0,7085,WL,A,2.0
7,43.918999910354614,immed,16081.000089645386,Mon Mar 17 2025 15:40:28 GMT-0500 (Central Daylight Time),937099.8000000119,A,m,O,m,869,1,883.0,936216.8000000119,7085,WL,A,3.0
7,44.03600001335144,immed,15963.99998664856,Mon Mar 17 2025 15:40:28 GMT-0500 (Central Daylight Time),937216.5,A,me,O,e,96,1,999.6999999880791,936216.8000000119,7085,WL,A,3.0
7,44.085999965667725,immed,15914.000034332275,Mon Mar 17 2025 15:40:28 GMT-0500 (Central Daylight Time),937266.099999994,A,mea,O,a,44,1,1049.2999999821186,936216.8000000119,7085,WL,A,3.0
7,44.253000020980835,immed,15746.999979019165,Mon Mar 17 2025 15:40:28 GMT-0500 (Central Daylight Time),937432.900000006,A,mead,O,d,146,1,1216.0999999940395,936216.8000000119,7085,WL,A,3.0
7,44.36899995803833,immed,15631.00004196167,Mon Mar 17 2025 15:40:28 GMT-0500 (Central Daylight Time),937549.599999994,A,meado,O,o,100,1,1332.7999999821186,936216.8000000119,7085,WL,A,3.0
7,44.86899995803833,immed,15131.00004196167,Mon Mar 17 2025 15:40:28 GMT-0500 (Central Daylight Time),938049.5,A,meadow,O,w,487,1,1832.699999988079,936216.8000000119,7085,WL,A,3.0
7,45.46900010108948,immed,14530.999898910522,Mon Mar 17 2025 15:40:28 GMT-0500 (Central Daylight Time),938649.3000000119,A,meadowenter,O,enter,588,1,2432.5,936216.8000000119,7085,WL,A,3.0
7,46.30200004577637,immed,13697.999954223633,Mon Mar 17 2025 15:40:28 GMT-0500 (Central Daylight Time),939482.1999999881,A,l,O,l,828,1,832.5999999940395,938649.599999994,7085,WL,A,4.0
7,46.485000133514404,immed,13514.999866485596,Mon Mar 17 2025 15:40:28 GMT-0500 (Central Daylight Time),939665.8000000119,A,lo,O,o,163,1,1016.2000000178814,938649.599999994,7085,WL,A,4.0
7,46.63499999046326,immed,13365.000009536743,Mon Mar 17 2025 15:40:28 GMT-0500 (Central Daylight Time),939815.5,A,log,O,g,139,1,1165.9000000059605,938649.599999994,7085,WL,A,4.0
7,46.83500003814697,immed,13164.999961853027,Mon Mar 17 2025 15:40:28 GMT-0500 (Central Daylight Time),940015.599999994,A,logenter,O,enter,190,1,1366.0,938649.599999994,7085,WL,A,4.0
7,47.01800012588501,immed,12981.99987411499,Mon Mar 17 2025 15:40:28 GMT-0500 (Central Daylight Time),940198.900000006,A,c,O,c,165,1,183.0,940015.900000006,7085,WL,A,5.0
7,47.10199999809265,immed,12898.000001907349,Mon Mar 17 2025 15:40:28 GMT-0500 (Central Daylight Time),940282.099999994,A,ch,O,h,70,1,266.19999998807907,940015.900000006,7085,WL,A,5.0
7,47.235000133514404,immed,12764.999866485596,Mon Mar 17 2025 15:40:28 GMT-0500 (Central Daylight Time),940415.599999994,A,chi,O,i,123,1,399.69999998807907,940015.900000006,7085,WL,A,5.0
7,47.43499994277954,immed,12565.000057220459,Mon Mar 17 2025 15:40:28 GMT-0500 (Central Daylight Time),940615.400000006,A,chim,O,m,181,1,599.5,940015.900000006,7085,WL,A,5.0
7,47.568000078201294,immed,12431.999921798706,Mon Mar 17 2025 15:40:28 GMT-0500 (Central Daylight Time),940748.599999994,A,chime,O,e,125,1,732.6999999880791,940015.900000006,7085,WL,A,5.0
7,47.66799998283386,immed,12332.000017166138,Mon Mar 17 2025 15:40:28 GMT-0500 (Central Daylight Time),940848.599999994,A,chimen,O,n,89,1,832.6999999880791,940015.900000006,7085,WL,A,5.0
7,47.88499999046326,immed,12115.000009536743,Mon Mar 17 2025 15:40:28 GMT-0500 (Central Daylight Time),941065.1999999881,A,chimeny,O,y,204,1,1049.2999999821186,940015.900000006,7085,WL,A,5.0
7,48.15300011634827,immed,11846.999883651733,Mon Mar 17 2025 15:40:28 GMT-0500 (Central Daylight Time),941332.900000006,A,chimen,O,backspace,259,1,1317.0,940015.900000006,7085,WL,A,5.0
7,48.33500003814697,immed,11664.999961853027,Mon Mar 17 2025 15:40:28 GMT-0500 (Central Daylight Time),941515.0,A,chime,O,backspace,168,1,1499.0999999940395,940015.900000006,7085,WL,A,5.0
7,48.61800003051758,immed,11381.999969482422,Mon Mar 17 2025 15:40:28 GMT-0500 (Central Daylight Time),941798.400000006,A,chim,O,backspace,265,1,1782.5,940015.900000006,7085,WL,A,5.0
7,49.318000078201294,immed,10681.999921798706,Mon Mar 17 2025 15:40:28 GMT-0500 (Central Daylight Time),942498.099999994,A,chimn,O,n,687,1,2482.199999988079,940015.900000006,7085,WL,A,5.0
7,49.50099992752075,immed,10499.000072479248,Mon Mar 17 2025 15:40:28 GMT-0500 (Central Daylight Time),942681.400000006,A,chimne,O,e,169,1,2665.5,940015.900000006,7085,WL,A,5.0
7,49.651000022888184,immed,10348.999977111816,Mon Mar 17 2025 15:40:28 GMT-0500 (Central Daylight Time),942831.5,A,chimney,O,y,131,1,2815.5999999940395,940015.900000006,7085,WL,A,5.0
7,50.717000007629395,immed,9282.999992370605,Mon Mar 17 2025 15:40:28 GMT-0500 (Central Daylight Time),943897.8000000119,A,chimneyenter,O,enter,1060,1,3881.9000000059605,940015.900000006,7085,WL,A,5.0
7,52.617000102996826,immed,7382.999897003174,Mon Mar 17 2025 15:40:28 GMT-0500 (Central Daylight Time),945797.0,A,s,O,s,1892,1,1899.0,943898.0,7085,WL,A,6.0
7,52.782999992370605,immed,7217.0000076293945,Mon Mar 17 2025 15:40:28 GMT-0500 (Central Daylight Time),945963.599999994,A,sa,O,a,159,1,2065.5999999940395,943898.0,7085,WL,A,6.0
7,52.93300008773804,immed,7066.999912261963,Mon Mar 17 2025 15:40:28 GMT-0500 (Central Daylight Time),946113.599999994,A,sal,O,l,138,1,2215.5999999940395,943898.0,7085,WL,A,6.0
7,53.08299994468689,immed,6917.00005531311,Mon Mar 17 2025 15:40:28 GMT-0500 (Central Daylight Time),946263.599999994,A,salt,O,t,139,1,2365.5999999940395,943898.0,7085,WL,A,6.0
7,53.299999952316284,immed,6700.000047683716,Mon Mar 17 2025 15:40:28 GMT-0500 (Central Daylight Time),946480.3000000119,A,saltenter,O,enter,206,1,2582.300000011921,943898.0,7085,WL,A,6.0
7,53.450000047683716,immed,6549.999952316284,Mon Mar 17 2025 15:40:28 GMT-0500 (Central Daylight Time),946630.3000000119,A,f,O,f,133,1,149.7000000178814,946480.599999994,7085,WL,A,7.0
7,53.549999952316284,immed,6450.000047683716,Mon Mar 17 2025 15:40:28 GMT-0500 (Central Daylight Time),946730.099999994,A,fi,O,i,94,1,249.5,946480.599999994,7085,WL,A,7.0
7,53.68300008773804,immed,6316.999912261963,Mon Mar 17 2025 15:40:28 GMT-0500 (Central Daylight Time),946863.3000000119,A,fin,O,n,122,1,382.7000000178814,946480.599999994,7085,WL,A,7.0
7,53.782999992370605,immed,6217.0000076293945,Mon Mar 17 2025 15:40:28 GMT-0500 (Central Daylight Time),946963.3000000119,A,fing,O,g,85,1,482.7000000178814,946480.599999994,7085,WL,A,7.0
7,53.88300013542175,immed,6116.999864578247,Mon Mar 17 2025 15:40:28 GMT-0500 (Central Daylight Time),947063.3000000119,A,finge,O,e,90,1,582.7000000178814,946480.599999994,7085,WL,A,7.0
7,53.98300004005432,immed,6016.999959945679,Mon Mar 17 2025 15:40:28 GMT-0500 (Central Daylight Time),947163.3000000119,A,finger,O,r,86,1,682.7000000178814,946480.599999994,7085,WL,A,7.0
7,54.200000047683716,immed,5799.999952316284,Mon Mar 17 2025 15:40:28 GMT-0500 (Central Daylight Time),947379.900000006,A,fingerenter,O,enter,209,1,899.3000000119209,946480.599999994,7085,WL,A,7.0
7,60.015000104904175,immed,-15.000104904174805,Mon Mar 17 2025 15:40:28 GMT-0500 (Central Daylight Time),953195.0,A,None,O,None,5810,1,5814.699999988079,947380.3000000119,7085,WL,A,8.0
