acc_sum,block,block_c,change,condition,correct,correct_response,datetime,endtime,face,project,response,response_time,row_sel,session_number,start_end,starttime,subject_id,task,task_vers,trial
0,prac,1,,1-Back,,,Fri Feb 14 2025 14:25:18 GMT-0600 (Central Standard Time),,097_m_f_n_a.png,O,space,18192,1,1,,,7061,NNB,B,0
1,prac,1,0.0,1-Back,1,m,Fri Feb 14 2025 14:25:18 GMT-0600 (Central Standard Time),159411.0,152_y_f_n_a.png,O,m,924,2,1,1791.8999999985099,157619.1000000015,7061,NNB,B,1
2,prac,1,1.0,1-Back,1,z,Fri Feb 14 2025 14:25:18 GMT-0600 (Central Standard Time),161210.0,152_y_f_n_a.png,O,z,1015,3,1,1793.0,159417.0,7061,NNB,B,2
3,prac,1,0.0,1-Back,1,m,Fri Feb 14 2025 14:25:18 GMT-0600 (Central Standard Time),162826.6000000015,176_o_m_n_a.png,O,m,732,4,1,1610.6000000014901,161216.0,7061,NNB,B,3
3,prac,1,0.0,1-Back,0,m,Fri Feb 14 2025 14:25:18 GMT-0600 (Central Standard Time),164859.20000000298,126_m_m_n_a.png,O,z,1165,5,1,2026.6000000014901,162832.6000000015,7061,NNB,B,4
4,prac,1,1.0,1-Back,1,z,Fri Feb 14 2025 14:25:18 GMT-0600 (Central Standard Time),166676.6000000015,126_m_m_n_a.png,O,z,1040,6,1,1811.3999999985099,164865.20000000298,7061,NNB,B,5
5,prac,1,0.0,1-Back,1,m,Fri Feb 14 2025 14:25:18 GMT-0600 (Central Standard Time),168591.3999999985,086_o_f_n_a.png,O,m,1020,7,1,1908.0,166683.3999999985,7061,NNB,B,6
6,prac,1,0.0,1-Back,1,m,Fri Feb 14 2025 14:25:18 GMT-0600 (Central Standard Time),170374.20000000298,178_m_m_n_a.png,O,m,903,8,1,1776.7000000029802,168597.5,7061,NNB,B,7
7,prac,1,0.0,1-Back,1,m,Fri Feb 14 2025 14:25:18 GMT-0600 (Central Standard Time),171857.0,097_m_f_n_a.png,O,m,700,9,1,1477.0,170380.0,7061,NNB,B,8
8,prac,1,1.0,1-Back,1,z,Fri Feb 14 2025 14:25:18 GMT-0600 (Central Standard Time),173389.79999999702,097_m_f_n_a.png,O,z,755,10,1,1527.1999999955297,171862.6000000015,7061,NNB,B,9
9,prac,1,0.0,1-Back,1,m,Fri Feb 14 2025 14:25:18 GMT-0600 (Central Standard Time),174839.5,176_o_m_n_a.png,O,m,669,11,1,1443.7000000029802,173395.79999999702,7061,NNB,B,10
9,prac,1,0.0,1-Back,0,m,Fri Feb 14 2025 14:25:18 GMT-0600 (Central Standard Time),176588.8999999985,173_y_f_n_a.png,O,z,871,12,1,1742.7999999970198,174846.1000000015,7061,NNB,B,11
0,test,1,0.0,1-Back,,,Fri Feb 14 2025 14:25:18 GMT-0600 (Central Standard Time),176588.8999999985,152_y_f_n_a.png,O,space,20040,1,1,1742.7999999970198,174846.1000000015,7061,NNB,B,0
0,test,1,0.0,1-Back,0,m,Fri Feb 14 2025 14:25:18 GMT-0600 (Central Standard Time),216210.0,029_m_f_n_a.png,O,z,657,2,1,1677.7000000029802,214532.29999999702,7061,NNB,B,1
1,test,1,0.0,1-Back,1,m,Fri Feb 14 2025 14:25:18 GMT-0600 (Central Standard Time),218343.70000000298,173_y_f_n_a.png,O,m,1102,3,1,2129.5,216214.20000000298,7061,NNB,B,2
2,test,1,1.0,1-Back,1,z,Fri Feb 14 2025 14:25:18 GMT-0600 (Central Standard Time),220075.29999999702,173_y_f_n_a.png,O,z,706,4,1,1727.1999999955297,218348.1000000015,7061,NNB,B,3
3,test,1,0.0,1-Back,1,m,Fri Feb 14 2025 14:25:18 GMT-0600 (Central Standard Time),222024.79999999702,029_m_f_n_a.png,O,m,917,5,1,1945.5,220079.29999999702,7061,NNB,B,4
4,test,1,0.0,1-Back,1,m,Fri Feb 14 2025 14:25:18 GMT-0600 (Central Standard Time),223740.5,176_o_m_n_a.png,O,m,695,6,1,1711.3999999985099,222029.1000000015,7061,NNB,B,5
5,test,1,1.0,1-Back,1,z,Fri Feb 14 2025 14:25:18 GMT-0600 (Central Standard Time),225323.29999999702,176_o_m_n_a.png,O,z,563,7,1,1578.7999999970198,223744.5,7061,NNB,B,6
6,test,1,0.0,1-Back,1,m,Fri Feb 14 2025 14:25:18 GMT-0600 (Central Standard Time),227073.1000000015,126_m_m_n_a.png,O,m,716,8,1,1745.8999999985099,225327.20000000298,7061,NNB,B,7
7,test,1,0.0,1-Back,1,m,Fri Feb 14 2025 14:25:18 GMT-0600 (Central Standard Time),229039.3999999985,086_o_f_n_a.png,O,m,935,9,1,1961.7999999970198,227077.6000000015,7061,NNB,B,8
8,test,1,0.0,1-Back,1,m,Fri Feb 14 2025 14:25:18 GMT-0600 (Central Standard Time),230888.3999999985,126_m_m_n_a.png,O,m,817,10,1,1844.5,229043.8999999985,7061,NNB,B,9
9,test,1,0.0,1-Back,1,m,Fri Feb 14 2025 14:25:18 GMT-0600 (Central Standard Time),232937.8999999985,153_y_m_n_a.png,O,m,1024,11,1,2044.8999999985099,230893.0,7061,NNB,B,10
10,test,1,1.0,1-Back,1,z,Fri Feb 14 2025 14:25:18 GMT-0600 (Central Standard Time),234570.79999999702,153_y_m_n_a.png,O,z,599,12,1,1628.5999999940395,232942.20000000298,7061,NNB,B,11
11,test,1,0.0,1-Back,1,m,Fri Feb 14 2025 14:25:18 GMT-0600 (Central Standard Time),236420.29999999702,110_o_f_n_a.png,O,m,829,13,1,1845.5,234574.79999999702,7061,NNB,B,12
12,test,1,1.0,1-Back,1,z,Fri Feb 14 2025 14:25:18 GMT-0600 (Central Standard Time),238236.29999999702,110_o_f_n_a.png,O,z,789,14,1,1811.8999999985099,236424.3999999985,7061,NNB,B,13
13,test,1,0.0,1-Back,1,m,Fri Feb 14 2025 14:25:18 GMT-0600 (Central Standard Time),240152.3999999985,013_y_m_n_a.png,O,m,891,15,1,1912.3999999985099,238240.0,7061,NNB,B,14
14,test,1,0.0,1-Back,1,m,Fri Feb 14 2025 14:25:18 GMT-0600 (Central Standard Time),242169.6000000015,097_m_f_n_a.png,O,m,990,16,1,2013.0,240156.6000000015,7061,NNB,B,15
15,test,1,0.0,1-Back,1,m,Fri Feb 14 2025 14:25:18 GMT-0600 (Central Standard Time),243901.1000000015,065_o_m_n_a.png,O,m,711,17,1,1727.5,242173.6000000015,7061,NNB,B,16
16,test,1,0.0,1-Back,1,m,Fri Feb 14 2025 14:25:18 GMT-0600 (Central Standard Time),245700.29999999702,097_m_f_n_a.png,O,m,771,18,1,1795.1999999955297,243905.1000000015,7061,NNB,B,17
0,test,2,0.0,1-Back,,,Fri Feb 14 2025 14:25:18 GMT-0600 (Central Standard Time),245700.29999999702,126_m_m_n_a.png,O,space,2550,1,1,1795.1999999955297,243905.1000000015,7061,NNB,B,0
1,test,2,0.0,1-Back,1,m,Fri Feb 14 2025 14:25:18 GMT-0600 (Central Standard Time),252398.70000000298,029_m_f_n_a.png,O,m,1093,2,1,2111.60000000149,250287.1000000015,7061,NNB,B,1
2,test,2,1.0,1-Back,1,z,Fri Feb 14 2025 14:25:18 GMT-0600 (Central Standard Time),254081.3999999985,029_m_f_n_a.png,O,z,658,3,1,1678.7999999970198,252402.6000000015,7061,NNB,B,2
3,test,2,0.0,1-Back,1,m,Fri Feb 14 2025 14:25:18 GMT-0600 (Central Standard Time),255897.5,126_m_m_n_a.png,O,m,780,4,1,1812.2000000029802,254085.29999999702,7061,NNB,B,3
4,test,2,0.0,1-Back,1,m,Fri Feb 14 2025 14:25:18 GMT-0600 (Central Standard Time),257746.79999999702,153_y_m_n_a.png,O,m,831,5,1,1845.0999999940395,255901.70000000298,7061,NNB,B,4
5,test,2,0.0,1-Back,1,m,Fri Feb 14 2025 14:25:18 GMT-0600 (Central Standard Time),259596.29999999702,152_y_f_n_a.png,O,m,830,6,1,1846.2999999970198,257750.0,7061,NNB,B,5
6,test,2,1.0,1-Back,1,z,Fri Feb 14 2025 14:25:18 GMT-0600 (Central Standard Time),261245.6000000015,152_y_f_n_a.png,O,z,628,7,1,1644.8999999985099,259600.70000000298,7061,NNB,B,6
7,test,2,0.0,1-Back,1,m,Fri Feb 14 2025 14:25:18 GMT-0600 (Central Standard Time),263028.6000000015,153_y_m_n_a.png,O,m,762,8,1,1778.8999999985099,261249.70000000298,7061,NNB,B,7
8,test,2,0.0,1-Back,1,m,Fri Feb 14 2025 14:25:18 GMT-0600 (Central Standard Time),264811.1000000015,110_o_f_n_a.png,O,m,763,9,1,1778.3999999985099,263032.700000003,7061,NNB,B,8
9,test,2,0.0,1-Back,1,m,Fri Feb 14 2025 14:25:18 GMT-0600 (Central Standard Time),266743.8999999985,178_m_m_n_a.png,O,m,900,10,1,1929.0,264814.8999999985,7061,NNB,B,9
10,test,2,1.0,1-Back,1,z,Fri Feb 14 2025 14:25:18 GMT-0600 (Central Standard Time),268526.6000000015,178_m_m_n_a.png,O,z,744,11,1,1778.5,266748.1000000015,7061,NNB,B,10
11,test,2,0.0,1-Back,1,m,Fri Feb 14 2025 14:25:18 GMT-0600 (Central Standard Time),270143.0,110_o_f_n_a.png,O,m,594,12,1,1612.2000000029802,268530.799999997,7061,NNB,B,11
12,test,2,0.0,1-Back,1,m,Fri Feb 14 2025 14:25:18 GMT-0600 (Central Standard Time),271908.700000003,086_o_f_n_a.png,O,m,744,13,1,1761.7000000029802,270147.0,7061,NNB,B,12
13,test,2,0.0,1-Back,1,m,Fri Feb 14 2025 14:25:18 GMT-0600 (Central Standard Time),273575.299999997,176_o_m_n_a.png,O,m,635,14,1,1662.2999999970198,271913.0,7061,NNB,B,13
14,test,2,0.0,1-Back,1,m,Fri Feb 14 2025 14:25:18 GMT-0600 (Central Standard Time),275207.8999999985,065_o_m_n_a.png,O,m,599,15,1,1628.5,273579.3999999985,7061,NNB,B,14
15,test,2,1.0,1-Back,1,z,Fri Feb 14 2025 14:25:18 GMT-0600 (Central Standard Time),276925.200000003,065_o_m_n_a.png,O,z,694,16,1,1713.1000000014901,275212.1000000015,7061,NNB,B,15
16,test,2,0.0,1-Back,1,m,Fri Feb 14 2025 14:25:18 GMT-0600 (Central Standard Time),278707.0,013_y_m_n_a.png,O,m,748,17,1,1777.7999999970198,276929.200000003,7061,NNB,B,16
17,test,2,1.0,1-Back,1,z,Fri Feb 14 2025 14:25:18 GMT-0600 (Central Standard Time),280473.1000000015,013_y_m_n_a.png,O,z,741,18,1,1762.2000000029802,278710.8999999985,7061,NNB,B,17
0,test,3,1.0,1-Back,,,Fri Feb 14 2025 14:25:18 GMT-0600 (Central Standard Time),280473.1000000015,173_y_f_n_a.png,O,space,5696,1,1,1762.2000000029802,278710.8999999985,7061,NNB,B,0
1,test,3,0.0,1-Back,1,m,Fri Feb 14 2025 14:25:18 GMT-0600 (Central Standard Time),290004.5,065_o_m_n_a.png,O,m,696,1,1,1729.5,288275.0,7061,NNB,B,1
2,test,3,1.0,1-Back,1,z,Fri Feb 14 2025 14:25:18 GMT-0600 (Central Standard Time),291753.8999999985,065_o_m_n_a.png,O,z,716,1,1,1745.2999999970198,290008.6000000015,7061,NNB,B,2
3,test,3,0.0,1-Back,1,m,Fri Feb 14 2025 14:25:18 GMT-0600 (Central Standard Time),293902.299999997,097_m_f_n_a.png,O,m,1128,1,1,2144.2999999970198,291758.0,7061,NNB,B,3
4,test,3,1.0,1-Back,1,z,Fri Feb 14 2025 14:25:18 GMT-0600 (Central Standard Time),295568.299999997,097_m_f_n_a.png,O,z,634,1,1,1662.0999999940395,293906.200000003,7061,NNB,B,4
5,test,3,0.0,1-Back,1,m,Fri Feb 14 2025 14:25:18 GMT-0600 (Central Standard Time),297234.700000003,110_o_f_n_a.png,O,m,648,1,1,1662.2000000029802,295572.5,7061,NNB,B,5
6,test,3,0.0,1-Back,1,m,Fri Feb 14 2025 14:25:18 GMT-0600 (Central Standard Time),299018.6000000015,153_y_m_n_a.png,O,m,765,1,1,1779.8000000044703,297238.799999997,7061,NNB,B,6
7,test,3,0.0,1-Back,1,m,Fri Feb 14 2025 14:25:18 GMT-0600 (Central Standard Time),300902.200000003,110_o_f_n_a.png,O,m,855,1,1,1879.7000000029802,299022.5,7061,NNB,B,7
8,test,3,0.0,1-Back,1,m,Fri Feb 14 2025 14:25:18 GMT-0600 (Central Standard Time),302549.700000003,013_y_m_n_a.png,O,m,573,1,1,1643.8000000044703,300905.8999999985,7061,NNB,B,8
9,test,3,1.0,1-Back,1,z,Fri Feb 14 2025 14:25:18 GMT-0600 (Central Standard Time),304298.8999999985,013_y_m_n_a.png,O,z,714,1,1,1745.7999999970198,302553.1000000015,7061,NNB,B,9
10,test,3,0.0,1-Back,1,m,Fri Feb 14 2025 14:25:18 GMT-0600 (Central Standard Time),305998.3999999985,029_m_f_n_a.png,O,m,677,1,1,1695.3999999985099,304303.0,7061,NNB,B,10
11,test,3,0.0,1-Back,1,m,Fri Feb 14 2025 14:25:18 GMT-0600 (Central Standard Time),307597.6000000015,152_y_f_n_a.png,O,m,570,1,1,1595.2000000029802,306002.3999999985,7061,NNB,B,11
12,test,3,1.0,1-Back,1,z,Fri Feb 14 2025 14:25:18 GMT-0600 (Central Standard Time),309380.700000003,152_y_f_n_a.png,O,z,754,1,1,1778.7000000029802,307602.0,7061,NNB,B,12
13,test,3,0.0,1-Back,1,m,Fri Feb 14 2025 14:25:18 GMT-0600 (Central Standard Time),310946.799999997,029_m_f_n_a.png,O,m,531,1,1,1561.8999999985099,309384.8999999985,7061,NNB,B,13
14,test,3,0.0,1-Back,1,m,Fri Feb 14 2025 14:25:18 GMT-0600 (Central Standard Time),312563.0,126_m_m_n_a.png,O,m,590,1,1,1612.3999999985099,310950.6000000015,7061,NNB,B,14
15,test,3,1.0,1-Back,1,z,Fri Feb 14 2025 14:25:18 GMT-0600 (Central Standard Time),314245.799999997,126_m_m_n_a.png,O,z,653,1,1,1678.7999999970198,312567.0,7061,NNB,B,15
16,test,3,0.0,1-Back,1,m,Fri Feb 14 2025 14:25:18 GMT-0600 (Central Standard Time),316195.3999999985,086_o_f_n_a.png,O,m,915,1,1,1945.2999999970198,314250.1000000015,7061,NNB,B,16
16,test,3,1.0,1-Back,0,z,Fri Feb 14 2025 14:25:18 GMT-0600 (Central Standard Time),317911.3999999985,086_o_f_n_a.png,O,m,686,1,1,1711.6999999955297,316199.700000003,7061,NNB,B,17
0,test,4,1.0,1-Back,,,Fri Feb 14 2025 14:25:18 GMT-0600 (Central Standard Time),317911.3999999985,097_m_f_n_a.png,O,space,2194,1,1,1711.6999999955297,316199.700000003,7061,NNB,B,0
1,test,4,0.0,1-Back,1,m,Fri Feb 14 2025 14:25:18 GMT-0600 (Central Standard Time),324009.3999999985,065_o_m_n_a.png,O,m,775,2,1,1795.1999999955297,322214.200000003,7061,NNB,B,1
2,test,4,0.0,1-Back,1,m,Fri Feb 14 2025 14:25:18 GMT-0600 (Central Standard Time),325875.5,097_m_f_n_a.png,O,m,838,3,1,1862.0,324013.5,7061,NNB,B,2
3,test,4,0.0,1-Back,1,m,Fri Feb 14 2025 14:25:18 GMT-0600 (Central Standard Time),327675.0,110_o_f_n_a.png,O,m,780,4,1,1795.8999999985099,325879.1000000015,7061,NNB,B,3
4,test,4,1.0,1-Back,1,z,Fri Feb 14 2025 14:25:18 GMT-0600 (Central Standard Time),329324.5,110_o_f_n_a.png,O,z,629,5,1,1645.5,327679.0,7061,NNB,B,4
5,test,4,0.0,1-Back,1,m,Fri Feb 14 2025 14:25:18 GMT-0600 (Central Standard Time),331090.700000003,152_y_f_n_a.png,O,m,731,6,1,1762.2000000029802,329328.5,7061,NNB,B,5
6,test,4,0.0,1-Back,1,m,Fri Feb 14 2025 14:25:18 GMT-0600 (Central Standard Time),332856.5,153_y_m_n_a.png,O,m,740,7,1,1761.7999999970198,331094.700000003,7061,NNB,B,6
7,test,4,1.0,1-Back,1,z,Fri Feb 14 2025 14:25:18 GMT-0600 (Central Standard Time),334522.8999999985,153_y_m_n_a.png,O,z,632,8,1,1662.2999999970198,332860.6000000015,7061,NNB,B,7
8,test,4,0.0,1-Back,1,m,Fri Feb 14 2025 14:25:18 GMT-0600 (Central Standard Time),336188.8999999985,152_y_f_n_a.png,O,m,637,9,1,1661.8999999985099,334527.0,7061,NNB,B,8
9,test,4,0.0,1-Back,1,m,Fri Feb 14 2025 14:25:18 GMT-0600 (Central Standard Time),337921.700000003,178_m_m_n_a.png,O,m,708,10,1,1728.5,336193.200000003,7061,NNB,B,9
10,test,4,1.0,1-Back,1,z,Fri Feb 14 2025 14:25:18 GMT-0600 (Central Standard Time),339537.8999999985,178_m_m_n_a.png,O,z,582,11,1,1612.1000000014901,337925.799999997,7061,NNB,B,10
11,test,4,0.0,1-Back,1,m,Fri Feb 14 2025 14:25:18 GMT-0600 (Central Standard Time),341237.5,086_o_f_n_a.png,O,m,678,12,1,1695.3999999985099,339542.1000000015,7061,NNB,B,11
12,test,4,0.0,1-Back,1,m,Fri Feb 14 2025 14:25:18 GMT-0600 (Central Standard Time),342987.8999999985,176_o_m_n_a.png,O,m,722,13,1,1746.1999999955297,341241.700000003,7061,NNB,B,12
13,test,4,0.0,1-Back,1,m,Fri Feb 14 2025 14:25:18 GMT-0600 (Central Standard Time),344902.799999997,086_o_f_n_a.png,O,m,886,14,1,1909.5999999940395,342993.200000003,7061,NNB,B,13
14,test,4,0.0,1-Back,1,m,Fri Feb 14 2025 14:25:18 GMT-0600 (Central Standard Time),346535.8999999985,173_y_f_n_a.png,O,m,601,15,1,1629.1999999955297,344906.700000003,7061,NNB,B,14
15,test,4,1.0,1-Back,1,z,Fri Feb 14 2025 14:25:18 GMT-0600 (Central Standard Time),348335.200000003,173_y_f_n_a.png,O,z,759,16,1,1795.9000000059605,346539.299999997,7061,NNB,B,15
16,test,4,0.0,1-Back,1,m,Fri Feb 14 2025 14:25:18 GMT-0600 (Central Standard Time),349951.299999997,029_m_f_n_a.png,O,m,585,17,1,1612.0999999940395,348339.200000003,7061,NNB,B,16
16,test,4,1.0,1-Back,0,z,Fri Feb 14 2025 14:25:18 GMT-0600 (Central Standard Time),352017.3999999985,029_m_f_n_a.png,O,m,1042,18,1,2062.1999999955297,349955.200000003,7061,NNB,B,17
0,test,5,1.0,1-Back,,,Fri Feb 14 2025 14:25:18 GMT-0600 (Central Standard Time),352017.3999999985,176_o_m_n_a.png,O,space,2391,1,1,2062.1999999955297,349955.200000003,7061,NNB,B,0
0,test,5,1.0,1-Back,0,z,Fri Feb 14 2025 14:25:18 GMT-0600 (Central Standard Time),358099.0,176_o_m_n_a.png,O,m,640,2,1,1661.7999999970198,356437.200000003,7061,NNB,B,1
1,test,5,0.0,1-Back,1,m,Fri Feb 14 2025 14:25:18 GMT-0600 (Central Standard Time),360414.799999997,152_y_f_n_a.png,O,m,1285,3,1,2311.5999999940395,358103.200000003,7061,NNB,B,2
2,test,5,0.0,1-Back,1,m,Fri Feb 14 2025 14:25:18 GMT-0600 (Central Standard Time),362197.6000000015,153_y_m_n_a.png,O,m,762,4,1,1778.8999999985099,360418.700000003,7061,NNB,B,3
2,test,5,0.0,1-Back,0,m,Fri Feb 14 2025 14:25:18 GMT-0600 (Central Standard Time),363880.3999999985,152_y_f_n_a.png,O,z,658,5,1,1678.6999999955297,362201.700000003,7061,NNB,B,4
3,test,5,0.0,1-Back,1,m,Fri Feb 14 2025 14:25:18 GMT-0600 (Central Standard Time),365513.299999997,126_m_m_n_a.png,O,m,608,6,1,1629.0,363884.299999997,7061,NNB,B,5
4,test,5,1.0,1-Back,1,z,Fri Feb 14 2025 14:25:18 GMT-0600 (Central Standard Time),367162.8999999985,126_m_m_n_a.png,O,z,631,7,1,1645.6999999955297,365517.200000003,7061,NNB,B,6
5,test,5,0.0,1-Back,1,m,Fri Feb 14 2025 14:25:18 GMT-0600 (Central Standard Time),368845.299999997,173_y_f_n_a.png,O,m,654,8,1,1678.7999999970198,367166.5,7061,NNB,B,7
6,test,5,0.0,1-Back,1,m,Fri Feb 14 2025 14:25:18 GMT-0600 (Central Standard Time),370561.6000000015,013_y_m_n_a.png,O,m,682,9,1,1712.3999999985099,368849.200000003,7061,NNB,B,8
7,test,5,0.0,1-Back,1,m,Fri Feb 14 2025 14:25:18 GMT-0600 (Central Standard Time),372574.700000003,173_y_f_n_a.png,O,m,855,10,1,2009.0,370565.700000003,7061,NNB,B,9
8,test,5,0.0,1-Back,1,m,Fri Feb 14 2025 14:25:18 GMT-0600 (Central Standard Time),374360.5,086_o_f_n_a.png,O,m,751,11,1,1781.7999999970198,372578.700000003,7061,NNB,B,10
9,test,5,1.0,1-Back,1,z,Fri Feb 14 2025 14:25:18 GMT-0600 (Central Standard Time),376026.299999997,086_o_f_n_a.png,O,z,639,12,1,1661.7999999970198,374364.5,7061,NNB,B,11
10,test,5,0.0,1-Back,1,m,Fri Feb 14 2025 14:25:18 GMT-0600 (Central Standard Time),377642.799999997,065_o_m_n_a.png,O,m,598,13,1,1612.5999999940395,376030.200000003,7061,NNB,B,12
11,test,5,0.0,1-Back,1,m,Fri Feb 14 2025 14:25:18 GMT-0600 (Central Standard Time),379258.799999997,097_m_f_n_a.png,O,m,597,14,1,1612.3999999985099,377646.3999999985,7061,NNB,B,13
12,test,5,1.0,1-Back,1,z,Fri Feb 14 2025 14:25:18 GMT-0600 (Central Standard Time),380891.6000000015,097_m_f_n_a.png,O,z,605,15,1,1629.8000000044703,379261.799999997,7061,NNB,B,14
13,test,5,0.0,1-Back,1,m,Fri Feb 14 2025 14:25:18 GMT-0600 (Central Standard Time),382641.0,065_o_m_n_a.png,O,m,724,16,1,1745.7000000029802,380895.299999997,7061,NNB,B,15
14,test,5,0.0,1-Back,1,m,Fri Feb 14 2025 14:25:18 GMT-0600 (Central Standard Time),384240.3999999985,029_m_f_n_a.png,O,m,572,17,1,1595.0,382645.3999999985,7061,NNB,B,16
15,test,5,0.0,1-Back,1,m,Fri Feb 14 2025 14:25:18 GMT-0600 (Central Standard Time),385923.3999999985,178_m_m_n_a.png,O,m,656,18,1,1679.1999999955297,384244.200000003,7061,NNB,B,17
0,prac,1,0.0,2-Back,,,Fri Feb 14 2025 14:25:18 GMT-0600 (Central Standard Time),385923.3999999985,013_y_m_n_a.png,O,space,20733,1,1,1679.1999999955297,384244.200000003,7061,NNB,B,0
0,prac,1,0.0,2-Back,,,Fri Feb 14 2025 14:25:18 GMT-0600 (Central Standard Time),385923.3999999985,029_m_f_n_a.png,O,space,20733,2,1,1679.1999999955297,384244.200000003,7061,NNB,B,0
1,prac,1,1.0,2-Back,1,m,Fri Feb 14 2025 14:25:18 GMT-0600 (Central Standard Time),539192.299999997,065_o_m_n_a.png,O,m,977,3,1,1845.5,537346.799999997,7061,NNB,B,1
2,prac,1,0.0,2-Back,1,m,Fri Feb 14 2025 14:25:18 GMT-0600 (Central Standard Time),541324.8999999985,086_o_f_n_a.png,O,m,1243,4,1,2127.10000000149,539197.799999997,7061,NNB,B,2
3,prac,1,0.0,2-Back,1,z,Fri Feb 14 2025 14:25:18 GMT-0600 (Central Standard Time),542941.1000000015,065_o_m_n_a.png,O,z,830,5,1,1610.6000000014901,541330.5,7061,NNB,B,3
4,prac,1,1.0,2-Back,1,z,Fri Feb 14 2025 14:25:18 GMT-0600 (Central Standard Time),544807.0,086_o_f_n_a.png,O,z,1079,6,1,1860.2999999970198,542946.700000003,7061,NNB,B,4
5,prac,1,0.0,2-Back,1,m,Fri Feb 14 2025 14:25:18 GMT-0600 (Central Standard Time),546691.6000000015,178_m_m_n_a.png,O,m,1015,7,1,1879.0,544812.6000000015,7061,NNB,B,5
6,prac,1,0.0,2-Back,1,m,Fri Feb 14 2025 14:25:18 GMT-0600 (Central Standard Time),548689.200000003,176_o_m_n_a.png,O,m,1119,8,1,1992.3000000044703,546696.8999999985,7061,NNB,B,6
7,prac,1,0.0,2-Back,1,m,Fri Feb 14 2025 14:25:18 GMT-0600 (Central Standard Time),550738.5,173_y_f_n_a.png,O,m,1175,9,1,2030.2999999970198,548708.200000003,7061,NNB,B,7
8,prac,1,1.0,2-Back,1,z,Fri Feb 14 2025 14:25:18 GMT-0600 (Central Standard Time),553121.3999999985,176_o_m_n_a.png,O,z,1594,10,1,2378.1999999955297,550743.200000003,7061,NNB,B,8
9,prac,1,0.0,2-Back,1,m,Fri Feb 14 2025 14:25:18 GMT-0600 (Central Standard Time),555087.200000003,152_y_f_n_a.png,O,m,1100,11,1,1960.4000000059605,553126.799999997,7061,NNB,B,9
10,prac,1,0.0,2-Back,1,m,Fri Feb 14 2025 14:25:18 GMT-0600 (Central Standard Time),557186.700000003,178_m_m_n_a.png,O,m,1316,12,1,2093.9000000059605,555092.799999997,7061,NNB,B,10
0,test,1,0.0,2-Back,,,Fri Feb 14 2025 14:25:18 GMT-0600 (Central Standard Time),557186.700000003,153_y_m_n_a.png,O,space,16343,1,1,2093.9000000059605,555092.799999997,7061,NNB,B,0
0,test,1,0.0,2-Back,,,Fri Feb 14 2025 14:25:18 GMT-0600 (Central Standard Time),557186.700000003,153_y_m_n_a.png,O,space,16343,2,1,2093.9000000059605,555092.799999997,7061,NNB,B,0
1,test,1,0.0,2-Back,1,m,Fri Feb 14 2025 14:25:18 GMT-0600 (Central Standard Time),593675.200000003,086_o_f_n_a.png,O,m,914,3,1,1929.3000000044703,591745.8999999985,7061,NNB,B,1
2,test,1,0.0,2-Back,1,m,Fri Feb 14 2025 14:25:18 GMT-0600 (Central Standard Time),595407.799999997,126_m_m_n_a.png,O,m,702,4,1,1729.0,593678.799999997,7061,NNB,B,2
3,test,1,1.0,2-Back,1,z,Fri Feb 14 2025 14:25:18 GMT-0600 (Central Standard Time),597223.799999997,086_o_f_n_a.png,O,z,793,5,1,1812.2999999970198,595411.5,7061,NNB,B,3
4,test,1,0.0,2-Back,1,m,Fri Feb 14 2025 14:25:18 GMT-0600 (Central Standard Time),599073.5,152_y_f_n_a.png,O,m,825,6,1,1846.1000000014901,597227.3999999985,7061,NNB,B,4
4,test,1,0.0,2-Back,0,m,Fri Feb 14 2025 14:25:18 GMT-0600 (Central Standard Time),601056.1000000015,126_m_m_n_a.png,O,z,959,7,1,1979.3000000044703,599076.799999997,7061,NNB,B,5
5,test,1,1.0,2-Back,1,z,Fri Feb 14 2025 14:25:18 GMT-0600 (Central Standard Time),603038.799999997,152_y_f_n_a.png,O,z,953,8,1,1979.0999999940395,601059.700000003,7061,NNB,B,6
6,test,1,0.0,2-Back,1,m,Fri Feb 14 2025 14:25:18 GMT-0600 (Central Standard Time),604904.700000003,013_y_m_n_a.png,O,m,833,9,1,1862.0,603042.700000003,7061,NNB,B,7
7,test,1,0.0,2-Back,1,m,Fri Feb 14 2025 14:25:18 GMT-0600 (Central Standard Time),606920.799999997,110_o_f_n_a.png,O,m,992,10,1,2012.1999999955297,604908.6000000015,7061,NNB,B,8
7,test,1,1.0,2-Back,0,z,Fri Feb 14 2025 14:25:18 GMT-0600 (Central Standard Time),608920.200000003,013_y_m_n_a.png,O,m,965,11,1,1995.4000000059605,606924.799999997,7061,NNB,B,9
8,test,1,0.0,2-Back,1,m,Fri Feb 14 2025 14:25:18 GMT-0600 (Central Standard Time),610836.299999997,029_m_f_n_a.png,O,m,895,12,1,1912.1999999955297,608924.1000000015,7061,NNB,B,10
9,test,1,0.0,2-Back,1,m,Fri Feb 14 2025 14:25:18 GMT-0600 (Central Standard Time),612685.799999997,029_m_f_n_a.png,O,m,820,13,1,1845.6999999955297,610840.1000000015,7061,NNB,B,11
10,test,1,0.0,2-Back,1,m,Fri Feb 14 2025 14:25:18 GMT-0600 (Central Standard Time),614635.3999999985,065_o_m_n_a.png,O,m,923,14,1,1945.6000000014901,612689.799999997,7061,NNB,B,12
10,test,1,0.0,2-Back,0,m,Fri Feb 14 2025 14:25:18 GMT-0600 (Central Standard Time),616734.3999999985,110_o_f_n_a.png,O,z,1077,15,1,2095.10000000149,614639.299999997,7061,NNB,B,13
11,test,1,1.0,2-Back,1,z,Fri Feb 14 2025 14:25:18 GMT-0600 (Central Standard Time),618700.3999999985,065_o_m_n_a.png,O,z,939,16,1,1961.7999999970198,616738.6000000015,7061,NNB,B,14
12,test,1,0.0,2-Back,1,m,Fri Feb 14 2025 14:25:18 GMT-0600 (Central Standard Time),620400.0,097_m_f_n_a.png,O,m,668,17,1,1695.7999999970198,618704.200000003,7061,NNB,B,15
13,test,1,0.0,2-Back,1,m,Fri Feb 14 2025 14:25:18 GMT-0600 (Central Standard Time),622449.3999999985,178_m_m_n_a.png,O,m,1025,18,1,2045.5,620403.8999999985,7061,NNB,B,16
0,test,2,0.0,2-Back,,,Fri Feb 14 2025 14:25:18 GMT-0600 (Central Standard Time),622449.3999999985,178_m_m_n_a.png,O,space,3360,1,1,2045.5,620403.8999999985,7061,NNB,B,0
0,test,2,0.0,2-Back,,,Fri Feb 14 2025 14:25:18 GMT-0600 (Central Standard Time),622449.3999999985,173_y_f_n_a.png,O,space,3360,2,1,2045.5,620403.8999999985,7061,NNB,B,0
1,test,2,1.0,2-Back,1,z,Fri Feb 14 2025 14:25:18 GMT-0600 (Central Standard Time),632979.200000003,178_m_m_n_a.png,O,z,1014,3,1,2028.5,630950.700000003,7061,NNB,B,1
2,test,2,0.0,2-Back,1,m,Fri Feb 14 2025 14:25:18 GMT-0600 (Central Standard Time),634745.700000003,097_m_f_n_a.png,O,m,732,4,1,1762.8000000044703,632982.8999999985,7061,NNB,B,2
2,test,2,0.0,2-Back,0,m,Fri Feb 14 2025 14:25:18 GMT-0600 (Central Standard Time),636794.6000000015,173_y_f_n_a.png,O,z,1030,5,1,2045.0,634749.6000000015,7061,NNB,B,3
3,test,2,0.0,2-Back,1,m,Fri Feb 14 2025 14:25:18 GMT-0600 (Central Standard Time),638927.799999997,065_o_m_n_a.png,O,m,1108,6,1,2129.2999999970198,636798.5,7061,NNB,B,4
4,test,2,0.0,2-Back,1,m,Fri Feb 14 2025 14:25:18 GMT-0600 (Central Standard Time),640927.0,152_y_f_n_a.png,O,m,977,7,1,1994.7000000029802,638932.299999997,7061,NNB,B,5
5,test,2,1.0,2-Back,1,z,Fri Feb 14 2025 14:25:18 GMT-0600 (Central Standard Time),642743.0,065_o_m_n_a.png,O,z,794,8,1,1812.0,640931.0,7061,NNB,B,6
6,test,2,0.0,2-Back,1,m,Fri Feb 14 2025 14:25:18 GMT-0600 (Central Standard Time),644842.299999997,013_y_m_n_a.png,O,m,1074,9,1,2095.1999999955297,642747.1000000015,7061,NNB,B,7
7,test,2,0.0,2-Back,1,m,Fri Feb 14 2025 14:25:18 GMT-0600 (Central Standard Time),647225.1000000015,013_y_m_n_a.png,O,m,1357,10,1,2379.39999999851,644845.700000003,7061,NNB,B,8
8,test,2,0.0,2-Back,1,m,Fri Feb 14 2025 14:25:18 GMT-0600 (Central Standard Time),649324.299999997,029_m_f_n_a.png,O,m,1071,11,1,2095.89999999851,647228.3999999985,7061,NNB,B,9
9,test,2,0.0,2-Back,1,m,Fri Feb 14 2025 14:25:18 GMT-0600 (Central Standard Time),651573.5,173_y_f_n_a.png,O,m,1211,12,1,2245.0,649328.5,7061,NNB,B,10
10,test,2,1.0,2-Back,1,z,Fri Feb 14 2025 14:25:18 GMT-0600 (Central Standard Time),653689.6000000015,029_m_f_n_a.png,O,z,1082,13,1,2112.10000000149,651577.5,7061,NNB,B,11
11,test,2,0.0,2-Back,1,m,Fri Feb 14 2025 14:25:18 GMT-0600 (Central Standard Time),655505.700000003,176_o_m_n_a.png,O,m,782,14,1,1812.3000000044703,653693.3999999985,7061,NNB,B,12
12,test,2,0.0,2-Back,1,m,Fri Feb 14 2025 14:25:18 GMT-0600 (Central Standard Time),657621.700000003,176_o_m_n_a.png,O,m,1087,15,1,2112.3000000044703,655509.3999999985,7061,NNB,B,13
13,test,2,0.0,2-Back,1,m,Fri Feb 14 2025 14:25:18 GMT-0600 (Central Standard Time),659671.0,110_o_f_n_a.png,O,m,1027,16,1,2045.3999999985099,657625.6000000015,7061,NNB,B,14
14,test,2,0.0,2-Back,1,m,Fri Feb 14 2025 14:25:18 GMT-0600 (Central Standard Time),661670.5,126_m_m_n_a.png,O,m,969,17,1,1995.5,659675.0,7061,NNB,B,15
15,test,2,1.0,2-Back,1,z,Fri Feb 14 2025 14:25:18 GMT-0600 (Central Standard Time),663520.0,110_o_f_n_a.png,O,z,826,18,1,1845.7000000029802,661674.299999997,7061,NNB,B,16
0,test,3,1.0,2-Back,,,Fri Feb 14 2025 14:25:18 GMT-0600 (Central Standard Time),663520.0,153_y_m_n_a.png,O,space,2122,1,1,1845.7000000029802,661674.299999997,7061,NNB,B,0
0,test,3,1.0,2-Back,,,Fri Feb 14 2025 14:25:18 GMT-0600 (Central Standard Time),663520.0,153_y_m_n_a.png,O,space,2122,2,1,1845.7000000029802,661674.299999997,7061,NNB,B,0
1,test,3,0.0,2-Back,1,m,Fri Feb 14 2025 14:25:18 GMT-0600 (Central Standard Time),672567.1000000015,110_o_f_n_a.png,O,m,777,3,1,1795.5,670771.6000000015,7061,NNB,B,1
2,test,3,0.0,2-Back,1,m,Fri Feb 14 2025 14:25:18 GMT-0600 (Central Standard Time),674483.299999997,178_m_m_n_a.png,O,m,890,4,1,1912.3999999985099,672570.8999999985,7061,NNB,B,2
3,test,3,1.0,2-Back,1,z,Fri Feb 14 2025 14:25:18 GMT-0600 (Central Standard Time),676149.200000003,110_o_f_n_a.png,O,z,644,5,1,1662.0,674487.200000003,7061,NNB,B,3
4,test,3,0.0,2-Back,1,m,Fri Feb 14 2025 14:25:18 GMT-0600 (Central Standard Time),678165.200000003,013_y_m_n_a.png,O,m,987,6,1,2012.1000000014901,676153.1000000015,7061,NNB,B,4
5,test,3,0.0,2-Back,1,m,Fri Feb 14 2025 14:25:18 GMT-0600 (Central Standard Time),680148.0,178_m_m_n_a.png,O,m,955,7,1,1978.7999999970198,678169.200000003,7061,NNB,B,5
6,test,3,1.0,2-Back,1,z,Fri Feb 14 2025 14:25:18 GMT-0600 (Central Standard Time),682148.3999999985,013_y_m_n_a.png,O,z,981,8,1,1996.7999999970198,680151.6000000015,7061,NNB,B,6
7,test,3,0.0,2-Back,1,m,Fri Feb 14 2025 14:25:18 GMT-0600 (Central Standard Time),684746.700000003,173_y_f_n_a.png,O,m,1580,9,1,2594.2000000029802,682152.5,7061,NNB,B,7
8,test,3,0.0,2-Back,1,m,Fri Feb 14 2025 14:25:18 GMT-0600 (Central Standard Time),686945.799999997,126_m_m_n_a.png,O,m,1165,10,1,2195.2999999970198,684750.5,7061,NNB,B,8
9,test,3,1.0,2-Back,1,z,Fri Feb 14 2025 14:25:18 GMT-0600 (Central Standard Time),688861.799999997,173_y_f_n_a.png,O,z,887,11,1,1912.1999999955297,686949.6000000015,7061,NNB,B,9
10,test,3,1.0,2-Back,1,z,Fri Feb 14 2025 14:25:18 GMT-0600 (Central Standard Time),690844.6000000015,126_m_m_n_a.png,O,z,962,12,1,1979.1000000014901,688865.5,7061,NNB,B,10
11,test,3,0.0,2-Back,1,m,Fri Feb 14 2025 14:25:18 GMT-0600 (Central Standard Time),692710.5,110_o_f_n_a.png,O,m,843,13,1,1862.1000000014901,690848.3999999985,7061,NNB,B,11
12,test,3,0.0,2-Back,1,m,Fri Feb 14 2025 14:25:18 GMT-0600 (Central Standard Time),694526.700000003,097_m_f_n_a.png,O,m,793,14,1,1812.0,692714.700000003,7061,NNB,B,12
13,test,3,0.0,2-Back,1,m,Fri Feb 14 2025 14:25:18 GMT-0600 (Central Standard Time),696459.6000000015,065_o_m_n_a.png,O,m,905,15,1,1928.8999999985099,694530.700000003,7061,NNB,B,13
14,test,3,1.0,2-Back,1,z,Fri Feb 14 2025 14:25:18 GMT-0600 (Central Standard Time),698125.6000000015,097_m_f_n_a.png,O,z,645,16,1,1662.2000000029802,696463.3999999985,7061,NNB,B,14
15,test,3,0.0,2-Back,1,m,Fri Feb 14 2025 14:25:18 GMT-0600 (Central Standard Time),699941.8999999985,086_o_f_n_a.png,O,m,795,17,1,1812.3999999985099,698129.5,7061,NNB,B,15
16,test,3,0.0,2-Back,1,m,Fri Feb 14 2025 14:25:18 GMT-0600 (Central Standard Time),701908.8999999985,086_o_f_n_a.png,O,m,947,18,1,1963.5,699945.3999999985,7061,NNB,B,16
0,test,4,0.0,2-Back,,,Fri Feb 14 2025 14:25:18 GMT-0600 (Central Standard Time),701908.8999999985,176_o_m_n_a.png,O,space,1405,1,1,1963.5,699945.3999999985,7061,NNB,B,0
0,test,4,0.0,2-Back,,,Fri Feb 14 2025 14:25:18 GMT-0600 (Central Standard Time),701908.8999999985,152_y_f_n_a.png,O,space,1405,2,1,1963.5,699945.3999999985,7061,NNB,B,0
1,test,4,1.0,2-Back,1,z,Fri Feb 14 2025 14:25:18 GMT-0600 (Central Standard Time),710405.1000000015,176_o_m_n_a.png,O,z,838,3,1,1861.7000000029802,708543.3999999985,7061,NNB,B,1
2,test,4,1.0,2-Back,1,z,Fri Feb 14 2025 14:25:18 GMT-0600 (Central Standard Time),712271.5,152_y_f_n_a.png,O,z,836,4,1,1862.6000000014901,710408.8999999985,7061,NNB,B,2
3,test,4,0.0,2-Back,1,m,Fri Feb 14 2025 14:25:18 GMT-0600 (Central Standard Time),714237.3999999985,110_o_f_n_a.png,O,m,936,5,1,1962.1000000014901,712275.299999997,7061,NNB,B,3
4,test,4,0.0,2-Back,1,m,Fri Feb 14 2025 14:25:18 GMT-0600 (Central Standard Time),716120.200000003,110_o_f_n_a.png,O,m,860,6,1,1878.8000000044703,714241.3999999985,7061,NNB,B,4
5,test,4,0.0,2-Back,1,m,Fri Feb 14 2025 14:25:18 GMT-0600 (Central Standard Time),718152.799999997,029_m_f_n_a.png,O,m,1007,7,1,2028.6999999955297,716124.1000000015,7061,NNB,B,5
6,test,4,0.0,2-Back,1,m,Fri Feb 14 2025 14:25:18 GMT-0600 (Central Standard Time),720168.799999997,013_y_m_n_a.png,O,m,991,8,1,2011.6999999955297,718157.1000000015,7061,NNB,B,6
7,test,4,1.0,2-Back,1,z,Fri Feb 14 2025 14:25:18 GMT-0600 (Central Standard Time),722051.5,029_m_f_n_a.png,O,z,855,9,1,1879.0,720172.5,7061,NNB,B,7
8,test,4,0.0,2-Back,1,m,Fri Feb 14 2025 14:25:18 GMT-0600 (Central Standard Time),724018.700000003,126_m_m_n_a.png,O,m,948,10,1,1963.5,722055.200000003,7061,NNB,B,8
8,test,4,0.0,2-Back,0,m,Fri Feb 14 2025 14:25:18 GMT-0600 (Central Standard Time),726016.799999997,013_y_m_n_a.png,O,z,967,11,1,1994.1999999955297,724022.6000000015,7061,NNB,B,9
9,test,4,0.0,2-Back,1,m,Fri Feb 14 2025 14:25:18 GMT-0600 (Central Standard Time),727866.6000000015,086_o_f_n_a.png,O,m,815,12,1,1845.8999999985099,726020.700000003,7061,NNB,B,10
10,test,4,0.0,2-Back,1,m,Fri Feb 14 2025 14:25:18 GMT-0600 (Central Standard Time),729865.799999997,153_y_m_n_a.png,O,m,973,13,1,1995.5,727870.299999997,7061,NNB,B,11
11,test,4,1.0,2-Back,1,z,Fri Feb 14 2025 14:25:18 GMT-0600 (Central Standard Time),731748.6000000015,086_o_f_n_a.png,O,z,854,14,1,1878.8000000044703,729869.799999997,7061,NNB,B,12
12,test,4,1.0,2-Back,1,z,Fri Feb 14 2025 14:25:18 GMT-0600 (Central Standard Time),733481.299999997,153_y_m_n_a.png,O,z,708,15,1,1728.7999999970198,731752.5,7061,NNB,B,13
13,test,4,0.0,2-Back,1,m,Fri Feb 14 2025 14:25:18 GMT-0600 (Central Standard Time),735197.299999997,178_m_m_n_a.png,O,m,687,16,1,1712.1999999955297,733485.1000000015,7061,NNB,B,14
14,test,4,0.0,2-Back,1,m,Fri Feb 14 2025 14:25:18 GMT-0600 (Central Standard Time),737030.200000003,097_m_f_n_a.png,O,m,803,17,1,1828.9000000059605,735201.299999997,7061,NNB,B,15
15,test,4,1.0,2-Back,1,z,Fri Feb 14 2025 14:25:18 GMT-0600 (Central Standard Time),738964.3999999985,178_m_m_n_a.png,O,z,907,18,1,1930.2999999970198,737034.1000000015,7061,NNB,B,16
0,test,5,1.0,2-Back,,,Fri Feb 14 2025 14:25:18 GMT-0600 (Central Standard Time),738964.3999999985,153_y_m_n_a.png,O,space,1028,1,1,1930.2999999970198,737034.1000000015,7061,NNB,B,0
0,test,5,1.0,2-Back,,,Fri Feb 14 2025 14:25:18 GMT-0600 (Central Standard Time),738964.3999999985,097_m_f_n_a.png,O,space,1028,2,1,1930.2999999970198,737034.1000000015,7061,NNB,B,0
1,test,5,1.0,2-Back,1,z,Fri Feb 14 2025 14:25:18 GMT-0600 (Central Standard Time),746827.299999997,153_y_m_n_a.png,O,z,748,3,1,1779.0,745048.299999997,7061,NNB,B,1
2,test,5,1.0,2-Back,1,z,Fri Feb 14 2025 14:25:18 GMT-0600 (Central Standard Time),748676.3999999985,097_m_f_n_a.png,O,z,829,4,1,1845.5,746830.8999999985,7061,NNB,B,2
3,test,5,0.0,2-Back,1,m,Fri Feb 14 2025 14:25:18 GMT-0600 (Central Standard Time),750675.700000003,086_o_f_n_a.png,O,m,980,5,1,1995.5,748680.200000003,7061,NNB,B,3
3,test,5,0.0,2-Back,0,m,Fri Feb 14 2025 14:25:18 GMT-0600 (Central Standard Time),753458.6000000015,153_y_m_n_a.png,O,z,1757,6,1,2779.3000000044703,750679.299999997,7061,NNB,B,4
4,test,5,0.0,2-Back,1,m,Fri Feb 14 2025 14:25:18 GMT-0600 (Central Standard Time),755557.8999999985,173_y_f_n_a.png,O,m,1069,7,1,2095.5,753462.3999999985,7061,NNB,B,5
4,test,5,0.0,2-Back,0,m,Fri Feb 14 2025 14:25:18 GMT-0600 (Central Standard Time),757440.5,086_o_f_n_a.png,O,z,850,8,1,1878.7999999970198,755561.700000003,7061,NNB,B,6
5,test,5,1.0,2-Back,1,z,Fri Feb 14 2025 14:25:18 GMT-0600 (Central Standard Time),759423.200000003,173_y_f_n_a.png,O,z,960,9,1,1978.8000000044703,757444.3999999985,7061,NNB,B,7
6,test,5,0.0,2-Back,1,m,Fri Feb 14 2025 14:25:18 GMT-0600 (Central Standard Time),761222.5,065_o_m_n_a.png,O,m,769,10,1,1795.2999999970198,759427.200000003,7061,NNB,B,8
7,test,5,0.0,2-Back,1,m,Fri Feb 14 2025 14:25:18 GMT-0600 (Central Standard Time),763105.200000003,029_m_f_n_a.png,O,m,850,11,1,1879.1000000014901,761226.1000000015,7061,NNB,B,9
8,test,5,0.0,2-Back,1,m,Fri Feb 14 2025 14:25:18 GMT-0600 (Central Standard Time),764904.6000000015,126_m_m_n_a.png,O,m,767,12,1,1795.6000000014901,763109.0,7061,NNB,B,10
8,test,5,0.0,2-Back,0,m,Fri Feb 14 2025 14:25:18 GMT-0600 (Central Standard Time),766937.6000000015,065_o_m_n_a.png,O,z,1000,13,1,2028.8999999985099,764908.700000003,7061,NNB,B,11
9,test,5,1.0,2-Back,1,z,Fri Feb 14 2025 14:25:18 GMT-0600 (Central Standard Time),768787.1000000015,126_m_m_n_a.png,O,z,815,14,1,1845.3999999985099,766941.700000003,7061,NNB,B,12
10,test,5,0.0,2-Back,1,m,Fri Feb 14 2025 14:25:18 GMT-0600 (Central Standard Time),770670.8999999985,152_y_f_n_a.png,O,m,861,15,1,1880.5,768790.3999999985,7061,NNB,B,13
11,test,5,0.0,2-Back,1,m,Fri Feb 14 2025 14:25:18 GMT-0600 (Central Standard Time),772766.1000000015,176_o_m_n_a.png,O,m,1078,16,1,2091.2000000029802,770674.8999999985,7061,NNB,B,14
12,test,5,0.0,2-Back,1,m,Fri Feb 14 2025 14:25:18 GMT-0600 (Central Standard Time),774669.6000000015,029_m_f_n_a.png,O,m,872,17,1,1899.3999999985099,772770.200000003,7061,NNB,B,15
13,test,5,1.0,2-Back,1,z,Fri Feb 14 2025 14:25:18 GMT-0600 (Central Standard Time),776485.5,176_o_m_n_a.png,O,z,788,18,1,1812.1000000014901,774673.3999999985,7061,NNB,B,16
