acc_sum,block,block_c,condition,correct,correct_response,datetime,endtime,flanker,jitter,project,response,response_test_buffer_response,response_test_target_response,response_time,response_time_test_buffer_response,response_time_test_target_response,row_sel,session_number,start_end,starttime,subject_id,target,task,task_vers,time_test_buffer,time_test_buffer_response,time_test_constants,time_test_flanker,time_test_jitter,time_test_logger,time_test_target,time_test_target_response,time_test_variables,trial
0,prac,1,inc,0,m,Mon Feb 03 2025 13:48:04 GMT-0600 (Central Standard Time),91350.29999999981,elated,900,I,None,,,1799,,,6,1,4961.0,86389.29999999981,8026,napkin,AF,B,,,,,,,,,,1
0,prac,1,inc,0,m,Mon Feb 03 2025 13:48:04 GMT-0600 (Central Standard Time),94182.70000000019,brutal,1100,I,z,,,426,,,8,1,2827.4000000003725,91355.29999999981,8026,window,AF,B,,,,,,,,,,2
1,prac,1,con,1,m,Mon Feb 03 2025 13:48:04 GMT-0600 (Central Standard Time),96665.29999999981,jacket,800,I,m,,,381,,,5,1,2478.2000000001863,94187.09999999963,8026,jacket,AF,B,,,,,,,,,,3
2,prac,1,inc,1,m,Mon Feb 03 2025 13:48:04 GMT-0600 (Central Standard Time),99380.79999999981,kind,900,I,m,,,503,,,2,1,2711.0,96669.79999999981,8026,rock,AF,B,,,,,,,,,,4
3,prac,1,con,1,z,Mon Feb 03 2025 13:48:04 GMT-0600 (Central Standard Time),101980.20000000019,brutal,800,I,z,,,487,,,13,1,2594.7999999998137,99385.40000000037,8026,brutal,AF,B,,,,,,,,,,5
4,prac,1,con,1,z,Mon Feb 03 2025 13:48:04 GMT-0600 (Central Standard Time),104879.40000000037,rage,1000,I,z,,,585,,,15,1,2894.5,101984.90000000037,8026,rage,AF,B,,,,,,,,,,6
5,prac,1,con,1,m,Mon Feb 03 2025 13:48:04 GMT-0600 (Central Standard Time),107945.09999999963,remote,1000,I,m,,,756,,,7,1,3060.899999999441,104884.20000000019,8026,remote,AF,B,,,,,,,,,,7
6,prac,1,con,1,z,Mon Feb 03 2025 13:48:04 GMT-0600 (Central Standard Time),110611.0,elated,800,I,z,,,556,,,9,1,2661.0,107950.0,8026,elated,AF,B,,,,,,,,,,8
7,prac,1,inc,1,z,Mon Feb 03 2025 13:48:04 GMT-0600 (Central Standard Time),113593.5,rock,900,I,z,,,791,,,10,1,2978.0999999996275,110615.40000000037,8026,kind,AF,B,,,,,,,,,,9
8,prac,1,con,1,m,Mon Feb 03 2025 13:48:04 GMT-0600 (Central Standard Time),116342.5,step,800,I,m,,,642,,,1,1,2744.5,113598.0,8026,step,AF,B,,,,,,,,,,10
9,prac,1,inc,1,z,Mon Feb 03 2025 13:48:04 GMT-0600 (Central Standard Time),119358.0,napkin,1100,I,z,,,611,,,12,1,3010.5999999996275,116347.40000000037,8026,friend,AF,B,,,,,,,,,,11
10,prac,1,con,1,m,Mon Feb 03 2025 13:48:04 GMT-0600 (Central Standard Time),122373.90000000037,bell,1000,I,m,,,711,,,3,1,3011.800000000745,119362.09999999963,8026,bell,AF,B,,,,,,,,,,12
11,prac,1,inc,1,z,Mon Feb 03 2025 13:48:04 GMT-0600 (Central Standard Time),125406.5,window,1100,I,z,,,626,,,16,1,3028.5,122378.0,8026,temper,AF,B,,,,,,,,,,13
12,prac,1,con,1,z,Mon Feb 03 2025 13:48:04 GMT-0600 (Central Standard Time),128105.20000000019,love,1000,I,z,,,390,,,11,1,2694.600000000559,125410.59999999963,8026,love,AF,B,,,,,,,,,,14
13,prac,1,inc,1,z,Mon Feb 03 2025 13:48:04 GMT-0600 (Central Standard Time),130904.5,film,900,I,z,,,591,,,14,1,2794.5,128110.0,8026,hate,AF,B,,,,,,,,,,15
14,prac,1,inc,1,m,Mon Feb 03 2025 13:48:04 GMT-0600 (Central Standard Time),133970.40000000037,hate,1100,I,m,,,656,,,4,1,3061.5,130908.90000000037,8026,film,AF,B,,,,,,,,,,16
1,test,1,con,1,m,Mon Feb 03 2025 13:48:04 GMT-0600 (Central Standard Time),145700.0,step,1000,I,m,m,None,473,274.0,199.0,67,1,2012.7999999998137,143687.2000000002,8026,step,AF,B,139989,139989,138259,139273,138261,140272,139790,139790,140272,1
2,test,1,con,1,z,Mon Feb 03 2025 13:48:04 GMT-0600 (Central Standard Time),147449.40000000037,friend,800,I,z,z,None,409,210.0,199.0,25,1,1744.9000000003725,145704.5,8026,friend,AF,B,141805,141805,140277,141089,140278,142021,141606,141606,142021,2
3,test,1,con,1,z,Mon Feb 03 2025 13:48:04 GMT-0600 (Central Standard Time),149332.0,brutal,900,I,z,z,None,439,224.0,215.0,34,1,1878.2999999998137,147453.7000000002,8026,brutal,AF,B,143671,143671,142026,142939,142027,143904,143456,143456,143904,3
4,test,1,inc,1,z,Mon Feb 03 2025 13:48:04 GMT-0600 (Central Standard Time),151548.2000000002,window,1100,I,z,z,None,572,357.0,215.0,32,1,2211.9000000003725,149336.2999999998,8026,friend,AF,B,145754,145754,143908,145022,143910,146120,145539,145539,146120,4
5,test,1,con,1,m,Mon Feb 03 2025 13:48:04 GMT-0600 (Central Standard Time),153414.09999999963,jacket,800,I,m,m,None,529,330.0,199.0,97,1,1861.7999999998137,151552.2999999998,8026,jacket,AF,B,147653,147653,146124,146938,146126,147986,147454,147454,147986,5
6,test,1,inc,1,z,Mon Feb 03 2025 13:48:04 GMT-0600 (Central Standard Time),155330.09999999963,rock,900,I,z,z,None,475,276.0,199.0,14,1,1911.8999999994412,153418.2000000002,8026,kind,AF,B,149619,149619,147990,148904,147992,149902,149420,149420,149902,6
7,test,1,con,1,z,Mon Feb 03 2025 13:48:04 GMT-0600 (Central Standard Time),157479.7999999998,love,1000,I,z,z,None,602,387.0,215.0,19,1,2145.5,155334.2999999998,8026,love,AF,B,151652,151652,149906,150920,149908,152052,151437,151437,152052,7
8,test,1,inc,1,z,Mon Feb 03 2025 13:48:04 GMT-0600 (Central Standard Time),159679.09999999963,film,1100,I,z,z,None,553,338.0,215.0,48,1,2195.199999999255,157483.90000000037,8026,hate,AF,B,153901,153901,152056,153169,152057,154251,153686,153686,154251,8
9,test,1,con,1,z,Mon Feb 03 2025 13:48:04 GMT-0600 (Central Standard Time),161644.7000000002,friend,900,I,z,z,None,530,331.0,199.0,26,1,1961.4000000003725,159683.2999999998,8026,friend,AF,B,155884,155884,154255,155168,154257,156217,155685,155685,156217,9
10,test,1,inc,1,m,Mon Feb 03 2025 13:48:04 GMT-0600 (Central Standard Time),163744.2999999998,love,1000,I,m,m,None,560,361.0,199.0,79,1,2095.5999999996275,161648.7000000002,8026,rock,AF,B,157950,157950,156221,157234,156222,158316,157751,157751,158316,10
11,test,1,con,1,z,Mon Feb 03 2025 13:48:04 GMT-0600 (Central Standard Time),165643.40000000037,kind,800,I,z,z,None,565,366.0,199.0,9,1,1894.5,163748.90000000037,8026,kind,AF,B,159849,159849,158321,159134,158322,160215,159650,159650,160215,11
12,test,1,inc,1,m,Mon Feb 03 2025 13:48:04 GMT-0600 (Central Standard Time),167909.59999999963,hate,1100,I,m,m,None,620,405.0,215.0,88,1,2262.2999999998137,165647.2999999998,8026,bell,AF,B,162065,162065,160219,161333,160221,162482,161850,161850,162482,12
13,test,1,con,1,m,Mon Feb 03 2025 13:48:04 GMT-0600 (Central Standard Time),170142.0,film,1000,I,m,m,None,686,471.0,215.0,91,1,2228.5,167913.5,8026,film,AF,B,164231,164231,162486,163499,162487,164714,164016,164016,164714,13
14,test,1,con,1,m,Mon Feb 03 2025 13:48:04 GMT-0600 (Central Standard Time),172125.7000000002,rock,900,I,m,m,None,547,348.0,199.0,74,1,1979.6000000005588,170146.09999999963,8026,rock,AF,B,166347,166347,164718,165632,164720,166698,166148,166148,166698,14
15,test,1,con,1,z,Mon Feb 03 2025 13:48:04 GMT-0600 (Central Standard Time),174091.09999999963,rage,800,I,z,z,None,632,433.0,199.0,49,1,1961.0,172130.09999999963,8026,rage,AF,B,168230,168230,166702,167514,166704,168663,168031,168031,168663,15
16,test,1,con,1,z,Mon Feb 03 2025 13:48:04 GMT-0600 (Central Standard Time),175923.5,love,900,I,z,z,None,398,199.0,199.0,18,1,1828.7999999998137,174094.7000000002,8026,love,AF,B,170296,170296,168667,169580,168668,170496,170097,170097,170496,16
17,test,1,inc,1,m,Mon Feb 03 2025 13:48:04 GMT-0600 (Central Standard Time),177906.7000000002,kind,900,I,m,m,None,548,333.0,215.0,94,1,1979.2000000001863,175927.5,8026,film,AF,B,172146,172146,170500,171413,170501,172479,171930,171930,172479,17
18,test,1,con,1,m,Mon Feb 03 2025 13:48:04 GMT-0600 (Central Standard Time),179955.90000000037,step,800,I,m,m,None,705,490.0,215.0,65,1,2045.300000000745,177910.59999999963,8026,step,AF,B,174028,174028,172483,173296,172484,174528,173813,173813,174528,18
19,test,1,con,1,m,Mon Feb 03 2025 13:48:04 GMT-0600 (Central Standard Time),182138.40000000037,film,1100,I,m,m,None,531,316.0,215.0,92,1,2178.600000000559,179959.7999999998,8026,film,AF,B,176378,176378,174532,175645,174533,176711,176162,176162,176710,19
20,test,1,con,1,z,Mon Feb 03 2025 13:48:04 GMT-0600 (Central Standard Time),183954.5,elated,800,I,z,z,None,445,242.0,203.0,1,1,1812.0,182142.5,8026,elated,AF,B,178277,178277,176715,177528,176716,178527,178073,178073,178527,20
21,test,1,inc,1,m,Mon Feb 03 2025 13:48:04 GMT-0600 (Central Standard Time),185804.0,elated,800,I,m,m,None,505,290.0,215.0,109,1,1845.4000000003725,183958.59999999963,8026,napkin,AF,B,180076,180076,178531,179344,178532,180376,179861,179861,180376,21
22,test,1,con,1,z,Mon Feb 03 2025 13:48:04 GMT-0600 (Central Standard Time),188003.2999999998,friend,1100,I,z,z,None,565,366.0,199.0,28,1,2194.0999999996275,185809.2000000002,8026,friend,AF,B,182209,182209,180381,181493,180383,182575,182010,182010,182575,22
23,test,1,con,1,m,Mon Feb 03 2025 13:48:04 GMT-0600 (Central Standard Time),190002.7999999998,step,900,I,m,m,None,556,341.0,215.0,66,1,1995.7999999998137,188007.0,8026,step,AF,B,184225,184225,182579,183493,182580,184575,184010,184010,184575,23
24,test,1,inc,1,m,Mon Feb 03 2025 13:48:04 GMT-0600 (Central Standard Time),191918.7999999998,elated,800,I,m,m,None,578,379.0,199.0,125,1,1911.7999999998137,190007.0,8026,window,AF,B,186108,186108,184579,185392,184581,186491,185909,185909,186491,24
25,test,1,con,1,m,Mon Feb 03 2025 13:48:04 GMT-0600 (Central Standard Time),193751.59999999963,film,800,I,m,m,None,492,278.0,214.0,89,1,1828.5999999996275,191923.0,8026,film,AF,B,188041,188041,186495,187308,186496,188324,187826,187826,188324,25
26,test,1,inc,1,m,Mon Feb 03 2025 13:48:04 GMT-0600 (Central Standard Time),195934.09999999963,friend,1100,I,m,m,None,537,322.0,215.0,112,1,2178.399999999441,193755.7000000002,8026,napkin,AF,B,190173,190173,188328,189441,188329,190506,189958,189958,190506,26
27,test,1,inc,1,z,Mon Feb 03 2025 13:48:04 GMT-0600 (Central Standard Time),198166.7999999998,window,1100,I,z,z,None,587,388.0,199.0,8,1,2228.7000000001863,195938.09999999963,8026,elated,AF,B,192339,192339,190510,191624,190512,192739,192140,192140,192739,27
28,test,1,inc,1,m,Mon Feb 03 2025 13:48:04 GMT-0600 (Central Standard Time),200382.7000000002,brutal,900,I,m,m,None,770,571.0,199.0,102,1,2211.9000000003725,198170.7999999998,8026,jacket,AF,B,194372,194372,192743,193656,192744,194955,194173,194173,194955,28
29,test,1,con,1,m,Mon Feb 03 2025 13:48:04 GMT-0600 (Central Standard Time),202448.90000000037,rock,1000,I,m,m,None,526,327.0,199.0,75,1,2062.100000000559,200386.7999999998,8026,rock,AF,B,196688,196688,194959,195972,194960,197021,196489,196489,197021,29
30,test,1,inc,1,m,Mon Feb 03 2025 13:48:04 GMT-0600 (Central Standard Time),204348.2999999998,rage,800,I,m,m,None,564,365.0,199.0,85,1,1895.7000000001863,202452.59999999963,8026,bell,AF,B,198554,198554,197025,197838,197026,198920,198355,198355,198920,30
31,test,1,inc,1,m,Mon Feb 03 2025 13:48:04 GMT-0600 (Central Standard Time),206447.59999999963,brutal,900,I,m,m,None,653,454.0,199.0,118,1,2095.699999999255,204351.90000000037,8026,remote,AF,B,200553,200553,198924,199837,198925,201020,200354,200354,201020,31
32,test,1,inc,1,z,Mon Feb 03 2025 13:48:04 GMT-0600 (Central Standard Time),208363.40000000037,jacket,800,I,z,z,None,581,382.0,199.0,5,1,1912.1000000005588,206451.2999999998,8026,elated,AF,B,202553,202553,201023,201836,201025,202936,202354,202354,202935,32
33,test,1,inc,1,m,Mon Feb 03 2025 13:48:04 GMT-0600 (Central Standard Time),210196.2999999998,elated,800,I,m,m,None,489,274.0,215.0,117,1,1829.2000000001863,208367.09999999963,8026,remote,AF,B,204485,204485,202939,203753,202940,204768,204270,204270,204768,33
34,test,1,con,1,m,Mon Feb 03 2025 13:48:04 GMT-0600 (Central Standard Time),212095.59999999963,napkin,800,I,m,m,None,560,345.0,215.0,105,1,1895.5,210200.09999999963,8026,napkin,AF,B,206318,206318,204772,205586,204774,206668,206103,206103,206668,34
35,test,1,con,1,m,Mon Feb 03 2025 13:48:04 GMT-0600 (Central Standard Time),214278.5,window,1100,I,m,m,None,545,346.0,199.0,124,1,2179.0999999996275,212099.40000000037,8026,window,AF,B,208501,208501,206671,207785,206673,208851,208302,208302,208850,35
35,test,1,con,0,z,Mon Feb 03 2025 13:48:04 GMT-0600 (Central Standard Time),216377.7000000002,brutal,1000,I,m,m,None,550,351.0,199.0,35,1,2095.2000000001863,214282.5,8026,brutal,AF,B,210584,210584,208855,209868,208856,210950,210384,210384,210950,36
36,test,1,inc,1,m,Mon Feb 03 2025 13:48:04 GMT-0600 (Central Standard Time),218527.0,love,1000,I,m,m,None,603,404.0,199.0,95,1,2145.4000000003725,216381.59999999963,8026,film,AF,B,212683,212683,210954,211967,210955,213099,212484,212484,213099,37
37,test,1,con,1,m,Mon Feb 03 2025 13:48:04 GMT-0600 (Central Standard Time),220859.7000000002,bell,1000,I,m,m,None,790,591.0,199.0,83,1,2328.9000000003725,218530.7999999998,8026,bell,AF,B,214832,214832,213103,214116,213104,215432,214633,214633,215432,38
38,test,1,con,1,z,Mon Feb 03 2025 13:48:04 GMT-0600 (Central Standard Time),223042.2999999998,brutal,1100,I,z,z,None,541,342.0,199.0,36,1,2178.7000000001863,220863.59999999963,8026,brutal,AF,B,217265,217265,215436,216549,215437,217614,217066,217066,217614,39
39,test,1,con,1,m,Mon Feb 03 2025 13:48:04 GMT-0600 (Central Standard Time),225208.5,window,1000,I,m,m,None,625,411.0,214.0,123,1,2161.7999999998137,223046.7000000002,8026,window,AF,B,219364,219364,217619,218632,217620,219781,219150,219150,219781,40
40,test,1,inc,1,m,Mon Feb 03 2025 13:48:04 GMT-0600 (Central Standard Time),227224.40000000037,kind,900,I,m,m,None,576,361.0,215.0,70,1,2012.300000000745,225212.09999999963,8026,step,AF,B,221430,221430,219784,220698,219786,221796,221215,221215,221796,41
41,test,1,inc,1,z,Mon Feb 03 2025 13:48:04 GMT-0600 (Central Standard Time),229473.7000000002,film,1100,I,z,z,None,599,400.0,199.0,56,1,2245.600000000559,227228.09999999963,8026,rage,AF,B,223630,223630,221800,222914,221802,224046,223430,223430,224046,42
42,test,1,inc,1,z,Mon Feb 03 2025 13:48:04 GMT-0600 (Central Standard Time),231589.59999999963,bell,1000,I,z,z,None,504,289.0,215.0,55,1,2112.0999999996275,229477.5,8026,rage,AF,B,225862,225862,224049,225144,224051,226162,225646,225647,226162,43
43,test,1,con,1,m,Mon Feb 03 2025 13:48:04 GMT-0600 (Central Standard Time),233822.2999999998,rock,1100,I,m,m,None,594,379.0,215.0,76,1,2229.0,231593.2999999998,8026,rock,AF,B,228011,228012,226165,227279,226167,228394,227796,227796,228394,44
44,test,1,inc,1,m,Mon Feb 03 2025 13:48:04 GMT-0600 (Central Standard Time),236088.40000000037,friend,1100,I,m,m,None,617,402.0,215.0,120,1,2262.2000000001863,233826.2000000002,8026,remote,AF,B,230244,230244,228398,229512,228400,230660,230028,230029,230660,45
45,test,1,inc,1,z,Mon Feb 03 2025 13:48:04 GMT-0600 (Central Standard Time),238220.90000000037,bell,1000,I,z,z,None,588,389.0,199.0,23,1,2129.0,236091.90000000037,8026,love,AF,B,232393,232394,230664,231678,230666,232793,232194,232194,232793,46
46,test,1,inc,1,z,Mon Feb 03 2025 13:48:04 GMT-0600 (Central Standard Time),240236.90000000037,rock,900,I,z,z,None,572,373.0,199.0,46,1,2011.9000000003725,238225.0,8026,hate,AF,B,234426,234426,232797,233710,232799,234809,234227,234227,234809,47
47,test,1,con,1,m,Mon Feb 03 2025 13:48:04 GMT-0600 (Central Standard Time),242236.40000000037,window,900,I,m,m,None,564,365.0,199.0,122,1,1995.7000000001863,240240.7000000002,8026,window,AF,B,236442,236442,234813,235726,234814,236808,236243,236243,236808,48
48,test,1,inc,1,m,Mon Feb 03 2025 13:48:04 GMT-0600 (Central Standard Time),244152.2000000002,rage,800,I,m,m,None,576,361.0,215.0,69,1,1912.0,242240.2000000002,8026,step,AF,B,238358,238358,236812,237626,236814,238724,238143,238143,238724,49
49,test,1,inc,1,z,Mon Feb 03 2025 13:48:04 GMT-0600 (Central Standard Time),246068.59999999963,step,800,I,z,z,None,571,372.0,199.0,45,1,1912.5999999996275,244156.0,8026,hate,AF,B,240259,240259,238728,239542,238729,240641,240059,240059,240641,50
50,test,1,inc,1,m,Mon Feb 03 2025 13:48:04 GMT-0600 (Central Standard Time),247984.59999999963,rage,800,I,m,m,None,568,369.0,199.0,93,1,1912.199999999255,246072.40000000037,8026,film,AF,B,242174,242174,240644,241458,240646,242557,241975,241975,242557,51
51,test,1,inc,1,z,Mon Feb 03 2025 13:48:04 GMT-0600 (Central Standard Time),249850.59999999963,jacket,800,I,z,z,None,523,308.0,215.0,29,1,1862.0999999996275,247988.5,8026,friend,AF,B,244106,244106,242561,243374,242562,244423,243891,243891,244423,52
52,test,1,inc,1,z,Mon Feb 03 2025 13:48:04 GMT-0600 (Central Standard Time),251783.5,rock,900,I,z,z,None,494,294.0,200.0,22,1,1929.4000000003725,249854.09999999963,8026,love,AF,B,246057,246057,244426,245340,244428,246356,245857,245857,246355,53
53,test,1,con,1,z,Mon Feb 03 2025 13:48:04 GMT-0600 (Central Standard Time),253616.2000000002,hate,900,I,z,z,None,385,170.0,215.0,42,1,1829.0,251787.2000000002,8026,hate,AF,B,248005,248005,246359,247273,246361,248188,247790,247790,248188,54
54,test,1,inc,1,m,Mon Feb 03 2025 13:48:04 GMT-0600 (Central Standard Time),255565.59999999963,kind,900,I,m,m,None,513,314.0,199.0,86,1,1945.5999999996275,253620.0,8026,bell,AF,B,249821,249821,248192,249106,248194,250138,249622,249622,250138,55
55,test,1,con,1,z,Mon Feb 03 2025 13:48:04 GMT-0600 (Central Standard Time),257664.7999999998,temper,1000,I,z,z,None,558,343.0,215.0,59,1,2095.2000000001863,255569.59999999963,8026,temper,AF,B,251887,251887,250142,251155,250143,252237,251672,251672,252237,56
56,test,1,con,1,z,Mon Feb 03 2025 13:48:04 GMT-0600 (Central Standard Time),259830.7000000002,kind,1100,I,z,z,None,518,304.0,214.0,12,1,2162.2000000001863,257668.5,8026,kind,AF,B,254087,254087,252241,253354,252242,254403,253872,253872,254403,57
57,test,1,con,1,z,Mon Feb 03 2025 13:48:04 GMT-0600 (Central Standard Time),261780.40000000037,kind,1000,I,z,z,None,406,207.0,199.0,11,1,1945.9000000003725,259834.5,8026,kind,AF,B,256136,256136,254407,255420,254408,256352,255937,255937,256352,58
58,test,1,con,1,z,Mon Feb 03 2025 13:48:04 GMT-0600 (Central Standard Time),263746.2000000002,friend,1000,I,z,z,None,416,217.0,199.0,27,1,1962.2000000001863,261784.0,8026,friend,AF,B,258085,258086,256356,257370,256357,258318,257886,257886,258318,59
59,test,1,con,1,z,Mon Feb 03 2025 13:48:04 GMT-0600 (Central Standard Time),265779.0999999996,love,1100,I,z,z,None,399,200.0,199.0,20,1,2029.0,263750.0999999996,8026,love,AF,B,260151,260151,258322,259436,258324,260351,259952,259952,260351,60
60,test,1,inc,1,m,Mon Feb 03 2025 13:48:04 GMT-0600 (Central Standard Time),267811.4000000004,hate,1100,I,m,m,None,398,199.0,199.0,72,1,2028.6000000005588,265782.7999999998,8026,step,AF,B,262184,262184,260355,261468,260356,262383,261985,261985,262383,61
61,test,1,inc,1,m,Mon Feb 03 2025 13:48:04 GMT-0600 (Central Standard Time),269944.4000000004,temper,1000,I,m,m,None,593,394.0,199.0,119,1,2129.100000000559,267815.2999999998,8026,remote,AF,B,264117,264117,262387,263401,262389,264516,263918,263918,264516,62
61,test,1,inc,0,z,Mon Feb 03 2025 13:48:04 GMT-0600 (Central Standard Time),271827.0999999996,jacket,800,I,m,m,None,532,317.0,215.0,61,1,1879.0999999996275,269948.0,8026,temper,AF,B,266066,266066,264520,265334,264522,266399,265851,265851,266399,63
62,test,1,con,1,z,Mon Feb 03 2025 13:48:04 GMT-0600 (Central Standard Time),273893.0,rage,1000,I,z,z,None,530,330.0,200.0,51,1,2062.0999999996275,271830.9000000004,8026,rage,AF,B,268133,268133,266403,267416,266404,268465,267933,267933,268465,64
63,test,1,con,1,m,Mon Feb 03 2025 13:48:04 GMT-0600 (Central Standard Time),275942.5999999996,remote,1000,I,m,m,None,511,312.0,199.0,115,1,2045.5,273897.0999999996,8026,remote,AF,B,270198,270198,268469,269482,268471,270515,269999,269999,270515,65
64,test,1,con,1,m,Mon Feb 03 2025 13:48:04 GMT-0600 (Central Standard Time),278025.4000000004,napkin,1000,I,m,m,None,532,325.0,207.0,107,1,2079.100000000559,275946.2999999998,8026,napkin,AF,B,272257,272257,270518,271532,270520,272597,272049,272049,272597,66
65,test,1,con,1,z,Mon Feb 03 2025 13:48:04 GMT-0600 (Central Standard Time),280174.5999999996,elated,1000,I,z,z,None,611,396.0,215.0,3,1,2145.399999999441,278029.2000000002,8026,elated,AF,B,274347,274347,272601,273614,272603,274747,274132,274132,274747,67
66,test,1,inc,1,m,Mon Feb 03 2025 13:48:04 GMT-0600 (Central Standard Time),282423.7999999998,hate,1100,I,m,m,None,601,402.0,199.0,80,1,2245.5,280178.2999999998,8026,rock,AF,B,276580,276580,274750,275864,274752,276996,276380,276380,276996,68
67,test,1,inc,1,z,Mon Feb 03 2025 13:48:04 GMT-0600 (Central Standard Time),284706.5,film,1100,I,z,z,None,640,426.0,214.0,24,1,2278.5999999996275,282427.9000000004,8026,love,AF,B,278845,278845,277000,278113,277001,279279,278631,278631,279279,69
68,test,1,inc,1,z,Mon Feb 03 2025 13:48:04 GMT-0600 (Central Standard Time),286739.0,rock,900,I,z,z,None,598,399.0,199.0,54,1,2029.0,284710.0,8026,rage,AF,B,280911,280911,279282,280196,279283,281311,280712,280712,281311,70
69,test,1,con,1,z,Mon Feb 03 2025 13:48:04 GMT-0600 (Central Standard Time),288773.5,temper,800,I,z,z,None,697,482.0,215.0,57,1,2030.5999999996275,286742.9000000004,8026,temper,AF,B,282861,282861,281315,282128,281316,283346,282646,282646,283346,71
70,test,1,con,1,m,Mon Feb 03 2025 13:48:04 GMT-0600 (Central Standard Time),290854.4000000004,jacket,900,I,m,m,None,645,446.0,199.0,98,1,2077.0,288777.4000000004,8026,jacket,AF,B,284977,284977,283349,284261,283351,285426,284778,284778,285426,72
71,test,1,inc,1,z,Mon Feb 03 2025 13:48:04 GMT-0600 (Central Standard Time),292870.5999999996,step,800,I,z,z,None,678,463.0,215.0,21,1,2012.5,290858.0999999996,8026,love,AF,B,286976,286976,285430,286244,285432,287443,286761,286761,287443,73
72,test,1,inc,1,z,Mon Feb 03 2025 13:48:04 GMT-0600 (Central Standard Time),294821.0,jacket,800,I,z,z,None,614,399.0,215.0,37,1,1946.7999999998137,292874.2000000002,8026,brutal,AF,B,288992,288992,287446,288260,287448,289393,288777,288777,289393,74
73,test,1,con,1,z,Mon Feb 03 2025 13:48:04 GMT-0600 (Central Standard Time),297052.5999999996,rage,1100,I,z,z,None,596,381.0,215.0,52,1,2228.0999999996275,294824.5,8026,rage,AF,B,291242,291242,289397,290509,289398,291625,291026,291026,291625,75
74,test,1,con,1,m,Mon Feb 03 2025 13:48:04 GMT-0600 (Central Standard Time),299168.5999999996,jacket,1000,I,m,m,None,568,353.0,215.0,99,1,2112.0,297056.5999999996,8026,jacket,AF,B,293374,293374,291629,292642,291630,293741,293159,293159,293741,76
75,test,1,con,1,m,Mon Feb 03 2025 13:48:04 GMT-0600 (Central Standard Time),301153.0,window,800,I,m,m,None,650,435.0,215.0,121,1,1980.7999999998137,299172.2000000002,8026,window,AF,B,295290,295290,293744,294558,293746,295725,295075,295075,295725,77
76,test,1,con,1,m,Mon Feb 03 2025 13:48:04 GMT-0600 (Central Standard Time),303350.5999999996,bell,900,I,m,m,None,753,538.0,215.0,82,1,2193.7999999998137,301156.7999999998,8026,bell,AF,B,297373,297373,295729,296641,295730,297923,297158,297158,297923,78
77,test,1,inc,1,m,Mon Feb 03 2025 13:48:04 GMT-0600 (Central Standard Time),305366.5999999996,kind,900,I,m,m,None,578,379.0,199.0,78,1,2012.0999999996275,303354.5,8026,rock,AF,B,299556,299556,297927,298840,297928,299939,299357,299357,299939,79
78,test,1,inc,1,m,Mon Feb 03 2025 13:48:04 GMT-0600 (Central Standard Time),307465.9000000004,brutal,900,I,m,m,None,658,459.0,199.0,126,1,2095.4000000003725,305370.5,8026,window,AF,B,301572,301572,299943,300856,299944,302038,301373,301373,302038,80
79,test,1,con,1,m,Mon Feb 03 2025 13:48:04 GMT-0600 (Central Standard Time),309581.9000000004,film,900,I,m,m,None,678,479.0,199.0,90,1,2112.300000000745,307469.5999999996,8026,film,AF,B,303671,303671,302042,302955,302043,304154,303472,303472,304154,81
80,test,1,con,1,z,Mon Feb 03 2025 13:48:04 GMT-0600 (Central Standard Time),311631.2999999998,rage,900,I,z,z,None,611,412.0,199.0,50,1,2045.7000000001863,309585.5999999996,8026,rage,AF,B,305787,305787,304158,305071,304159,306203,305588,305588,306203,82
81,test,1,inc,1,z,Mon Feb 03 2025 13:48:04 GMT-0600 (Central Standard Time),313897.5,film,1100,I,z,z,None,617,418.0,199.0,16,1,2262.5,311635.0,8026,kind,AF,B,308037,308037,306207,307321,306208,308470,307837,307837,308470,83
82,test,1,inc,1,m,Mon Feb 03 2025 13:48:04 GMT-0600 (Central Standard Time),315813.5,elated,800,I,m,m,None,579,364.0,215.0,101,1,1912.0999999996275,313901.4000000004,8026,jacket,AF,B,310019,310019,308473,309287,308475,310386,309804,309804,310385,84
83,test,1,con,1,z,Mon Feb 03 2025 13:48:04 GMT-0600 (Central Standard Time),318046.2000000002,hate,1100,I,z,z,None,588,389.0,199.0,44,1,2229.0,315817.2000000002,8026,hate,AF,B,312218,312218,310389,311503,310391,312618,312019,312019,312618,85
84,test,1,inc,1,m,Mon Feb 03 2025 13:48:04 GMT-0600 (Central Standard Time),320145.5,brutal,900,I,m,m,None,651,452.0,199.0,110,1,2095.2999999998137,318050.2000000002,8026,napkin,AF,B,314251,314251,312622,313535,312624,314718,314052,314052,314717,86
85,test,1,inc,1,m,Mon Feb 03 2025 13:48:04 GMT-0600 (Central Standard Time),322294.5,temper,1000,I,m,m,None,611,412.0,199.0,111,1,2145.2999999998137,320149.2000000002,8026,napkin,AF,B,316450,316450,314721,315734,314723,316867,316251,316251,316867,87
86,test,1,con,1,z,Mon Feb 03 2025 13:48:04 GMT-0600 (Central Standard Time),324194.0999999996,brutal,800,I,z,z,None,549,334.0,215.0,33,1,1896.0999999996275,322298.0,8026,brutal,AF,B,318416,318416,316870,317684,316871,318766,318201,318201,318766,88
87,test,1,con,1,z,Mon Feb 03 2025 13:48:04 GMT-0600 (Central Standard Time),326193.4000000004,elated,900,I,z,z,None,559,360.0,199.0,2,1,1995.5,324197.9000000004,8026,elated,AF,B,320399,320399,318770,319683,318772,320765,320200,320200,320765,89
88,test,1,inc,1,m,Mon Feb 03 2025 13:48:04 GMT-0600 (Central Standard Time),328392.7999999998,hate,1100,I,m,m,None,559,344.0,215.0,96,1,2195.5999999996275,326197.2000000002,8026,film,AF,B,322615,322615,320769,321883,320771,322965,322400,322400,322965,90
89,test,1,con,1,z,Mon Feb 03 2025 13:48:04 GMT-0600 (Central Standard Time),330375.4000000004,kind,900,I,z,z,None,544,345.0,199.0,10,1,1978.800000000745,328396.5999999996,8026,kind,AF,B,324598,324598,322969,323882,322970,324947,324399,324399,324947,91
90,test,1,inc,1,z,Mon Feb 03 2025 13:48:04 GMT-0600 (Central Standard Time),332474.7000000002,remote,1000,I,z,z,None,557,342.0,215.0,31,1,2095.5,330379.2000000002,8026,friend,AF,B,326697,326697,324951,325965,324953,327047,326482,326482,327047,92
91,test,1,con,1,m,Mon Feb 03 2025 13:48:04 GMT-0600 (Central Standard Time),334657.5,step,1100,I,m,m,None,542,343.0,199.0,68,1,2179.2000000001863,332478.2999999998,8026,step,AF,B,328880,328880,327050,328164,327052,329230,328681,328681,329230,93
92,test,1,con,1,m,Mon Feb 03 2025 13:48:04 GMT-0600 (Central Standard Time),336956.7000000002,bell,1100,I,m,m,None,655,440.0,215.0,84,1,2295.2999999998137,334661.4000000004,8026,bell,AF,B,331079,331079,329233,330347,329235,331529,330864,330864,331529,94
93,test,1,inc,1,z,Mon Feb 03 2025 13:48:04 GMT-0600 (Central Standard Time),339056.0,remote,1000,I,z,z,None,552,353.0,199.0,63,1,2095.7000000001863,336960.2999999998,8026,temper,AF,B,333262,333262,331532,332546,331534,333628,333063,333063,333628,95
94,test,1,inc,1,m,Mon Feb 03 2025 13:48:04 GMT-0600 (Central Standard Time),340988.7999999998,rage,800,I,m,m,None,596,396.0,200.0,77,1,1928.8999999994412,339059.9000000004,8026,rock,AF,B,335162,335162,333632,334446,333633,335561,334962,334962,335561,96
95,test,1,con,1,z,Mon Feb 03 2025 13:48:04 GMT-0600 (Central Standard Time),343254.7000000002,hate,1000,I,z,z,None,728,529.0,199.0,43,1,2261.7999999998137,340992.9000000004,8026,hate,AF,B,337294,337294,335565,336578,335566,337827,337095,337095,337827,97
96,test,1,inc,1,z,Mon Feb 03 2025 13:48:04 GMT-0600 (Central Standard Time),345354.2000000002,remote,1000,I,z,z,None,558,359.0,199.0,7,1,2095.7000000001863,343258.5,8026,elated,AF,B,339560,339560,337831,338844,337832,339926,339361,339361,339926,98
97,test,1,inc,1,m,Mon Feb 03 2025 13:48:04 GMT-0600 (Central Standard Time),347536.7000000002,friend,1100,I,m,m,None,541,327.0,214.0,128,1,2178.9000000003725,345357.7999999998,8026,window,AF,B,341776,341776,339930,341044,339931,342109,341561,341561,342109,99
98,test,1,inc,1,z,Mon Feb 03 2025 13:48:04 GMT-0600 (Central Standard Time),349619.5,bell,1000,I,z,z,None,540,341.0,199.0,47,1,2079.0999999996275,347540.4000000004,8026,hate,AF,B,343842,343842,342112,343126,342114,344192,343643,343643,344192,100
99,test,1,con,1,m,Mon Feb 03 2025 13:48:04 GMT-0600 (Central Standard Time),351518.9000000004,remote,800,I,m,m,None,551,337.0,214.0,113,1,1895.5,349623.4000000004,8026,remote,AF,B,345741,345741,344195,345009,344197,346091,345527,345527,346091,101
100,test,1,inc,1,m,Mon Feb 03 2025 13:48:04 GMT-0600 (Central Standard Time),353584.7999999998,temper,1000,I,m,m,None,525,326.0,199.0,127,1,2062.2000000001863,351522.5999999996,8026,window,AF,B,347824,347824,346095,347108,346096,348157,347625,347625,348157,102
101,test,1,con,1,z,Mon Feb 03 2025 13:48:04 GMT-0600 (Central Standard Time),355667.5,temper,900,I,z,z,None,640,441.0,199.0,58,1,2079.0,353588.5,8026,temper,AF,B,349790,349790,348161,349074,348162,350240,349591,349591,350240,103
102,test,1,con,1,m,Mon Feb 03 2025 13:48:04 GMT-0600 (Central Standard Time),357616.7999999998,rock,800,I,m,m,None,601,386.0,215.0,73,1,1945.5,355671.2999999998,8026,rock,AF,B,351789,351789,350243,351058,350245,352189,351574,351574,352189,104
103,test,1,con,1,m,Mon Feb 03 2025 13:48:04 GMT-0600 (Central Standard Time),359849.4000000004,remote,1100,I,m,m,None,583,384.0,199.0,116,1,2228.9000000003725,357620.5,8026,remote,AF,B,354022,354022,352193,353306,352194,354421,353823,353823,354421,105
104,test,1,con,1,z,Mon Feb 03 2025 13:48:04 GMT-0600 (Central Standard Time),361715.4000000004,hate,800,I,z,z,None,531,316.0,215.0,41,1,1861.300000000745,359854.0999999996,8026,hate,AF,B,355971,355971,354426,355240,354428,356287,355756,355756,356287,106
105,test,1,inc,1,z,Mon Feb 03 2025 13:48:04 GMT-0600 (Central Standard Time),363881.7000000002,window,1100,I,z,z,None,524,309.0,215.0,40,1,2162.7999999998137,361718.9000000004,8026,brutal,AF,B,358138,358138,356291,357405,356292,358454,357922,357922,358454,107
106,test,1,con,1,m,Mon Feb 03 2025 13:48:04 GMT-0600 (Central Standard Time),365798.7999999998,napkin,900,I,m,m,None,471,256.0,215.0,106,1,1913.0999999996275,363885.7000000002,8026,napkin,AF,B,360103,360103,358458,359371,358459,360371,359888,359888,360371,108
107,test,1,inc,1,z,Mon Feb 03 2025 13:48:04 GMT-0600 (Central Standard Time),367747.0999999996,napkin,900,I,z,z,None,515,316.0,199.0,30,1,1944.0,365803.0999999996,8026,friend,AF,B,362003,362003,360375,361287,360377,362319,361804,361804,362319,109
108,test,1,inc,1,m,Mon Feb 03 2025 13:48:04 GMT-0600 (Central Standard Time),369929.5999999996,friend,1100,I,m,m,None,533,334.0,199.0,104,1,2178.5999999996275,367751.0,8026,jacket,AF,B,364152,364152,362323,363436,362325,364502,363953,363953,364502,110
109,test,1,inc,1,z,Mon Feb 03 2025 13:48:04 GMT-0600 (Central Standard Time),371906.9000000004,napkin,900,I,z,z,None,543,344.0,199.0,6,1,1973.4000000003725,369933.5,8026,elated,AF,B,366135,366135,364506,365419,364507,366479,365936,365936,366479,111
110,test,1,inc,1,z,Mon Feb 03 2025 13:48:04 GMT-0600 (Central Standard Time),374078.5,bell,1000,I,z,z,None,627,412.0,215.0,15,1,2167.5,371911.0,8026,kind,AF,B,368234,368234,366483,367503,366484,368651,368019,368019,368651,112
111,test,1,inc,1,z,Mon Feb 03 2025 13:48:04 GMT-0600 (Central Standard Time),376027.7999999998,napkin,900,I,z,z,None,506,291.0,215.0,38,1,1945.5,374082.2999999998,8026,brutal,AF,B,370300,370300,368654,369568,368656,370600,370085,370085,370600,113
112,test,1,inc,1,z,Mon Feb 03 2025 13:48:04 GMT-0600 (Central Standard Time),378093.7999999998,napkin,900,I,z,z,None,620,421.0,199.0,62,1,2062.2000000001863,376031.5999999996,8026,temper,AF,B,372233,372233,370604,371517,370605,372666,372034,372034,372666,114
113,test,1,inc,1,z,Mon Feb 03 2025 13:48:04 GMT-0600 (Central Standard Time),380026.5999999996,step,800,I,z,z,None,591,392.0,199.0,13,1,1929.0999999996275,378097.5,8026,kind,AF,B,374199,374199,372670,373483,372671,374599,374000,374000,374599,115
114,test,1,inc,1,m,Mon Feb 03 2025 13:48:04 GMT-0600 (Central Standard Time),382142.5999999996,love,1000,I,m,m,None,570,355.0,215.0,71,1,2112.0,380030.5999999996,8026,step,AF,B,376348,376348,374603,375616,374604,376715,376133,376133,376715,116
115,test,1,con,1,z,Mon Feb 03 2025 13:48:04 GMT-0600 (Central Standard Time),383892.0999999996,love,800,I,z,z,None,405,190.0,215.0,17,1,1745.699999999255,382146.4000000004,8026,love,AF,B,378264,378265,376718,377532,376720,378464,378049,378049,378464,117
116,test,1,con,1,m,Mon Feb 03 2025 13:48:04 GMT-0600 (Central Standard Time),385941.5999999996,remote,900,I,m,m,None,605,406.0,199.0,114,1,2045.8999999994412,383895.7000000002,8026,remote,AF,B,380097,380097,378468,379382,378469,380514,379898,379898,380514,118
117,test,1,inc,1,m,Mon Feb 03 2025 13:48:04 GMT-0600 (Central Standard Time),388024.0,love,1000,I,m,m,None,543,328.0,215.0,87,1,2078.7000000001863,385945.2999999998,8026,bell,AF,B,382263,382263,380517,381531,380519,382596,382048,382048,382596,119
118,test,1,inc,1,z,Mon Feb 03 2025 13:48:04 GMT-0600 (Central Standard Time),390190.0,remote,1000,I,z,z,None,621,422.0,199.0,39,1,2162.2000000001863,388027.7999999998,8026,brutal,AF,B,384329,384329,382600,383613,382601,384762,384130,384130,384762,120
119,test,1,con,1,z,Mon Feb 03 2025 13:48:04 GMT-0600 (Central Standard Time),392356.0,elated,1100,I,z,z,None,530,330.0,200.0,4,1,2162.2000000001863,390193.7999999998,8026,elated,AF,B,386596,386596,384766,385879,384767,386928,386396,386396,386928,121
120,test,1,con,1,z,Mon Feb 03 2025 13:48:04 GMT-0600 (Central Standard Time),394522.2000000002,temper,1100,I,z,z,None,516,317.0,199.0,60,1,2162.600000000559,392359.5999999996,8026,temper,AF,B,388761,388761,386932,388045,386933,389094,388562,388562,389094,122
121,test,1,inc,1,z,Mon Feb 03 2025 13:48:04 GMT-0600 (Central Standard Time),396688.0999999996,window,1100,I,z,z,None,519,320.0,199.0,64,1,2162.0999999996275,394526.0,8026,temper,AF,B,390927,390927,389098,390211,389099,391260,390728,390728,391260,123
122,test,1,inc,1,m,Mon Feb 03 2025 13:48:04 GMT-0600 (Central Standard Time),398820.9000000004,temper,1000,I,m,m,None,588,389.0,199.0,103,1,2129.2000000001863,396691.7000000002,8026,jacket,AF,B,392993,392993,391264,392277,391265,393393,392794,392794,393393,124
123,test,1,con,1,m,Mon Feb 03 2025 13:48:04 GMT-0600 (Central Standard Time),400720.0,bell,800,I,m,m,None,550,336.0,214.0,81,1,1895.5,398824.5,8026,bell,AF,B,394942,394943,393397,394210,393398,395292,394728,394728,395292,125
124,test,1,inc,1,z,Mon Feb 03 2025 13:48:04 GMT-0600 (Central Standard Time),402586.2000000002,step,800,I,z,z,None,516,316.0,200.0,53,1,1862.1000000005588,400724.0999999996,8026,rage,AF,B,396826,396826,395296,396109,395298,397158,396626,396626,397158,126
125,test,1,con,1,m,Mon Feb 03 2025 13:48:04 GMT-0600 (Central Standard Time),404818.7999999998,jacket,1100,I,m,m,None,591,392.0,199.0,100,1,2228.899999999441,402589.9000000004,8026,jacket,AF,B,398991,398991,397162,398276,397163,399391,398792,398792,399391,127
126,test,1,con,1,m,Mon Feb 03 2025 13:48:04 GMT-0600 (Central Standard Time),407001.5,napkin,1100,I,m,m,None,534,335.0,199.0,108,1,2179.0,404822.5,8026,napkin,AF,B,401224,401224,399395,400508,399396,401574,401025,401025,401573,128
