acc_sum,block,block_c,change,condition,correct,correct_response,datetime,endtime,face,project,response,response_time,row_sel,session_number,start_end,starttime,subject_id,task,task_vers,trial
0,prac,1,,1-Back,,,Tue Apr 22 2025 09:29:20 GMT-0500 (Central Daylight Time),,097_m_f_n_a.png,I,space,4411,1,2,,,8031,NNB,B,0
1,prac,1,0.0,1-Back,1,m,Tue Apr 22 2025 09:29:20 GMT-0500 (Central Daylight Time),92139.90000000596,152_y_f_n_a.png,I,m,1475,2,2,2353.5,89786.40000000596,8031,NNB,B,1
2,prac,1,1.0,1-Back,1,z,Tue Apr 22 2025 09:29:20 GMT-0500 (Central Daylight Time),93672.79999999702,152_y_f_n_a.png,I,z,745,3,2,1520.699999988079,92152.10000000894,8031,NNB,B,2
3,prac,1,0.0,1-Back,1,m,Tue Apr 22 2025 09:29:20 GMT-0500 (Central Daylight Time),95455.40000000596,176_o_m_n_a.png,I,m,898,4,2,1768.7999999970198,93686.60000000894,8031,NNB,B,3
3,prac,1,0.0,1-Back,0,m,Tue Apr 22 2025 09:29:20 GMT-0500 (Central Daylight Time),97854.70000000298,126_m_m_n_a.png,I,z,1614,5,2,2386.7999999970198,95467.90000000596,8031,NNB,B,4
4,prac,1,1.0,1-Back,1,z,Tue Apr 22 2025 09:29:20 GMT-0500 (Central Daylight Time),99822.5,126_m_m_n_a.png,I,z,1199,6,2,1956.0,97866.5,8031,NNB,B,5
5,prac,1,0.0,1-Back,1,m,Tue Apr 22 2025 09:29:20 GMT-0500 (Central Daylight Time),101470.10000000894,086_o_f_n_a.png,I,m,852,7,2,1632.6000000089407,99837.5,8031,NNB,B,6
6,prac,1,0.0,1-Back,1,m,Tue Apr 22 2025 09:29:20 GMT-0500 (Central Daylight Time),103269.60000000894,178_m_m_n_a.png,I,m,923,8,2,1788.2000000029802,101481.40000000596,8031,NNB,B,7
7,prac,1,0.0,1-Back,1,m,Tue Apr 22 2025 09:29:20 GMT-0500 (Central Daylight Time),105168.90000000596,097_m_f_n_a.png,I,m,1120,9,2,1887.2000000029802,103281.70000000298,8031,NNB,B,8
8,prac,1,1.0,1-Back,1,z,Tue Apr 22 2025 09:29:20 GMT-0500 (Central Daylight Time),106635.29999999702,097_m_f_n_a.png,I,z,675,10,2,1453.0,105182.29999999702,8031,NNB,B,9
9,prac,1,0.0,1-Back,1,m,Tue Apr 22 2025 09:29:20 GMT-0500 (Central Daylight Time),108151.70000000298,176_o_m_n_a.png,I,m,731,11,2,1505.5,106646.20000000298,8031,NNB,B,10
10,prac,1,0.0,1-Back,1,m,Tue Apr 22 2025 09:29:20 GMT-0500 (Central Daylight Time),109901.0,173_y_f_n_a.png,I,m,875,12,2,1735.2000000029802,108165.79999999702,8031,NNB,B,11
0,test,1,0.0,1-Back,,,Tue Apr 22 2025 09:29:20 GMT-0500 (Central Daylight Time),109901.0,152_y_f_n_a.png,I,space,5646,1,2,1735.2000000029802,108165.79999999702,8031,NNB,B,0
1,test,1,0.0,1-Back,1,m,Tue Apr 22 2025 09:29:20 GMT-0500 (Central Daylight Time),124596.40000000596,029_m_f_n_a.png,I,m,1122,2,2,2137.6000000089407,122458.79999999702,8031,NNB,B,1
2,test,1,0.0,1-Back,1,m,Tue Apr 22 2025 09:29:20 GMT-0500 (Central Daylight Time),126295.79999999702,173_y_f_n_a.png,I,m,677,3,2,1687.7999999970198,124608.0,8031,NNB,B,2
3,test,1,1.0,1-Back,1,z,Tue Apr 22 2025 09:29:20 GMT-0500 (Central Daylight Time),128062.0,173_y_f_n_a.png,I,z,737,4,2,1756.8999999910593,126305.10000000894,8031,NNB,B,3
4,test,1,0.0,1-Back,1,m,Tue Apr 22 2025 09:29:20 GMT-0500 (Central Daylight Time),129611.60000000894,029_m_f_n_a.png,I,m,523,5,2,1538.0,128073.60000000894,8031,NNB,B,4
5,test,1,0.0,1-Back,1,m,Tue Apr 22 2025 09:29:20 GMT-0500 (Central Daylight Time),131644.0,176_o_m_n_a.png,I,m,1006,6,2,2023.2000000029802,129620.79999999702,8031,NNB,B,5
6,test,1,1.0,1-Back,1,z,Tue Apr 22 2025 09:29:20 GMT-0500 (Central Daylight Time),133360.10000000894,176_o_m_n_a.png,I,z,685,7,2,1706.300000011921,131653.79999999702,8031,NNB,B,6
7,test,1,0.0,1-Back,1,m,Tue Apr 22 2025 09:29:20 GMT-0500 (Central Daylight Time),135093.0,126_m_m_n_a.png,I,m,705,8,2,1722.0,133371.0,8031,NNB,B,7
8,test,1,0.0,1-Back,1,m,Tue Apr 22 2025 09:29:20 GMT-0500 (Central Daylight Time),137159.10000000894,086_o_f_n_a.png,I,m,1036,9,2,2055.300000011921,135103.79999999702,8031,NNB,B,8
9,test,1,0.0,1-Back,1,m,Tue Apr 22 2025 09:29:20 GMT-0500 (Central Daylight Time),138825.10000000894,126_m_m_n_a.png,I,m,634,10,2,1654.800000011921,137170.29999999702,8031,NNB,B,9
10,test,1,0.0,1-Back,1,m,Tue Apr 22 2025 09:29:20 GMT-0500 (Central Daylight Time),140441.20000000298,153_y_m_n_a.png,I,m,584,11,2,1604.5999999940395,138836.60000000894,8031,NNB,B,10
11,test,1,1.0,1-Back,1,z,Tue Apr 22 2025 09:29:20 GMT-0500 (Central Daylight Time),142257.29999999702,153_y_m_n_a.png,I,z,792,12,2,1805.0999999940395,140452.20000000298,8031,NNB,B,11
12,test,1,0.0,1-Back,1,m,Tue Apr 22 2025 09:29:20 GMT-0500 (Central Daylight Time),143873.60000000894,110_o_f_n_a.png,I,m,592,13,2,1605.5,142268.10000000894,8031,NNB,B,12
13,test,1,1.0,1-Back,1,z,Tue Apr 22 2025 09:29:20 GMT-0500 (Central Daylight Time),145623.0,110_o_f_n_a.png,I,z,728,14,2,1738.3999999910593,143884.60000000894,8031,NNB,B,13
14,test,1,0.0,1-Back,1,m,Tue Apr 22 2025 09:29:20 GMT-0500 (Central Daylight Time),147139.10000000894,013_y_m_n_a.png,I,m,490,15,2,1507.1000000089407,145632.0,8031,NNB,B,14
15,test,1,0.0,1-Back,1,m,Tue Apr 22 2025 09:29:20 GMT-0500 (Central Daylight Time),149138.60000000894,097_m_f_n_a.png,I,m,966,16,2,1988.4000000059605,147150.20000000298,8031,NNB,B,15
16,test,1,0.0,1-Back,1,m,Tue Apr 22 2025 09:29:20 GMT-0500 (Central Daylight Time),150688.10000000894,065_o_m_n_a.png,I,m,527,17,2,1539.1000000089407,149149.0,8031,NNB,B,16
17,test,1,0.0,1-Back,1,m,Tue Apr 22 2025 09:29:20 GMT-0500 (Central Daylight Time),152437.40000000596,097_m_f_n_a.png,I,m,721,18,2,1736.7999999970198,150700.60000000894,8031,NNB,B,17
0,test,2,0.0,1-Back,,,Tue Apr 22 2025 09:29:20 GMT-0500 (Central Daylight Time),152437.40000000596,126_m_m_n_a.png,I,space,1220,1,2,1736.7999999970198,150700.60000000894,8031,NNB,B,0
1,test,2,0.0,1-Back,1,m,Tue Apr 22 2025 09:29:20 GMT-0500 (Central Daylight Time),157386.0,029_m_f_n_a.png,I,m,667,2,2,1687.8999999910593,155698.10000000894,8031,NNB,B,1
2,test,2,1.0,1-Back,1,z,Tue Apr 22 2025 09:29:20 GMT-0500 (Central Daylight Time),159118.79999999702,029_m_f_n_a.png,I,z,703,3,2,1721.8999999910593,157396.90000000596,8031,NNB,B,2
3,test,2,0.0,1-Back,1,m,Tue Apr 22 2025 09:29:20 GMT-0500 (Central Daylight Time),160735.0,126_m_m_n_a.png,I,m,586,4,2,1606.8999999910593,159128.10000000894,8031,NNB,B,3
4,test,2,0.0,1-Back,1,m,Tue Apr 22 2025 09:29:20 GMT-0500 (Central Daylight Time),162367.70000000298,153_y_m_n_a.png,I,m,602,5,2,1623.5,160744.20000000298,8031,NNB,B,4
5,test,2,0.0,1-Back,1,m,Tue Apr 22 2025 09:29:20 GMT-0500 (Central Daylight Time),163983.90000000596,152_y_f_n_a.png,I,m,594,6,2,1605.4000000059605,162378.5,8031,NNB,B,5
6,test,2,1.0,1-Back,1,z,Tue Apr 22 2025 09:29:20 GMT-0500 (Central Daylight Time),165550.20000000298,152_y_f_n_a.png,I,z,545,7,2,1552.2999999970198,163997.90000000596,8031,NNB,B,6
7,test,2,0.0,1-Back,1,m,Tue Apr 22 2025 09:29:20 GMT-0500 (Central Daylight Time),167116.20000000298,153_y_m_n_a.png,I,m,547,8,2,1555.7000000029802,165560.5,8031,NNB,B,7
8,test,2,0.0,1-Back,1,m,Tue Apr 22 2025 09:29:20 GMT-0500 (Central Daylight Time),168782.20000000298,110_o_f_n_a.png,I,m,637,9,2,1656.7999999970198,167125.40000000596,8031,NNB,B,8
9,test,2,0.0,1-Back,1,m,Tue Apr 22 2025 09:29:20 GMT-0500 (Central Daylight Time),170526.29999999702,178_m_m_n_a.png,I,m,727,10,2,1734.0999999940395,168792.20000000298,8031,NNB,B,9
10,test,2,1.0,1-Back,1,z,Tue Apr 22 2025 09:29:20 GMT-0500 (Central Daylight Time),172281.29999999702,178_m_m_n_a.png,I,z,717,11,2,1740.0,170541.29999999702,8031,NNB,B,10
11,test,2,0.0,1-Back,1,m,Tue Apr 22 2025 09:29:20 GMT-0500 (Central Daylight Time),174414.0,110_o_f_n_a.png,I,m,1104,12,2,2123.0999999940395,172290.90000000596,8031,NNB,B,11
12,test,2,0.0,1-Back,1,m,Tue Apr 22 2025 09:29:20 GMT-0500 (Central Daylight Time),176330.0,086_o_f_n_a.png,I,m,883,13,2,1904.3999999910593,174425.60000000894,8031,NNB,B,12
13,test,2,0.0,1-Back,1,m,Tue Apr 22 2025 09:29:20 GMT-0500 (Central Daylight Time),177962.60000000894,176_o_m_n_a.png,I,m,615,14,2,1621.6000000089407,176341.0,8031,NNB,B,13
14,test,2,0.0,1-Back,1,m,Tue Apr 22 2025 09:29:20 GMT-0500 (Central Daylight Time),179612.10000000894,065_o_m_n_a.png,I,m,631,15,2,1638.800000011921,177973.29999999702,8031,NNB,B,14
15,test,2,1.0,1-Back,1,z,Tue Apr 22 2025 09:29:20 GMT-0500 (Central Daylight Time),181228.5,065_o_m_n_a.png,I,z,589,16,2,1605.3999999910593,179623.10000000894,8031,NNB,B,15
16,test,2,0.0,1-Back,1,m,Tue Apr 22 2025 09:29:20 GMT-0500 (Central Daylight Time),182794.5,013_y_m_n_a.png,I,m,549,17,2,1554.8999999910593,181239.60000000894,8031,NNB,B,16
17,test,2,1.0,1-Back,1,z,Tue Apr 22 2025 09:29:20 GMT-0500 (Central Daylight Time),184510.79999999702,013_y_m_n_a.png,I,z,687,18,2,1705.5999999940395,182805.20000000298,8031,NNB,B,17
0,test,3,1.0,1-Back,,,Tue Apr 22 2025 09:29:20 GMT-0500 (Central Daylight Time),184510.79999999702,173_y_f_n_a.png,I,space,1106,1,2,1705.5999999940395,182805.20000000298,8031,NNB,B,0
1,test,3,0.0,1-Back,1,m,Tue Apr 22 2025 09:29:20 GMT-0500 (Central Daylight Time),189726.0,065_o_m_n_a.png,I,m,979,1,2,1989.0999999940395,187736.90000000596,8031,NNB,B,1
2,test,3,1.0,1-Back,1,z,Tue Apr 22 2025 09:29:20 GMT-0500 (Central Daylight Time),191725.0,065_o_m_n_a.png,I,z,971,1,2,1987.5999999940395,189737.40000000596,8031,NNB,B,2
3,test,3,0.0,1-Back,1,m,Tue Apr 22 2025 09:29:20 GMT-0500 (Central Daylight Time),193292.29999999702,097_m_f_n_a.png,I,m,548,1,2,1556.8999999910593,191735.40000000596,8031,NNB,B,3
4,test,3,1.0,1-Back,1,z,Tue Apr 22 2025 09:29:20 GMT-0500 (Central Daylight Time),194957.5,097_m_f_n_a.png,I,z,638,1,2,1652.8999999910593,193304.60000000894,8031,NNB,B,4
5,test,3,0.0,1-Back,1,m,Tue Apr 22 2025 09:29:20 GMT-0500 (Central Daylight Time),196557.10000000894,110_o_f_n_a.png,I,m,572,1,2,1586.9000000059605,194970.20000000298,8031,NNB,B,5
6,test,3,0.0,1-Back,1,m,Tue Apr 22 2025 09:29:20 GMT-0500 (Central Daylight Time),198106.70000000298,153_y_m_n_a.png,I,m,524,1,2,1538.9000000059605,196567.79999999702,8031,NNB,B,6
7,test,3,0.0,1-Back,1,m,Tue Apr 22 2025 09:29:20 GMT-0500 (Central Daylight Time),200172.70000000298,110_o_f_n_a.png,I,m,1038,1,2,2054.2999999970198,198118.40000000596,8031,NNB,B,7
8,test,3,0.0,1-Back,1,m,Tue Apr 22 2025 09:29:20 GMT-0500 (Central Daylight Time),202005.20000000298,013_y_m_n_a.png,I,m,805,1,2,1821.2000000029802,200184.0,8031,NNB,B,8
9,test,3,1.0,1-Back,1,z,Tue Apr 22 2025 09:29:20 GMT-0500 (Central Daylight Time),203571.29999999702,013_y_m_n_a.png,I,z,540,1,2,1556.7999999970198,202014.5,8031,NNB,B,9
10,test,3,0.0,1-Back,1,m,Tue Apr 22 2025 09:29:20 GMT-0500 (Central Daylight Time),205237.5,029_m_f_n_a.png,I,m,647,1,2,1654.0999999940395,203583.40000000596,8031,NNB,B,10
11,test,3,0.0,1-Back,1,m,Tue Apr 22 2025 09:29:20 GMT-0500 (Central Daylight Time),206787.10000000894,152_y_f_n_a.png,I,m,524,1,2,1539.2000000029802,205247.90000000596,8031,NNB,B,11
12,test,3,1.0,1-Back,1,z,Tue Apr 22 2025 09:29:20 GMT-0500 (Central Daylight Time),208486.70000000298,152_y_f_n_a.png,I,z,670,1,2,1688.7999999970198,206797.90000000596,8031,NNB,B,12
13,test,3,0.0,1-Back,1,m,Tue Apr 22 2025 09:29:20 GMT-0500 (Central Daylight Time),210169.40000000596,029_m_f_n_a.png,I,m,658,1,2,1669.6000000089407,208499.79999999702,8031,NNB,B,13
14,test,3,0.0,1-Back,1,m,Tue Apr 22 2025 09:29:20 GMT-0500 (Central Daylight Time),211768.90000000596,126_m_m_n_a.png,I,m,575,1,2,1587.2999999970198,210181.60000000894,8031,NNB,B,14
15,test,3,1.0,1-Back,1,z,Tue Apr 22 2025 09:29:20 GMT-0500 (Central Daylight Time),213518.0,126_m_m_n_a.png,I,z,720,1,2,1737.5999999940395,211780.40000000596,8031,NNB,B,15
16,test,3,0.0,1-Back,1,m,Tue Apr 22 2025 09:29:20 GMT-0500 (Central Daylight Time),215117.90000000596,086_o_f_n_a.png,I,m,571,1,2,1586.4000000059605,213531.5,8031,NNB,B,16
17,test,3,1.0,1-Back,1,z,Tue Apr 22 2025 09:29:20 GMT-0500 (Central Daylight Time),216817.40000000596,086_o_f_n_a.png,I,z,675,1,2,1689.0,215128.40000000596,8031,NNB,B,17
0,test,4,1.0,1-Back,,,Tue Apr 22 2025 09:29:20 GMT-0500 (Central Daylight Time),216817.40000000596,097_m_f_n_a.png,I,space,1033,1,2,1689.0,215128.40000000596,8031,NNB,B,0
1,test,4,0.0,1-Back,1,m,Tue Apr 22 2025 09:29:20 GMT-0500 (Central Daylight Time),221716.10000000894,065_o_m_n_a.png,I,m,706,2,2,1721.7000000029802,219994.40000000596,8031,NNB,B,1
2,test,4,0.0,1-Back,1,m,Tue Apr 22 2025 09:29:20 GMT-0500 (Central Daylight Time),224248.5,097_m_f_n_a.png,I,m,1501,3,2,2519.3999999910593,221729.10000000894,8031,NNB,B,2
3,test,4,0.0,1-Back,1,m,Tue Apr 22 2025 09:29:20 GMT-0500 (Central Daylight Time),225881.10000000894,110_o_f_n_a.png,I,m,600,4,2,1621.9000000059605,224259.20000000298,8031,NNB,B,3
4,test,4,1.0,1-Back,1,z,Tue Apr 22 2025 09:29:20 GMT-0500 (Central Daylight Time),227396.90000000596,110_o_f_n_a.png,I,z,496,5,2,1505.5,225891.40000000596,8031,NNB,B,4
5,test,4,0.0,1-Back,1,m,Tue Apr 22 2025 09:29:20 GMT-0500 (Central Daylight Time),229213.29999999702,152_y_f_n_a.png,I,m,787,6,2,1806.0999999940395,227407.20000000298,8031,NNB,B,5
6,test,4,0.0,1-Back,1,m,Tue Apr 22 2025 09:29:20 GMT-0500 (Central Daylight Time),230813.10000000894,153_y_m_n_a.png,I,m,580,7,2,1585.9000000059605,229227.20000000298,8031,NNB,B,6
6,test,4,1.0,1-Back,0,z,Tue Apr 22 2025 09:29:20 GMT-0500 (Central Daylight Time),232613.60000000894,153_y_m_n_a.png,I,m,780,8,2,1789.300000011921,230824.29999999702,8031,NNB,B,7
7,test,4,0.0,1-Back,1,m,Tue Apr 22 2025 09:29:20 GMT-0500 (Central Daylight Time),234311.90000000596,152_y_f_n_a.png,I,m,669,9,2,1687.1000000089407,232624.79999999702,8031,NNB,B,8
8,test,4,0.0,1-Back,1,m,Tue Apr 22 2025 09:29:20 GMT-0500 (Central Daylight Time),235928.10000000894,178_m_m_n_a.png,I,m,586,10,2,1605.0,234323.10000000894,8031,NNB,B,9
9,test,4,1.0,1-Back,1,z,Tue Apr 22 2025 09:29:20 GMT-0500 (Central Daylight Time),237610.40000000596,178_m_m_n_a.png,I,z,665,11,2,1671.4000000059605,235939.0,8031,NNB,B,10
10,test,4,0.0,1-Back,1,m,Tue Apr 22 2025 09:29:20 GMT-0500 (Central Daylight Time),239360.29999999702,086_o_f_n_a.png,I,m,718,12,2,1740.5,237619.79999999702,8031,NNB,B,11
11,test,4,0.0,1-Back,1,m,Tue Apr 22 2025 09:29:20 GMT-0500 (Central Daylight Time),240926.29999999702,176_o_m_n_a.png,I,m,545,13,2,1554.5999999940395,239371.70000000298,8031,NNB,B,12
12,test,4,0.0,1-Back,1,m,Tue Apr 22 2025 09:29:20 GMT-0500 (Central Daylight Time),242709.20000000298,086_o_f_n_a.png,I,m,755,14,2,1771.0999999940395,240938.10000000894,8031,NNB,B,13
13,test,4,0.0,1-Back,1,m,Tue Apr 22 2025 09:29:20 GMT-0500 (Central Daylight Time),244258.29999999702,173_y_f_n_a.png,I,m,524,15,2,1538.2999999970198,242720.0,8031,NNB,B,14
14,test,4,1.0,1-Back,1,z,Tue Apr 22 2025 09:29:20 GMT-0500 (Central Daylight Time),245908.10000000894,173_y_f_n_a.png,I,z,622,16,2,1637.0,244271.10000000894,8031,NNB,B,15
15,test,4,0.0,1-Back,1,m,Tue Apr 22 2025 09:29:20 GMT-0500 (Central Daylight Time),247524.29999999702,029_m_f_n_a.png,I,m,589,17,2,1607.199999988079,245917.10000000894,8031,NNB,B,16
16,test,4,1.0,1-Back,1,z,Tue Apr 22 2025 09:29:20 GMT-0500 (Central Daylight Time),249157.0,029_m_f_n_a.png,I,z,613,18,2,1621.8999999910593,247535.10000000894,8031,NNB,B,17
0,test,5,1.0,1-Back,,,Tue Apr 22 2025 09:29:20 GMT-0500 (Central Daylight Time),249157.0,176_o_m_n_a.png,I,space,1012,1,2,1621.8999999910593,247535.10000000894,8031,NNB,B,0
0,test,5,1.0,1-Back,0,z,Tue Apr 22 2025 09:29:20 GMT-0500 (Central Daylight Time),253905.70000000298,176_o_m_n_a.png,I,m,692,2,2,1704.7000000029802,252201.0,8031,NNB,B,1
1,test,5,0.0,1-Back,1,m,Tue Apr 22 2025 09:29:20 GMT-0500 (Central Daylight Time),255921.90000000596,152_y_f_n_a.png,I,m,984,3,2,2005.5,253916.40000000596,8031,NNB,B,2
2,test,5,0.0,1-Back,1,m,Tue Apr 22 2025 09:29:20 GMT-0500 (Central Daylight Time),257488.0,153_y_m_n_a.png,I,m,544,4,2,1556.5,255931.5,8031,NNB,B,3
3,test,5,0.0,1-Back,1,m,Tue Apr 22 2025 09:29:20 GMT-0500 (Central Daylight Time),259220.79999999702,152_y_f_n_a.png,I,m,714,5,2,1721.5,257499.29999999702,8031,NNB,B,4
4,test,5,0.0,1-Back,1,m,Tue Apr 22 2025 09:29:20 GMT-0500 (Central Daylight Time),260920.10000000894,126_m_m_n_a.png,I,m,668,6,2,1690.2000000029802,259229.90000000596,8031,NNB,B,5
5,test,5,1.0,1-Back,1,z,Tue Apr 22 2025 09:29:20 GMT-0500 (Central Daylight Time),262586.299999997,126_m_m_n_a.png,I,z,633,7,2,1655.3999999910593,260930.90000000596,8031,NNB,B,6
6,test,5,0.0,1-Back,1,m,Tue Apr 22 2025 09:29:20 GMT-0500 (Central Daylight Time),264135.90000000596,173_y_f_n_a.png,I,m,527,8,2,1540.2000000029802,262595.700000003,8031,NNB,B,7
7,test,5,0.0,1-Back,1,m,Tue Apr 22 2025 09:29:20 GMT-0500 (Central Daylight Time),265735.40000000596,013_y_m_n_a.png,I,m,569,9,2,1590.0,264145.40000000596,8031,NNB,B,8
8,test,5,0.0,1-Back,1,m,Tue Apr 22 2025 09:29:20 GMT-0500 (Central Daylight Time),267484.700000003,173_y_f_n_a.png,I,m,730,10,2,1737.9000000059605,265746.799999997,8031,NNB,B,9
9,test,5,0.0,1-Back,1,m,Tue Apr 22 2025 09:29:20 GMT-0500 (Central Daylight Time),269117.700000003,086_o_f_n_a.png,I,m,613,11,2,1623.7999999970198,267493.90000000596,8031,NNB,B,10
10,test,5,1.0,1-Back,1,z,Tue Apr 22 2025 09:29:20 GMT-0500 (Central Daylight Time),270617.10000000894,086_o_f_n_a.png,I,z,476,12,2,1488.0,269129.10000000894,8031,NNB,B,11
11,test,5,0.0,1-Back,1,m,Tue Apr 22 2025 09:29:20 GMT-0500 (Central Daylight Time),272200.0,065_o_m_n_a.png,I,m,552,13,2,1573.7000000029802,270626.299999997,8031,NNB,B,12
12,test,5,0.0,1-Back,1,m,Tue Apr 22 2025 09:29:20 GMT-0500 (Central Daylight Time),273749.700000003,097_m_f_n_a.png,I,m,529,14,2,1539.0,272210.700000003,8031,NNB,B,13
13,test,5,1.0,1-Back,1,z,Tue Apr 22 2025 09:29:20 GMT-0500 (Central Daylight Time),275432.10000000894,097_m_f_n_a.png,I,z,660,15,2,1672.1000000089407,273760.0,8031,NNB,B,14
14,test,5,0.0,1-Back,1,m,Tue Apr 22 2025 09:29:20 GMT-0500 (Central Daylight Time),276981.90000000596,065_o_m_n_a.png,I,m,521,16,2,1538.7000000029802,275443.200000003,8031,NNB,B,15
15,test,5,0.0,1-Back,1,m,Tue Apr 22 2025 09:29:20 GMT-0500 (Central Daylight Time),278531.60000000894,029_m_f_n_a.png,I,m,523,17,2,1540.4000000059605,276991.200000003,8031,NNB,B,16
16,test,5,0.0,1-Back,1,m,Tue Apr 22 2025 09:29:20 GMT-0500 (Central Daylight Time),280064.10000000894,178_m_m_n_a.png,I,m,502,18,2,1521.9000000059605,278542.200000003,8031,NNB,B,17
0,prac,1,0.0,2-Back,,,Tue Apr 22 2025 09:29:20 GMT-0500 (Central Daylight Time),280064.10000000894,013_y_m_n_a.png,I,space,4218,1,2,1521.9000000059605,278542.200000003,8031,NNB,B,0
0,prac,1,0.0,2-Back,,,Tue Apr 22 2025 09:29:20 GMT-0500 (Central Daylight Time),280064.10000000894,029_m_f_n_a.png,I,space,4218,2,2,1521.9000000059605,278542.200000003,8031,NNB,B,0
1,prac,1,1.0,2-Back,1,m,Tue Apr 22 2025 09:29:20 GMT-0500 (Central Daylight Time),361338.700000003,065_o_m_n_a.png,I,m,796,3,2,1671.5,359667.200000003,8031,NNB,B,1
2,prac,1,0.0,2-Back,1,m,Tue Apr 22 2025 09:29:20 GMT-0500 (Central Daylight Time),363404.700000003,086_o_f_n_a.png,I,m,1161,4,2,2053.0999999940395,361351.60000000894,8031,NNB,B,2
3,prac,1,0.0,2-Back,1,z,Tue Apr 22 2025 09:29:20 GMT-0500 (Central Daylight Time),364987.60000000894,065_o_m_n_a.png,I,z,799,5,2,1568.9000000059605,363418.700000003,8031,NNB,B,3
4,prac,1,1.0,2-Back,1,z,Tue Apr 22 2025 09:29:20 GMT-0500 (Central Daylight Time),366787.200000003,086_o_f_n_a.png,I,z,1018,6,2,1787.9000000059605,364999.299999997,8031,NNB,B,4
5,prac,1,0.0,2-Back,1,m,Tue Apr 22 2025 09:29:20 GMT-0500 (Central Daylight Time),368386.40000000596,178_m_m_n_a.png,I,m,720,7,2,1585.6000000089407,366800.799999997,8031,NNB,B,5
6,prac,1,0.0,2-Back,1,m,Tue Apr 22 2025 09:29:20 GMT-0500 (Central Daylight Time),369952.700000003,176_o_m_n_a.png,I,m,675,8,2,1554.7000000029802,368398.0,8031,NNB,B,6
7,prac,1,0.0,2-Back,1,m,Tue Apr 22 2025 09:29:20 GMT-0500 (Central Daylight Time),371535.5,173_y_f_n_a.png,I,m,708,9,2,1570.5999999940395,369964.90000000596,8031,NNB,B,7
8,prac,1,1.0,2-Back,1,z,Tue Apr 22 2025 09:29:20 GMT-0500 (Central Daylight Time),373118.299999997,176_o_m_n_a.png,I,z,790,10,2,1570.199999988079,371548.10000000894,8031,NNB,B,8
9,prac,1,0.0,2-Back,1,m,Tue Apr 22 2025 09:29:20 GMT-0500 (Central Daylight Time),375084.40000000596,152_y_f_n_a.png,I,m,1087,11,2,1954.7999999970198,373129.60000000894,8031,NNB,B,9
9,prac,1,0.0,2-Back,0,m,Tue Apr 22 2025 09:29:20 GMT-0500 (Central Daylight Time),377000.60000000894,178_m_m_n_a.png,I,z,1120,12,2,1903.300000011921,375097.299999997,8031,NNB,B,10
0,test,1,0.0,2-Back,,,Tue Apr 22 2025 09:29:20 GMT-0500 (Central Daylight Time),377000.60000000894,153_y_m_n_a.png,I,space,3783,1,2,1903.300000011921,375097.299999997,8031,NNB,B,0
0,test,1,0.0,2-Back,,,Tue Apr 22 2025 09:29:20 GMT-0500 (Central Daylight Time),377000.60000000894,153_y_m_n_a.png,I,space,3783,2,2,1903.300000011921,375097.299999997,8031,NNB,B,0
1,test,1,0.0,2-Back,1,m,Tue Apr 22 2025 09:29:20 GMT-0500 (Central Daylight Time),392495.700000003,086_o_f_n_a.png,I,m,669,3,2,1689.7999999970198,390805.90000000596,8031,NNB,B,1
2,test,1,0.0,2-Back,1,m,Tue Apr 22 2025 09:29:20 GMT-0500 (Central Daylight Time),394228.60000000894,126_m_m_n_a.png,I,m,705,4,2,1723.300000011921,392505.299999997,8031,NNB,B,2
3,test,1,1.0,2-Back,1,z,Tue Apr 22 2025 09:29:20 GMT-0500 (Central Daylight Time),395828.10000000894,086_o_f_n_a.png,I,z,573,5,2,1588.6000000089407,394239.5,8031,NNB,B,3
3,test,1,0.0,2-Back,0,m,Tue Apr 22 2025 09:29:20 GMT-0500 (Central Daylight Time),397461.0,152_y_f_n_a.png,I,z,613,6,2,1623.2999999970198,395837.700000003,8031,NNB,B,4
4,test,1,0.0,2-Back,1,m,Tue Apr 22 2025 09:29:20 GMT-0500 (Central Daylight Time),400143.299999997,126_m_m_n_a.png,I,m,1652,7,2,2672.0999999940395,397471.200000003,8031,NNB,B,5
4,test,1,1.0,2-Back,0,z,Tue Apr 22 2025 09:29:20 GMT-0500 (Central Daylight Time),403175.60000000894,152_y_f_n_a.png,I,None,2015,8,2,3022.0,400153.60000000894,8031,NNB,B,6
5,test,1,0.0,2-Back,1,m,Tue Apr 22 2025 09:29:20 GMT-0500 (Central Daylight Time),405175.0,013_y_m_n_a.png,I,m,977,9,2,1986.5,403188.5,8031,NNB,B,7
6,test,1,0.0,2-Back,1,m,Tue Apr 22 2025 09:29:20 GMT-0500 (Central Daylight Time),406724.5,110_o_f_n_a.png,I,m,521,10,2,1537.8999999910593,405186.60000000894,8031,NNB,B,8
7,test,1,1.0,2-Back,1,z,Tue Apr 22 2025 09:29:20 GMT-0500 (Central Daylight Time),408540.5,013_y_m_n_a.png,I,z,789,11,2,1805.3999999910593,406735.10000000894,8031,NNB,B,9
8,test,1,0.0,2-Back,1,m,Tue Apr 22 2025 09:29:20 GMT-0500 (Central Daylight Time),410406.60000000894,029_m_f_n_a.png,I,m,837,12,2,1856.800000011921,408549.799999997,8031,NNB,B,10
9,test,1,0.0,2-Back,1,m,Tue Apr 22 2025 09:29:20 GMT-0500 (Central Daylight Time),412322.60000000894,029_m_f_n_a.png,I,m,899,13,2,1902.9000000059605,410419.700000003,8031,NNB,B,11
10,test,1,0.0,2-Back,1,m,Tue Apr 22 2025 09:29:20 GMT-0500 (Central Daylight Time),414305.40000000596,065_o_m_n_a.png,I,m,958,14,2,1973.2000000029802,412332.200000003,8031,NNB,B,12
11,test,1,0.0,2-Back,1,m,Tue Apr 22 2025 09:29:20 GMT-0500 (Central Daylight Time),415905.0,110_o_f_n_a.png,I,m,569,15,2,1588.0999999940395,414316.90000000596,8031,NNB,B,13
12,test,1,1.0,2-Back,1,z,Tue Apr 22 2025 09:29:20 GMT-0500 (Central Daylight Time),417654.60000000894,065_o_m_n_a.png,I,z,720,16,2,1738.6000000089407,415916.0,8031,NNB,B,14
13,test,1,0.0,2-Back,1,m,Tue Apr 22 2025 09:29:20 GMT-0500 (Central Daylight Time),419437.200000003,097_m_f_n_a.png,I,m,755,17,2,1773.0999999940395,417664.10000000894,8031,NNB,B,15
14,test,1,0.0,2-Back,1,m,Tue Apr 22 2025 09:29:20 GMT-0500 (Central Daylight Time),421536.40000000596,178_m_m_n_a.png,I,m,1068,18,2,2087.4000000059605,419449.0,8031,NNB,B,16
0,test,2,0.0,2-Back,,,Tue Apr 22 2025 09:29:20 GMT-0500 (Central Daylight Time),421536.40000000596,178_m_m_n_a.png,I,space,1265,1,2,2087.4000000059605,419449.0,8031,NNB,B,0
0,test,2,0.0,2-Back,,,Tue Apr 22 2025 09:29:20 GMT-0500 (Central Daylight Time),421536.40000000596,173_y_f_n_a.png,I,space,1265,2,2,2087.4000000059605,419449.0,8031,NNB,B,0
1,test,2,1.0,2-Back,1,z,Tue Apr 22 2025 09:29:20 GMT-0500 (Central Daylight Time),429660.10000000894,178_m_m_n_a.png,I,z,692,3,2,1698.0,427962.10000000894,8031,NNB,B,1
2,test,2,0.0,2-Back,1,m,Tue Apr 22 2025 09:29:20 GMT-0500 (Central Daylight Time),431450.299999997,097_m_f_n_a.png,I,m,758,4,2,1777.5999999940395,429672.700000003,8031,NNB,B,2
3,test,2,0.0,2-Back,1,m,Tue Apr 22 2025 09:29:20 GMT-0500 (Central Daylight Time),433266.200000003,173_y_f_n_a.png,I,m,791,5,2,1803.7000000029802,431462.5,8031,NNB,B,3
4,test,2,0.0,2-Back,1,m,Tue Apr 22 2025 09:29:20 GMT-0500 (Central Daylight Time),434965.60000000894,065_o_m_n_a.png,I,m,679,6,2,1689.9000000059605,433275.700000003,8031,NNB,B,4
5,test,2,0.0,2-Back,1,m,Tue Apr 22 2025 09:29:20 GMT-0500 (Central Daylight Time),436931.60000000894,152_y_f_n_a.png,I,m,940,7,2,1956.7000000029802,434974.90000000596,8031,NNB,B,5
6,test,2,1.0,2-Back,1,z,Tue Apr 22 2025 09:29:20 GMT-0500 (Central Daylight Time),438747.799999997,065_o_m_n_a.png,I,z,797,8,2,1805.0999999940395,436942.700000003,8031,NNB,B,6
7,test,2,0.0,2-Back,1,m,Tue Apr 22 2025 09:29:20 GMT-0500 (Central Daylight Time),440647.200000003,013_y_m_n_a.png,I,m,869,9,2,1889.9000000059605,438757.299999997,8031,NNB,B,7
8,test,2,0.0,2-Back,1,m,Tue Apr 22 2025 09:29:20 GMT-0500 (Central Daylight Time),442579.90000000596,013_y_m_n_a.png,I,m,914,10,2,1921.7000000029802,440658.200000003,8031,NNB,B,8
9,test,2,0.0,2-Back,1,m,Tue Apr 22 2025 09:29:20 GMT-0500 (Central Daylight Time),444546.10000000894,029_m_f_n_a.png,I,m,933,11,2,1956.9000000059605,442589.200000003,8031,NNB,B,9
10,test,2,0.0,2-Back,1,m,Tue Apr 22 2025 09:29:20 GMT-0500 (Central Daylight Time),446345.5,173_y_f_n_a.png,I,m,767,12,2,1785.2999999970198,444560.200000003,8031,NNB,B,10
11,test,2,1.0,2-Back,1,z,Tue Apr 22 2025 09:29:20 GMT-0500 (Central Daylight Time),448344.60000000894,029_m_f_n_a.png,I,z,968,13,2,1989.2000000029802,446355.40000000596,8031,NNB,B,11
12,test,2,0.0,2-Back,1,m,Tue Apr 22 2025 09:29:20 GMT-0500 (Central Daylight Time),450410.90000000596,176_o_m_n_a.png,I,m,1040,14,2,2056.7999999970198,448354.10000000894,8031,NNB,B,12
13,test,2,0.0,2-Back,1,m,Tue Apr 22 2025 09:29:20 GMT-0500 (Central Daylight Time),452310.299999997,176_o_m_n_a.png,I,m,870,15,2,1888.2999999970198,450422.0,8031,NNB,B,13
14,test,2,0.0,2-Back,1,m,Tue Apr 22 2025 09:29:20 GMT-0500 (Central Daylight Time),454093.0,110_o_f_n_a.png,I,m,755,16,2,1769.8999999910593,452323.10000000894,8031,NNB,B,14
15,test,2,0.0,2-Back,1,m,Tue Apr 22 2025 09:29:20 GMT-0500 (Central Daylight Time),455859.0,126_m_m_n_a.png,I,m,748,17,2,1755.5,454103.5,8031,NNB,B,15
16,test,2,1.0,2-Back,1,z,Tue Apr 22 2025 09:29:20 GMT-0500 (Central Daylight Time),457559.799999997,110_o_f_n_a.png,I,z,670,18,2,1689.8999999910593,455869.90000000596,8031,NNB,B,16
0,test,3,1.0,2-Back,,,Tue Apr 22 2025 09:29:20 GMT-0500 (Central Daylight Time),457559.799999997,153_y_m_n_a.png,I,space,1273,1,2,1689.8999999910593,455869.90000000596,8031,NNB,B,0
0,test,3,1.0,2-Back,,,Tue Apr 22 2025 09:29:20 GMT-0500 (Central Daylight Time),457559.799999997,153_y_m_n_a.png,I,space,1273,2,2,1689.8999999910593,455869.90000000596,8031,NNB,B,0
1,test,3,0.0,2-Back,1,m,Tue Apr 22 2025 09:29:20 GMT-0500 (Central Daylight Time),465989.299999997,110_o_f_n_a.png,I,m,988,3,2,2002.7999999970198,463986.5,8031,NNB,B,1
2,test,3,0.0,2-Back,1,m,Tue Apr 22 2025 09:29:20 GMT-0500 (Central Daylight Time),467638.799999997,178_m_m_n_a.png,I,m,628,4,2,1640.0,465998.799999997,8031,NNB,B,2
3,test,3,1.0,2-Back,1,z,Tue Apr 22 2025 09:29:20 GMT-0500 (Central Daylight Time),469371.40000000596,110_o_f_n_a.png,I,z,706,5,2,1721.6000000089407,467649.799999997,8031,NNB,B,3
4,test,3,0.0,2-Back,1,m,Tue Apr 22 2025 09:29:20 GMT-0500 (Central Daylight Time),471121.0,013_y_m_n_a.png,I,m,725,6,2,1740.0,469381.0,8031,NNB,B,4
4,test,3,0.0,2-Back,0,m,Tue Apr 22 2025 09:29:20 GMT-0500 (Central Daylight Time),473087.10000000894,178_m_m_n_a.png,I,z,944,7,2,1955.0,471132.10000000894,8031,NNB,B,5
4,test,3,1.0,2-Back,0,z,Tue Apr 22 2025 09:29:20 GMT-0500 (Central Daylight Time),474936.40000000596,013_y_m_n_a.png,I,m,826,8,2,1839.7000000029802,473096.700000003,8031,NNB,B,6
5,test,3,0.0,2-Back,1,m,Tue Apr 22 2025 09:29:20 GMT-0500 (Central Daylight Time),477019.0,173_y_f_n_a.png,I,m,1065,9,2,2072.2999999970198,474946.700000003,8031,NNB,B,7
6,test,3,0.0,2-Back,1,m,Tue Apr 22 2025 09:29:20 GMT-0500 (Central Daylight Time),478968.60000000894,126_m_m_n_a.png,I,m,926,10,2,1936.6000000089407,477032.0,8031,NNB,B,8
6,test,3,1.0,2-Back,0,z,Tue Apr 22 2025 09:29:20 GMT-0500 (Central Daylight Time),482001.0,173_y_f_n_a.png,I,None,2015,11,2,3022.5,478978.5,8031,NNB,B,9
7,test,3,1.0,2-Back,1,z,Tue Apr 22 2025 09:29:20 GMT-0500 (Central Daylight Time),484083.700000003,126_m_m_n_a.png,I,z,1056,12,2,2072.9000000059605,482010.799999997,8031,NNB,B,10
8,test,3,0.0,2-Back,1,m,Tue Apr 22 2025 09:29:20 GMT-0500 (Central Daylight Time),485916.40000000596,110_o_f_n_a.png,I,m,806,13,2,1823.2999999970198,484093.10000000894,8031,NNB,B,11
9,test,3,0.0,2-Back,1,m,Tue Apr 22 2025 09:29:20 GMT-0500 (Central Daylight Time),487615.799999997,097_m_f_n_a.png,I,m,669,14,2,1690.0,485925.799999997,8031,NNB,B,12
10,test,3,0.0,2-Back,1,m,Tue Apr 22 2025 09:29:20 GMT-0500 (Central Daylight Time),489398.799999997,065_o_m_n_a.png,I,m,753,15,2,1771.7999999970198,487627.0,8031,NNB,B,13
11,test,3,1.0,2-Back,1,z,Tue Apr 22 2025 09:29:20 GMT-0500 (Central Daylight Time),490914.700000003,097_m_f_n_a.png,I,z,491,16,2,1504.9000000059605,489409.799999997,8031,NNB,B,14
12,test,3,0.0,2-Back,1,m,Tue Apr 22 2025 09:29:20 GMT-0500 (Central Daylight Time),492747.5,086_o_f_n_a.png,I,m,814,17,2,1822.8999999910593,490924.60000000894,8031,NNB,B,15
13,test,3,0.0,2-Back,1,m,Tue Apr 22 2025 09:29:20 GMT-0500 (Central Daylight Time),494730.40000000596,086_o_f_n_a.png,I,m,958,18,2,1972.0,492758.40000000596,8031,NNB,B,16
0,test,4,0.0,2-Back,,,Tue Apr 22 2025 09:29:20 GMT-0500 (Central Daylight Time),494730.40000000596,176_o_m_n_a.png,I,space,1175,1,2,1972.0,492758.40000000596,8031,NNB,B,0
0,test,4,0.0,2-Back,,,Tue Apr 22 2025 09:29:20 GMT-0500 (Central Daylight Time),494730.40000000596,152_y_f_n_a.png,I,space,1175,2,2,1972.0,492758.40000000596,8031,NNB,B,0
1,test,4,1.0,2-Back,1,z,Tue Apr 22 2025 09:29:20 GMT-0500 (Central Daylight Time),503094.299999997,176_o_m_n_a.png,I,z,928,3,2,1937.7999999970198,501156.5,8031,NNB,B,1
2,test,4,1.0,2-Back,1,z,Tue Apr 22 2025 09:29:20 GMT-0500 (Central Daylight Time),505010.299999997,152_y_f_n_a.png,I,z,884,4,2,1905.0,503105.299999997,8031,NNB,B,2
3,test,4,0.0,2-Back,1,m,Tue Apr 22 2025 09:29:20 GMT-0500 (Central Daylight Time),506626.5,110_o_f_n_a.png,I,m,591,5,2,1606.5,505020.0,8031,NNB,B,3
4,test,4,0.0,2-Back,1,m,Tue Apr 22 2025 09:29:20 GMT-0500 (Central Daylight Time),508442.799999997,110_o_f_n_a.png,I,m,791,6,2,1806.5999999940395,506636.200000003,8031,NNB,B,4
5,test,4,0.0,2-Back,1,m,Tue Apr 22 2025 09:29:20 GMT-0500 (Central Daylight Time),510408.5,029_m_f_n_a.png,I,m,934,7,2,1956.0999999940395,508452.40000000596,8031,NNB,B,5
6,test,4,0.0,2-Back,1,m,Tue Apr 22 2025 09:29:20 GMT-0500 (Central Daylight Time),512124.799999997,013_y_m_n_a.png,I,m,697,8,2,1704.7999999970198,510420.0,8031,NNB,B,6
7,test,4,1.0,2-Back,1,z,Tue Apr 22 2025 09:29:20 GMT-0500 (Central Daylight Time),513857.5,029_m_f_n_a.png,I,z,699,9,2,1722.2999999970198,512135.200000003,8031,NNB,B,7
8,test,4,0.0,2-Back,1,m,Tue Apr 22 2025 09:29:20 GMT-0500 (Central Daylight Time),515540.200000003,126_m_m_n_a.png,I,m,664,10,2,1671.5999999940395,513868.60000000894,8031,NNB,B,8
9,test,4,0.0,2-Back,1,m,Tue Apr 22 2025 09:29:20 GMT-0500 (Central Daylight Time),517773.200000003,013_y_m_n_a.png,I,m,1213,11,2,2220.2999999970198,515552.90000000596,8031,NNB,B,9
10,test,4,0.0,2-Back,1,m,Tue Apr 22 2025 09:29:20 GMT-0500 (Central Daylight Time),519639.10000000894,086_o_f_n_a.png,I,m,836,12,2,1856.6000000089407,517782.5,8031,NNB,B,10
11,test,4,0.0,2-Back,1,m,Tue Apr 22 2025 09:29:20 GMT-0500 (Central Daylight Time),521571.90000000596,153_y_m_n_a.png,I,m,906,13,2,1921.2999999970198,519650.60000000894,8031,NNB,B,11
12,test,4,1.0,2-Back,1,z,Tue Apr 22 2025 09:29:20 GMT-0500 (Central Daylight Time),523004.700000003,086_o_f_n_a.png,I,z,413,14,2,1421.7999999970198,521582.90000000596,8031,NNB,B,12
13,test,4,1.0,2-Back,1,z,Tue Apr 22 2025 09:29:20 GMT-0500 (Central Daylight Time),524804.299999997,153_y_m_n_a.png,I,z,769,15,2,1788.699999988079,523015.60000000894,8031,NNB,B,13
14,test,4,0.0,2-Back,1,m,Tue Apr 22 2025 09:29:20 GMT-0500 (Central Daylight Time),526470.400000006,178_m_m_n_a.png,I,m,637,16,2,1657.1000000089407,524813.299999997,8031,NNB,B,14
15,test,4,0.0,2-Back,1,m,Tue Apr 22 2025 09:29:20 GMT-0500 (Central Daylight Time),528519.799999997,097_m_f_n_a.png,I,m,1018,17,2,2038.199999988079,526481.6000000089,8031,NNB,B,15
16,test,4,1.0,2-Back,1,z,Tue Apr 22 2025 09:29:20 GMT-0500 (Central Daylight Time),530702.299999997,178_m_m_n_a.png,I,z,1154,18,2,2168.2999999970198,528534.0,8031,NNB,B,16
0,test,5,1.0,2-Back,,,Tue Apr 22 2025 09:29:20 GMT-0500 (Central Daylight Time),530702.299999997,153_y_m_n_a.png,I,space,2627,1,2,2168.2999999970198,528534.0,8031,NNB,B,0
0,test,5,1.0,2-Back,,,Tue Apr 22 2025 09:29:20 GMT-0500 (Central Daylight Time),530702.299999997,097_m_f_n_a.png,I,space,2627,2,2,2168.2999999970198,528534.0,8031,NNB,B,0
1,test,5,1.0,2-Back,1,z,Tue Apr 22 2025 09:29:20 GMT-0500 (Central Daylight Time),540782.6000000089,153_y_m_n_a.png,I,z,1370,3,2,2389.9000000059605,538392.700000003,8031,NNB,B,1
2,test,5,1.0,2-Back,1,z,Tue Apr 22 2025 09:29:20 GMT-0500 (Central Daylight Time),542615.5,097_m_f_n_a.png,I,z,811,4,2,1823.7999999970198,540791.700000003,8031,NNB,B,2
3,test,5,0.0,2-Back,1,m,Tue Apr 22 2025 09:29:20 GMT-0500 (Central Daylight Time),544231.400000006,086_o_f_n_a.png,I,m,594,5,2,1605.7000000029802,542625.700000003,8031,NNB,B,3
4,test,5,0.0,2-Back,1,m,Tue Apr 22 2025 09:29:20 GMT-0500 (Central Daylight Time),546114.299999997,153_y_m_n_a.png,I,m,866,6,2,1873.5,544240.799999997,8031,NNB,B,4
5,test,5,0.0,2-Back,1,m,Tue Apr 22 2025 09:29:20 GMT-0500 (Central Daylight Time),547797.1000000089,173_y_f_n_a.png,I,m,655,7,2,1673.4000000059605,546123.700000003,8031,NNB,B,5
5,test,5,0.0,2-Back,0,m,Tue Apr 22 2025 09:29:20 GMT-0500 (Central Daylight Time),549679.6000000089,086_o_f_n_a.png,I,z,850,8,2,1868.800000011921,547810.799999997,8031,NNB,B,6
6,test,5,1.0,2-Back,1,z,Tue Apr 22 2025 09:29:20 GMT-0500 (Central Daylight Time),551895.900000006,173_y_f_n_a.png,I,z,1194,9,2,2206.7999999970198,549689.1000000089,8031,NNB,B,7
7,test,5,0.0,2-Back,1,m,Tue Apr 22 2025 09:29:20 GMT-0500 (Central Daylight Time),553511.900000006,065_o_m_n_a.png,I,m,593,10,2,1605.4000000059605,551906.5,8031,NNB,B,8
8,test,5,0.0,2-Back,1,m,Tue Apr 22 2025 09:29:20 GMT-0500 (Central Daylight Time),555278.0,029_m_f_n_a.png,I,m,745,11,2,1755.5999999940395,553522.400000006,8031,NNB,B,9
9,test,5,0.0,2-Back,1,m,Tue Apr 22 2025 09:29:20 GMT-0500 (Central Daylight Time),557110.6000000089,126_m_m_n_a.png,I,m,811,12,2,1821.800000011921,555288.799999997,8031,NNB,B,10
10,test,5,0.0,2-Back,1,m,Tue Apr 22 2025 09:29:20 GMT-0500 (Central Daylight Time),559526.6000000089,065_o_m_n_a.png,I,m,1394,13,2,2403.9000000059605,557122.700000003,8031,NNB,B,11
11,test,5,1.0,2-Back,1,z,Tue Apr 22 2025 09:29:20 GMT-0500 (Central Daylight Time),561409.400000006,126_m_m_n_a.png,I,z,859,14,2,1871.7000000029802,559537.700000003,8031,NNB,B,12
12,test,5,0.0,2-Back,1,m,Tue Apr 22 2025 09:29:20 GMT-0500 (Central Daylight Time),563291.900000006,152_y_f_n_a.png,I,m,864,15,2,1873.2000000029802,561418.700000003,8031,NNB,B,13
13,test,5,0.0,2-Back,1,m,Tue Apr 22 2025 09:29:20 GMT-0500 (Central Daylight Time),565041.799999997,176_o_m_n_a.png,I,m,717,16,2,1738.8999999910593,563302.900000006,8031,NNB,B,14
14,test,5,0.0,2-Back,1,m,Tue Apr 22 2025 09:29:20 GMT-0500 (Central Daylight Time),566724.299999997,029_m_f_n_a.png,I,m,656,17,2,1671.0,565053.299999997,8031,NNB,B,15
15,test,5,1.0,2-Back,1,z,Tue Apr 22 2025 09:29:20 GMT-0500 (Central Daylight Time),568657.299999997,176_o_m_n_a.png,I,z,901,18,2,1923.5,566733.799999997,8031,NNB,B,16
