acc_sum,block,block_c,change,condition,correct,correct_response,datetime,endtime,face,project,response,response_time,row_sel,session_number,start_end,starttime,subject_id,task,task_vers,trial
0,prac,1,,1-Back,,,Fri Feb 21 2025 09:30:39 GMT-0600 (Central Standard Time),,050_m_f_n_a.png,I,space,4832,1,1,,,8031,NNB,A,0
1,prac,1,0.0,1-Back,1,m,Fri Feb 21 2025 09:30:39 GMT-0600 (Central Standard Time),110660.69999999553,063_y_f_n_a.png,I,m,815,2,1,1607.6000000014901,109053.09999999404,8031,NNB,A,1
2,prac,1,1.0,1-Back,1,z,Fri Feb 21 2025 09:30:39 GMT-0600 (Central Standard Time),112793.29999999702,063_y_f_n_a.png,I,z,1351,3,1,2123.5,110669.79999999702,8031,NNB,A,2
3,prac,1,0.0,1-Back,1,m,Fri Feb 21 2025 09:30:39 GMT-0600 (Central Standard Time),114376.09999999404,053_o_m_n_a.png,I,m,797,4,1,1572.5,112803.59999999404,8031,NNB,A,3
4,prac,1,0.0,1-Back,1,m,Fri Feb 21 2025 09:30:39 GMT-0600 (Central Standard Time),116174.69999999553,058_m_m_n_a.png,I,m,1014,5,1,1789.1999999955297,114385.5,8031,NNB,A,4
5,prac,1,1.0,1-Back,1,z,Fri Feb 21 2025 09:30:39 GMT-0600 (Central Standard Time),117740.89999999851,058_m_m_n_a.png,I,z,791,6,1,1556.2000000029802,116184.69999999553,8031,NNB,A,5
6,prac,1,0.0,1-Back,1,m,Fri Feb 21 2025 09:30:39 GMT-0600 (Central Standard Time),119687.19999999553,047_o_f_n_a.png,I,m,1118,7,1,1936.3999999985099,117750.79999999702,8031,NNB,A,6
7,prac,1,0.0,1-Back,1,m,Fri Feb 21 2025 09:30:39 GMT-0600 (Central Standard Time),121405.69999999553,045_m_m_n_a.png,I,m,908,8,1,1706.2999999970198,119699.39999999851,8031,NNB,A,7
8,prac,1,0.0,1-Back,1,m,Fri Feb 21 2025 09:30:39 GMT-0600 (Central Standard Time),122923.0,050_m_f_n_a.png,I,m,740,9,1,1506.1000000014901,121416.89999999851,8031,NNB,A,8
9,prac,1,1.0,1-Back,1,z,Fri Feb 21 2025 09:30:39 GMT-0600 (Central Standard Time),124373.59999999404,050_m_f_n_a.png,I,z,679,10,1,1441.0999999940395,122932.5,8031,NNB,A,9
10,prac,1,0.0,1-Back,1,m,Fri Feb 21 2025 09:30:39 GMT-0600 (Central Standard Time),125905.69999999553,053_o_m_n_a.png,I,m,756,11,1,1521.8999999985099,124383.79999999702,8031,NNB,A,10
11,prac,1,0.0,1-Back,1,m,Fri Feb 21 2025 09:30:39 GMT-0600 (Central Standard Time),127771.89999999851,010_y_f_n_a.png,I,m,1046,12,1,1856.8000000044703,125915.09999999404,8031,NNB,A,11
0,test,1,0.0,1-Back,,,Fri Feb 21 2025 09:30:39 GMT-0600 (Central Standard Time),127771.89999999851,063_y_f_n_a.png,I,space,8757,1,1,1856.8000000044703,125915.09999999404,8031,NNB,A,0
1,test,1,0.0,1-Back,1,m,Fri Feb 21 2025 09:30:39 GMT-0600 (Central Standard Time),146781.0,043_m_f_n_a.png,I,m,1040,2,1,2054.5,144726.5,8031,NNB,A,1
2,test,1,0.0,1-Back,1,m,Fri Feb 21 2025 09:30:39 GMT-0600 (Central Standard Time),148813.29999999702,010_y_f_n_a.png,I,m,1007,3,1,2024.0,146789.29999999702,8031,NNB,A,2
3,test,1,1.0,1-Back,1,z,Fri Feb 21 2025 09:30:39 GMT-0600 (Central Standard Time),150878.59999999404,010_y_f_n_a.png,I,z,1037,4,1,2056.2999999970198,148822.29999999702,8031,NNB,A,3
4,test,1,0.0,1-Back,1,m,Fri Feb 21 2025 09:30:39 GMT-0600 (Central Standard Time),152861.09999999404,043_m_f_n_a.png,I,m,964,5,1,1974.5,150886.59999999404,8031,NNB,A,4
5,test,1,0.0,1-Back,1,m,Fri Feb 21 2025 09:30:39 GMT-0600 (Central Standard Time),154476.29999999702,053_o_m_n_a.png,I,m,591,6,1,1608.5,152867.79999999702,8031,NNB,A,5
6,test,1,1.0,1-Back,1,z,Fri Feb 21 2025 09:30:39 GMT-0600 (Central Standard Time),156227.69999999553,053_o_m_n_a.png,I,z,725,7,1,1746.6999999955297,154481.0,8031,NNB,A,6
7,test,1,0.0,1-Back,1,m,Fri Feb 21 2025 09:30:39 GMT-0600 (Central Standard Time),158227.3999999985,058_m_m_n_a.png,I,m,965,8,1,1991.8000000044703,156235.59999999404,8031,NNB,A,7
8,test,1,0.0,1-Back,1,m,Fri Feb 21 2025 09:30:39 GMT-0600 (Central Standard Time),160061.0,047_o_f_n_a.png,I,m,816,9,1,1824.9000000059605,158236.09999999404,8031,NNB,A,8
9,test,1,0.0,1-Back,1,m,Fri Feb 21 2025 09:30:39 GMT-0600 (Central Standard Time),162142.3999999985,058_m_m_n_a.png,I,m,1063,10,1,2073.89999999851,160068.5,8031,NNB,A,9
10,test,1,0.0,1-Back,1,m,Fri Feb 21 2025 09:30:39 GMT-0600 (Central Standard Time),163893.59999999404,041_y_m_n_a.png,I,m,718,11,1,1741.6999999955297,162151.8999999985,8031,NNB,A,10
11,test,1,1.0,1-Back,1,z,Fri Feb 21 2025 09:30:39 GMT-0600 (Central Standard Time),165591.3999999985,041_y_m_n_a.png,I,z,678,12,1,1690.1000000014901,163901.29999999702,8031,NNB,A,11
12,test,1,0.0,1-Back,1,m,Fri Feb 21 2025 09:30:39 GMT-0600 (Central Standard Time),167259.29999999702,044_o_f_n_a.png,I,m,636,13,1,1655.8999999985099,165603.3999999985,8031,NNB,A,12
13,test,1,1.0,1-Back,1,z,Fri Feb 21 2025 09:30:39 GMT-0600 (Central Standard Time),169006.3999999985,044_o_f_n_a.png,I,z,721,14,1,1737.3999999985099,167269.0,8031,NNB,A,13
14,test,1,0.0,1-Back,1,m,Fri Feb 21 2025 09:30:39 GMT-0600 (Central Standard Time),170890.79999999702,008_y_m_n_a.png,I,m,851,15,1,1873.1000000014901,169017.69999999553,8031,NNB,A,14
15,test,1,0.0,1-Back,1,m,Fri Feb 21 2025 09:30:39 GMT-0600 (Central Standard Time),172790.09999999404,050_m_f_n_a.png,I,m,873,16,1,1888.1999999955297,170901.8999999985,8031,NNB,A,15
16,test,1,0.0,1-Back,1,m,Fri Feb 21 2025 09:30:39 GMT-0600 (Central Standard Time),174506.69999999553,046_o_m_n_a.png,I,m,694,17,1,1705.2999999970198,172801.3999999985,8031,NNB,A,16
17,test,1,0.0,1-Back,1,m,Fri Feb 21 2025 09:30:39 GMT-0600 (Central Standard Time),176272.3999999985,050_m_f_n_a.png,I,m,739,18,1,1753.7000000029802,174518.69999999553,8031,NNB,A,17
0,test,2,0.0,1-Back,,,Fri Feb 21 2025 09:30:39 GMT-0600 (Central Standard Time),176272.3999999985,058_m_m_n_a.png,I,space,1450,1,1,1753.7000000029802,174518.69999999553,8031,NNB,A,0
1,test,2,0.0,1-Back,1,m,Fri Feb 21 2025 09:30:39 GMT-0600 (Central Standard Time),181570.3999999985,043_m_f_n_a.png,I,m,794,2,1,1805.6000000014901,179764.79999999702,8031,NNB,A,1
2,test,2,1.0,1-Back,1,z,Fri Feb 21 2025 09:30:39 GMT-0600 (Central Standard Time),183237.3999999985,043_m_f_n_a.png,I,z,641,3,1,1659.0,181578.3999999985,8031,NNB,A,2
3,test,2,0.0,1-Back,1,m,Fri Feb 21 2025 09:30:39 GMT-0600 (Central Standard Time),184802.79999999702,058_m_m_n_a.png,I,m,543,4,1,1555.5,183247.29999999702,8031,NNB,A,3
4,test,2,0.0,1-Back,1,m,Fri Feb 21 2025 09:30:39 GMT-0600 (Central Standard Time),186435.59999999404,041_y_m_n_a.png,I,m,601,5,1,1621.5,184814.09999999404,8031,NNB,A,4
5,test,2,0.0,1-Back,1,m,Fri Feb 21 2025 09:30:39 GMT-0600 (Central Standard Time),187984.79999999702,063_y_f_n_a.png,I,m,529,6,1,1538.6000000014901,186446.19999999553,8031,NNB,A,5
6,test,2,1.0,1-Back,1,z,Fri Feb 21 2025 09:30:39 GMT-0600 (Central Standard Time),189601.3999999985,063_y_f_n_a.png,I,z,585,7,1,1607.3000000044703,187994.09999999404,8031,NNB,A,6
7,test,2,0.0,1-Back,1,m,Fri Feb 21 2025 09:30:39 GMT-0600 (Central Standard Time),191250.3999999985,041_y_m_n_a.png,I,m,627,8,1,1639.8999999985099,189610.5,8031,NNB,A,7
8,test,2,0.0,1-Back,1,m,Fri Feb 21 2025 09:30:39 GMT-0600 (Central Standard Time),192900.5,044_o_f_n_a.png,I,m,625,9,1,1639.1000000014901,191261.3999999985,8031,NNB,A,8
9,test,2,0.0,1-Back,1,m,Fri Feb 21 2025 09:30:39 GMT-0600 (Central Standard Time),194565.59999999404,045_m_m_n_a.png,I,m,639,10,1,1655.0,192910.59999999404,8031,NNB,A,9
10,test,2,1.0,1-Back,1,z,Fri Feb 21 2025 09:30:39 GMT-0600 (Central Standard Time),196281.8999999985,045_m_m_n_a.png,I,z,694,11,1,1706.7000000029802,194575.19999999553,8031,NNB,A,10
11,test,2,0.0,1-Back,1,m,Fri Feb 21 2025 09:30:39 GMT-0600 (Central Standard Time),197864.29999999702,044_o_f_n_a.png,I,m,560,12,1,1572.2999999970198,196292.0,8031,NNB,A,11
12,test,2,0.0,1-Back,1,m,Fri Feb 21 2025 09:30:39 GMT-0600 (Central Standard Time),199446.69999999553,047_o_f_n_a.png,I,m,562,13,1,1573.2999999970198,197873.3999999985,8031,NNB,A,12
13,test,2,0.0,1-Back,1,m,Fri Feb 21 2025 09:30:39 GMT-0600 (Central Standard Time),201130.59999999404,053_o_m_n_a.png,I,m,658,14,1,1679.3999999985099,199451.19999999553,8031,NNB,A,13
14,test,2,0.0,1-Back,1,m,Fri Feb 21 2025 09:30:39 GMT-0600 (Central Standard Time),202764.29999999702,046_o_m_n_a.png,I,m,600,15,1,1623.8999999985099,201140.3999999985,8031,NNB,A,14
15,test,2,1.0,1-Back,1,z,Fri Feb 21 2025 09:30:39 GMT-0600 (Central Standard Time),204529.5,046_o_m_n_a.png,I,z,735,16,1,1756.7000000029802,202772.79999999702,8031,NNB,A,15
16,test,2,0.0,1-Back,1,m,Fri Feb 21 2025 09:30:39 GMT-0600 (Central Standard Time),206096.29999999702,008_y_m_n_a.png,I,m,538,17,1,1558.1000000014901,204538.19999999553,8031,NNB,A,16
17,test,2,1.0,1-Back,1,z,Fri Feb 21 2025 09:30:39 GMT-0600 (Central Standard Time),208028.59999999404,008_y_m_n_a.png,I,z,908,18,1,1922.5,206106.09999999404,8031,NNB,A,17
0,test,3,1.0,1-Back,,,Fri Feb 21 2025 09:30:39 GMT-0600 (Central Standard Time),208028.59999999404,010_y_f_n_a.png,I,space,1175,1,1,1922.5,206106.09999999404,8031,NNB,A,0
1,test,3,0.0,1-Back,1,m,Fri Feb 21 2025 09:30:39 GMT-0600 (Central Standard Time),212862.09999999404,046_o_m_n_a.png,I,m,549,2,1,1573.3999999985099,211288.69999999553,8031,NNB,A,1
2,test,3,1.0,1-Back,1,z,Fri Feb 21 2025 09:30:39 GMT-0600 (Central Standard Time),214426.5,046_o_m_n_a.png,I,z,534,3,1,1555.8000000044703,212870.69999999553,8031,NNB,A,2
3,test,3,0.0,1-Back,1,m,Fri Feb 21 2025 09:30:39 GMT-0600 (Central Standard Time),215975.8999999985,050_m_f_n_a.png,I,m,530,4,1,1539.8000000044703,214436.09999999404,8031,NNB,A,3
4,test,3,1.0,1-Back,1,z,Fri Feb 21 2025 09:30:39 GMT-0600 (Central Standard Time),217874.29999999702,050_m_f_n_a.png,I,z,874,5,1,1888.0,215986.29999999702,8031,NNB,A,4
5,test,3,0.0,1-Back,1,m,Fri Feb 21 2025 09:30:39 GMT-0600 (Central Standard Time),219676.3999999985,044_o_f_n_a.png,I,m,777,6,1,1792.3999999985099,217884.0,8031,NNB,A,5
6,test,3,0.0,1-Back,1,m,Fri Feb 21 2025 09:30:39 GMT-0600 (Central Standard Time),221358.59999999404,041_y_m_n_a.png,I,m,649,7,1,1673.5,219685.09999999404,8031,NNB,A,6
7,test,3,0.0,1-Back,1,m,Fri Feb 21 2025 09:30:39 GMT-0600 (Central Standard Time),223240.09999999404,044_o_f_n_a.png,I,m,854,8,1,1872.7999999970198,221367.29999999702,8031,NNB,A,7
8,test,3,0.0,1-Back,1,m,Fri Feb 21 2025 09:30:39 GMT-0600 (Central Standard Time),224875.59999999404,008_y_m_n_a.png,I,m,610,9,1,1626.7999999970198,223248.79999999702,8031,NNB,A,8
9,test,3,1.0,1-Back,1,z,Fri Feb 21 2025 09:30:39 GMT-0600 (Central Standard Time),226555.19999999553,008_y_m_n_a.png,I,z,659,10,1,1672.8999999985099,224882.29999999702,8031,NNB,A,9
10,test,3,0.0,1-Back,1,m,Fri Feb 21 2025 09:30:39 GMT-0600 (Central Standard Time),228255.09999999404,043_m_f_n_a.png,I,m,670,11,1,1691.5,226563.59999999404,8031,NNB,A,10
11,test,3,0.0,1-Back,1,m,Fri Feb 21 2025 09:30:39 GMT-0600 (Central Standard Time),229972.19999999553,063_y_f_n_a.png,I,m,684,12,1,1707.3999999985099,228264.79999999702,8031,NNB,A,11
12,test,3,1.0,1-Back,1,z,Fri Feb 21 2025 09:30:39 GMT-0600 (Central Standard Time),231454.09999999404,063_y_f_n_a.png,I,z,456,13,1,1472.3999999985099,229981.69999999553,8031,NNB,A,12
13,test,3,0.0,1-Back,1,m,Fri Feb 21 2025 09:30:39 GMT-0600 (Central Standard Time),233086.29999999702,043_m_f_n_a.png,I,m,605,14,1,1622.8999999985099,231463.3999999985,8031,NNB,A,13
14,test,3,0.0,1-Back,1,m,Fri Feb 21 2025 09:30:39 GMT-0600 (Central Standard Time),234688.09999999404,058_m_m_n_a.png,I,m,584,15,1,1593.3999999985099,233094.69999999553,8031,NNB,A,14
15,test,3,1.0,1-Back,1,z,Fri Feb 21 2025 09:30:39 GMT-0600 (Central Standard Time),236169.19999999553,058_m_m_n_a.png,I,z,460,16,1,1474.1000000014901,234695.09999999404,8031,NNB,A,15
16,test,3,0.0,1-Back,1,m,Fri Feb 21 2025 09:30:39 GMT-0600 (Central Standard Time),237918.29999999702,047_o_f_n_a.png,I,m,730,17,1,1739.8999999985099,236178.3999999985,8031,NNB,A,16
17,test,3,1.0,1-Back,1,z,Fri Feb 21 2025 09:30:39 GMT-0600 (Central Standard Time),239634.79999999702,047_o_f_n_a.png,I,z,686,18,1,1709.3999999985099,237925.3999999985,8031,NNB,A,17
0,test,4,1.0,1-Back,,,Fri Feb 21 2025 09:30:39 GMT-0600 (Central Standard Time),239634.79999999702,050_m_f_n_a.png,I,space,1313,1,1,1709.3999999985099,237925.3999999985,8031,NNB,A,0
1,test,4,0.0,1-Back,1,m,Fri Feb 21 2025 09:30:39 GMT-0600 (Central Standard Time),244717.59999999404,046_o_m_n_a.png,I,m,731,2,1,1742.0999999940395,242975.5,8031,NNB,A,1
1,test,4,0.0,1-Back,0,m,Fri Feb 21 2025 09:30:39 GMT-0600 (Central Standard Time),246348.5,050_m_f_n_a.png,I,z,606,3,1,1623.5,244725.0,8031,NNB,A,2
2,test,4,0.0,1-Back,1,m,Fri Feb 21 2025 09:30:39 GMT-0600 (Central Standard Time),248317.79999999702,044_o_f_n_a.png,I,m,932,4,1,1960.7000000029802,246357.09999999404,8031,NNB,A,3
3,test,4,1.0,1-Back,1,z,Fri Feb 21 2025 09:30:39 GMT-0600 (Central Standard Time),249999.5,044_o_f_n_a.png,I,z,665,5,1,1673.4000000059605,248326.09999999404,8031,NNB,A,4
4,test,4,0.0,1-Back,1,m,Fri Feb 21 2025 09:30:39 GMT-0600 (Central Standard Time),251765.79999999702,063_y_f_n_a.png,I,m,750,6,1,1757.2000000029802,250008.59999999404,8031,NNB,A,5
5,test,4,0.0,1-Back,1,m,Fri Feb 21 2025 09:30:39 GMT-0600 (Central Standard Time),253349.09999999404,041_y_m_n_a.png,I,m,566,7,1,1574.5,251774.59999999404,8031,NNB,A,6
6,test,4,1.0,1-Back,1,z,Fri Feb 21 2025 09:30:39 GMT-0600 (Central Standard Time),255080.09999999404,041_y_m_n_a.png,I,z,705,8,1,1723.3999999985099,253356.69999999553,8031,NNB,A,7
7,test,4,0.0,1-Back,1,m,Fri Feb 21 2025 09:30:39 GMT-0600 (Central Standard Time),256862.79999999702,063_y_f_n_a.png,I,m,755,9,1,1773.3999999985099,255089.3999999985,8031,NNB,A,8
8,test,4,0.0,1-Back,1,m,Fri Feb 21 2025 09:30:39 GMT-0600 (Central Standard Time),258561.5,045_m_m_n_a.png,I,m,669,10,1,1689.0,256872.5,8031,NNB,A,9
9,test,4,1.0,1-Back,1,z,Fri Feb 21 2025 09:30:39 GMT-0600 (Central Standard Time),260128.3999999985,045_m_m_n_a.png,I,z,540,11,1,1556.1000000014901,258572.29999999702,8031,NNB,A,10
10,test,4,0.0,1-Back,1,m,Fri Feb 21 2025 09:30:39 GMT-0600 (Central Standard Time),261710.8999999985,047_o_f_n_a.png,I,m,555,12,1,1572.7000000029802,260138.19999999553,8031,NNB,A,11
11,test,4,0.0,1-Back,1,m,Fri Feb 21 2025 09:30:39 GMT-0600 (Central Standard Time),263262.0,053_o_m_n_a.png,I,m,535,13,1,1541.4000000059605,261720.59999999404,8031,NNB,A,12
12,test,4,0.0,1-Back,1,m,Fri Feb 21 2025 09:30:39 GMT-0600 (Central Standard Time),264927.3999999985,047_o_f_n_a.png,I,m,640,14,1,1658.8000000044703,263268.59999999404,8031,NNB,A,13
13,test,4,0.0,1-Back,1,m,Fri Feb 21 2025 09:30:39 GMT-0600 (Central Standard Time),266542.69999999553,010_y_f_n_a.png,I,m,589,15,1,1607.1999999955297,264935.5,8031,NNB,A,14
14,test,4,1.0,1-Back,1,z,Fri Feb 21 2025 09:30:39 GMT-0600 (Central Standard Time),268208.799999997,010_y_f_n_a.png,I,z,633,16,1,1657.0,266551.799999997,8031,NNB,A,15
15,test,4,0.0,1-Back,1,m,Fri Feb 21 2025 09:30:39 GMT-0600 (Central Standard Time),270042.59999999404,043_m_f_n_a.png,I,m,810,17,1,1824.6999999955297,268217.8999999985,8031,NNB,A,16
16,test,4,1.0,1-Back,1,z,Fri Feb 21 2025 09:30:39 GMT-0600 (Central Standard Time),271907.5,043_m_f_n_a.png,I,z,842,18,1,1856.1000000014901,270051.3999999985,8031,NNB,A,17
0,test,5,1.0,1-Back,,,Fri Feb 21 2025 09:30:39 GMT-0600 (Central Standard Time),271907.5,053_o_m_n_a.png,I,space,1284,1,1,1856.1000000014901,270051.3999999985,8031,NNB,A,0
1,test,5,1.0,1-Back,1,z,Fri Feb 21 2025 09:30:39 GMT-0600 (Central Standard Time),277005.799999997,053_o_m_n_a.png,I,z,773,2,1,1788.3999999985099,275217.3999999985,8031,NNB,A,1
2,test,5,0.0,1-Back,1,m,Fri Feb 21 2025 09:30:39 GMT-0600 (Central Standard Time),279022.09999999404,063_y_f_n_a.png,I,m,997,3,1,2006.3999999985099,277015.69999999553,8031,NNB,A,2
3,test,5,0.0,1-Back,1,m,Fri Feb 21 2025 09:30:39 GMT-0600 (Central Standard Time),280639.5,041_y_m_n_a.png,I,m,600,4,1,1607.5,279032.0,8031,NNB,A,3
4,test,5,0.0,1-Back,1,m,Fri Feb 21 2025 09:30:39 GMT-0600 (Central Standard Time),282255.59999999404,063_y_f_n_a.png,I,m,600,5,1,1608.3999999985099,280647.19999999553,8031,NNB,A,4
5,test,5,0.0,1-Back,1,m,Fri Feb 21 2025 09:30:39 GMT-0600 (Central Standard Time),283972.5,058_m_m_n_a.png,I,m,701,6,1,1709.1000000014901,282263.3999999985,8031,NNB,A,5
6,test,5,1.0,1-Back,1,z,Fri Feb 21 2025 09:30:39 GMT-0600 (Central Standard Time),285603.3999999985,058_m_m_n_a.png,I,z,608,7,1,1622.0,283981.3999999985,8031,NNB,A,6
7,test,5,0.0,1-Back,1,m,Fri Feb 21 2025 09:30:39 GMT-0600 (Central Standard Time),287203.3999999985,010_y_f_n_a.png,I,m,575,8,1,1591.0,285612.3999999985,8031,NNB,A,7
8,test,5,0.0,1-Back,1,m,Fri Feb 21 2025 09:30:39 GMT-0600 (Central Standard Time),288852.5,008_y_m_n_a.png,I,m,631,9,1,1637.3000000044703,287215.19999999553,8031,NNB,A,8
9,test,5,0.0,1-Back,1,m,Fri Feb 21 2025 09:30:39 GMT-0600 (Central Standard Time),290718.8999999985,010_y_f_n_a.png,I,m,847,10,1,1858.3999999985099,288860.5,8031,NNB,A,9
10,test,5,0.0,1-Back,1,m,Fri Feb 21 2025 09:30:39 GMT-0600 (Central Standard Time),292469.299999997,047_o_f_n_a.png,I,m,726,11,1,1740.2999999970198,290729.0,8031,NNB,A,10
11,test,5,1.0,1-Back,1,z,Fri Feb 21 2025 09:30:39 GMT-0600 (Central Standard Time),294167.09999999404,047_o_f_n_a.png,I,z,681,12,1,1687.7999999970198,292479.299999997,8031,NNB,A,11
12,test,5,0.0,1-Back,1,m,Fri Feb 21 2025 09:30:39 GMT-0600 (Central Standard Time),295719.799999997,046_o_m_n_a.png,I,m,535,13,1,1544.2000000029802,294175.59999999404,8031,NNB,A,12
13,test,5,0.0,1-Back,1,m,Fri Feb 21 2025 09:30:39 GMT-0600 (Central Standard Time),297366.299999997,050_m_f_n_a.png,I,m,622,14,1,1637.5,295728.799999997,8031,NNB,A,13
14,test,5,1.0,1-Back,1,z,Fri Feb 21 2025 09:30:39 GMT-0600 (Central Standard Time),298917.799999997,050_m_f_n_a.png,I,z,518,15,1,1541.3999999985099,297376.3999999985,8031,NNB,A,14
15,test,5,0.0,1-Back,1,m,Fri Feb 21 2025 09:30:39 GMT-0600 (Central Standard Time),300598.5,046_o_m_n_a.png,I,m,653,16,1,1671.7000000029802,298926.799999997,8031,NNB,A,15
16,test,5,0.0,1-Back,1,m,Fri Feb 21 2025 09:30:39 GMT-0600 (Central Standard Time),302332.59999999404,043_m_f_n_a.png,I,m,717,17,1,1725.5,300607.09999999404,8031,NNB,A,16
17,test,5,0.0,1-Back,1,m,Fri Feb 21 2025 09:30:39 GMT-0600 (Central Standard Time),304082.19999999553,045_m_m_n_a.png,I,m,718,18,1,1739.8999999985099,302342.299999997,8031,NNB,A,17
0,prac,1,0.0,2-Back,,,Fri Feb 21 2025 09:30:39 GMT-0600 (Central Standard Time),304082.19999999553,008_y_m_n_a.png,I,space,4860,1,1,1739.8999999985099,302342.299999997,8031,NNB,A,0
0,prac,1,0.0,2-Back,,,Fri Feb 21 2025 09:30:39 GMT-0600 (Central Standard Time),304082.19999999553,043_m_f_n_a.png,I,space,4860,2,1,1739.8999999985099,302342.299999997,8031,NNB,A,0
1,prac,1,1.0,2-Back,1,m,Fri Feb 21 2025 09:30:39 GMT-0600 (Central Standard Time),397867.799999997,046_o_m_n_a.png,I,m,1224,3,1,2020.1000000014901,395847.69999999553,8031,NNB,A,1
1,prac,1,0.0,2-Back,0,m,Fri Feb 21 2025 09:30:39 GMT-0600 (Central Standard Time),400700.09999999404,047_o_f_n_a.png,I,None,2005,4,1,2822.7999999970198,397877.299999997,8031,NNB,A,2
2,prac,1,0.0,2-Back,1,z,Fri Feb 21 2025 09:30:39 GMT-0600 (Central Standard Time),402799.8999999985,046_o_m_n_a.png,I,z,1319,5,1,2090.7000000029802,400709.19999999553,8031,NNB,A,3
2,prac,1,1.0,2-Back,0,z,Fri Feb 21 2025 09:30:39 GMT-0600 (Central Standard Time),404717.59999999404,047_o_f_n_a.png,I,m,1138,6,1,1905.7999999970198,402811.799999997,8031,NNB,A,4
2,prac,1,0.0,2-Back,0,m,Fri Feb 21 2025 09:30:39 GMT-0600 (Central Standard Time),407515.299999997,045_m_m_n_a.png,I,None,2003,7,1,2787.89999999851,404727.3999999985,8031,NNB,A,5
3,prac,1,0.0,2-Back,1,m,Fri Feb 21 2025 09:30:39 GMT-0600 (Central Standard Time),410297.59999999404,053_o_m_n_a.png,I,m,1969,8,1,2772.1999999955297,407525.3999999985,8031,NNB,A,6
4,prac,1,0.0,2-Back,1,m,Fri Feb 21 2025 09:30:39 GMT-0600 (Central Standard Time),412530.799999997,010_y_f_n_a.png,I,m,1401,9,1,2221.0,410309.799999997,8031,NNB,A,7
5,prac,1,1.0,2-Back,1,z,Fri Feb 21 2025 09:30:39 GMT-0600 (Central Standard Time),414262.5,053_o_m_n_a.png,I,z,941,10,1,1721.5,412541.0,8031,NNB,A,8
6,prac,1,0.0,2-Back,1,m,Fri Feb 21 2025 09:30:39 GMT-0600 (Central Standard Time),416230.0,063_y_f_n_a.png,I,m,1154,11,1,1957.2000000029802,414272.799999997,8031,NNB,A,9
7,prac,1,0.0,2-Back,1,m,Fri Feb 21 2025 09:30:39 GMT-0600 (Central Standard Time),418979.09999999404,045_m_m_n_a.png,I,m,1973,12,1,2738.89999999851,416240.19999999553,8031,NNB,A,10
0,test,1,0.0,2-Back,,,Fri Feb 21 2025 09:30:39 GMT-0600 (Central Standard Time),418979.09999999404,041_y_m_n_a.png,I,space,5217,1,1,2738.89999999851,416240.19999999553,8031,NNB,A,0
0,test,1,0.0,2-Back,,,Fri Feb 21 2025 09:30:39 GMT-0600 (Central Standard Time),418979.09999999404,041_y_m_n_a.png,I,space,5217,2,1,2738.89999999851,416240.19999999553,8031,NNB,A,0
1,test,1,0.0,2-Back,1,m,Fri Feb 21 2025 09:30:39 GMT-0600 (Central Standard Time),439521.5,047_o_f_n_a.png,I,m,1919,3,1,2942.60000000149,436578.8999999985,8031,NNB,A,1
2,test,1,0.0,2-Back,1,m,Fri Feb 21 2025 09:30:39 GMT-0600 (Central Standard Time),441420.799999997,058_m_m_n_a.png,I,m,873,4,1,1889.6000000014901,439531.19999999553,8031,NNB,A,2
3,test,1,1.0,2-Back,1,z,Fri Feb 21 2025 09:30:39 GMT-0600 (Central Standard Time),443484.299999997,047_o_f_n_a.png,I,z,1030,5,1,2054.10000000149,441430.19999999553,8031,NNB,A,3
4,test,1,0.0,2-Back,1,m,Fri Feb 21 2025 09:30:39 GMT-0600 (Central Standard Time),445432.8999999985,063_y_f_n_a.png,I,m,920,6,1,1942.5,443490.3999999985,8031,NNB,A,4
4,test,1,0.0,2-Back,0,m,Fri Feb 21 2025 09:30:39 GMT-0600 (Central Standard Time),447500.19999999553,058_m_m_n_a.png,I,z,1035,7,1,2061.0,445439.19999999553,8031,NNB,A,5
5,test,1,1.0,2-Back,1,z,Fri Feb 21 2025 09:30:39 GMT-0600 (Central Standard Time),449368.59999999404,063_y_f_n_a.png,I,z,838,8,1,1862.1999999955297,447506.3999999985,8031,NNB,A,6
6,test,1,0.0,2-Back,1,m,Fri Feb 21 2025 09:30:39 GMT-0600 (Central Standard Time),451583.8999999985,008_y_m_n_a.png,I,m,1184,9,1,2208.7000000029802,449375.19999999553,8031,NNB,A,7
7,test,1,0.0,2-Back,1,m,Fri Feb 21 2025 09:30:39 GMT-0600 (Central Standard Time),453381.799999997,044_o_f_n_a.png,I,m,772,10,1,1788.7999999970198,451593.0,8031,NNB,A,8
8,test,1,1.0,2-Back,1,z,Fri Feb 21 2025 09:30:39 GMT-0600 (Central Standard Time),455317.19999999553,008_y_m_n_a.png,I,z,901,11,1,1927.1999999955297,453390.0,8031,NNB,A,9
9,test,1,0.0,2-Back,1,m,Fri Feb 21 2025 09:30:39 GMT-0600 (Central Standard Time),457265.5,043_m_f_n_a.png,I,m,930,12,1,1939.2000000029802,455326.299999997,8031,NNB,A,10
10,test,1,0.0,2-Back,1,m,Fri Feb 21 2025 09:30:39 GMT-0600 (Central Standard Time),459497.0,043_m_f_n_a.png,I,m,1207,13,1,2221.8000000044703,457275.19999999553,8031,NNB,A,11
11,test,1,0.0,2-Back,1,m,Fri Feb 21 2025 09:30:39 GMT-0600 (Central Standard Time),461429.5,046_o_m_n_a.png,I,m,915,14,1,1926.1000000014901,459503.3999999985,8031,NNB,A,12
12,test,1,0.0,2-Back,1,m,Fri Feb 21 2025 09:30:39 GMT-0600 (Central Standard Time),463078.0,044_o_f_n_a.png,I,m,622,15,1,1642.1000000014901,461435.8999999985,8031,NNB,A,13
13,test,1,1.0,2-Back,1,z,Fri Feb 21 2025 09:30:39 GMT-0600 (Central Standard Time),464811.19999999553,046_o_m_n_a.png,I,z,709,16,1,1728.3999999985099,463082.799999997,8031,NNB,A,14
14,test,1,0.0,2-Back,1,m,Fri Feb 21 2025 09:30:39 GMT-0600 (Central Standard Time),466579.299999997,050_m_f_n_a.png,I,m,734,17,1,1759.2000000029802,464820.09999999404,8031,NNB,A,15
15,test,1,0.0,2-Back,1,m,Fri Feb 21 2025 09:30:39 GMT-0600 (Central Standard Time),468413.3999999985,045_m_m_n_a.png,I,m,808,18,1,1826.0,466587.3999999985,8031,NNB,A,16
0,test,2,0.0,2-Back,,,Fri Feb 21 2025 09:30:39 GMT-0600 (Central Standard Time),468413.3999999985,045_m_m_n_a.png,I,space,1494,1,1,1826.0,466587.3999999985,8031,NNB,A,0
0,test,2,0.0,2-Back,,,Fri Feb 21 2025 09:30:39 GMT-0600 (Central Standard Time),468413.3999999985,010_y_f_n_a.png,I,space,1494,2,1,1826.0,466587.3999999985,8031,NNB,A,0
1,test,2,1.0,2-Back,1,z,Fri Feb 21 2025 09:30:39 GMT-0600 (Central Standard Time),477225.8999999985,045_m_m_n_a.png,I,z,1185,3,1,2208.5,475017.3999999985,8031,NNB,A,1
2,test,2,0.0,2-Back,1,m,Fri Feb 21 2025 09:30:39 GMT-0600 (Central Standard Time),479126.19999999553,050_m_f_n_a.png,I,m,873,4,1,1891.2999999970198,477234.8999999985,8031,NNB,A,2
2,test,2,0.0,2-Back,0,m,Fri Feb 21 2025 09:30:39 GMT-0600 (Central Standard Time),481492.5,010_y_f_n_a.png,I,z,1334,5,1,2357.4000000059605,479135.09999999404,8031,NNB,A,3
3,test,2,0.0,2-Back,1,m,Fri Feb 21 2025 09:30:39 GMT-0600 (Central Standard Time),483228.0,046_o_m_n_a.png,I,m,711,6,1,1726.9000000059605,481501.09999999404,8031,NNB,A,4
4,test,2,0.0,2-Back,1,m,Fri Feb 21 2025 09:30:39 GMT-0600 (Central Standard Time),485674.3999999985,063_y_f_n_a.png,I,m,1426,7,1,2441.60000000149,483232.799999997,8031,NNB,A,5
5,test,2,1.0,2-Back,1,z,Fri Feb 21 2025 09:30:39 GMT-0600 (Central Standard Time),488371.8999999985,046_o_m_n_a.png,I,z,1667,8,1,2688.39999999851,485683.5,8031,NNB,A,6
6,test,2,0.0,2-Back,1,m,Fri Feb 21 2025 09:30:39 GMT-0600 (Central Standard Time),490606.5,008_y_m_n_a.png,I,m,1217,9,1,2225.9000000059605,488380.59999999404,8031,NNB,A,7
7,test,2,0.0,2-Back,1,m,Fri Feb 21 2025 09:30:39 GMT-0600 (Central Standard Time),492605.09999999404,008_y_m_n_a.png,I,m,983,10,1,1990.1999999955297,490614.8999999985,8031,NNB,A,8
8,test,2,0.0,2-Back,1,m,Fri Feb 21 2025 09:30:39 GMT-0600 (Central Standard Time),494453.5,043_m_f_n_a.png,I,m,823,11,1,1840.2000000029802,492613.299999997,8031,NNB,A,9
8,test,2,0.0,2-Back,0,m,Fri Feb 21 2025 09:30:39 GMT-0600 (Central Standard Time),496703.8999999985,010_y_f_n_a.png,I,z,1221,12,1,2241.2000000029802,494462.69999999553,8031,NNB,A,10
9,test,2,1.0,2-Back,1,z,Fri Feb 21 2025 09:30:39 GMT-0600 (Central Standard Time),498820.19999999553,043_m_f_n_a.png,I,z,1094,13,1,2105.7999999970198,496714.3999999985,8031,NNB,A,11
10,test,2,0.0,2-Back,1,m,Fri Feb 21 2025 09:30:39 GMT-0600 (Central Standard Time),500636.09999999404,053_o_m_n_a.png,I,m,782,14,1,1805.3999999985099,498830.69999999553,8031,NNB,A,12
11,test,2,0.0,2-Back,1,m,Fri Feb 21 2025 09:30:39 GMT-0600 (Central Standard Time),502602.09999999404,053_o_m_n_a.png,I,m,933,15,1,1956.2999999970198,500645.799999997,8031,NNB,A,13
12,test,2,0.0,2-Back,1,m,Fri Feb 21 2025 09:30:39 GMT-0600 (Central Standard Time),504933.59999999404,044_o_f_n_a.png,I,m,1306,16,1,2321.5,502612.09999999404,8031,NNB,A,14
13,test,2,0.0,2-Back,1,m,Fri Feb 21 2025 09:30:39 GMT-0600 (Central Standard Time),506802.8999999985,058_m_m_n_a.png,I,m,835,17,1,1858.6000000014901,504944.299999997,8031,NNB,A,15
14,test,2,1.0,2-Back,1,z,Fri Feb 21 2025 09:30:39 GMT-0600 (Central Standard Time),508384.0,044_o_f_n_a.png,I,z,566,18,1,1575.7000000029802,506808.299999997,8031,NNB,A,16
0,test,3,1.0,2-Back,,,Fri Feb 21 2025 09:30:39 GMT-0600 (Central Standard Time),508384.0,041_y_m_n_a.png,I,space,1404,1,1,1575.7000000029802,506808.299999997,8031,NNB,A,0
0,test,3,1.0,2-Back,,,Fri Feb 21 2025 09:30:39 GMT-0600 (Central Standard Time),508384.0,041_y_m_n_a.png,I,space,1404,2,1,1575.7000000029802,506808.299999997,8031,NNB,A,0
1,test,3,0.0,2-Back,1,m,Fri Feb 21 2025 09:30:39 GMT-0600 (Central Standard Time),517378.8999999985,044_o_f_n_a.png,I,m,1483,3,1,2504.10000000149,514874.799999997,8031,NNB,A,1
2,test,3,0.0,2-Back,1,m,Fri Feb 21 2025 09:30:39 GMT-0600 (Central Standard Time),519280.5,045_m_m_n_a.png,I,m,871,4,1,1893.0,517387.5,8031,NNB,A,2
3,test,3,1.0,2-Back,1,z,Fri Feb 21 2025 09:30:39 GMT-0600 (Central Standard Time),521145.19999999553,044_o_f_n_a.png,I,z,837,5,1,1854.7999999970198,519290.3999999985,8031,NNB,A,3
4,test,3,0.0,2-Back,1,m,Fri Feb 21 2025 09:30:39 GMT-0600 (Central Standard Time),523128.799999997,008_y_m_n_a.png,I,m,954,6,1,1974.7000000029802,521154.09999999404,8031,NNB,A,4
4,test,3,0.0,2-Back,0,m,Fri Feb 21 2025 09:30:39 GMT-0600 (Central Standard Time),526160.8999999985,045_m_m_n_a.png,I,None,2014,7,1,3022.7000000029802,523138.19999999553,8031,NNB,A,5
4,test,3,1.0,2-Back,0,z,Fri Feb 21 2025 09:30:39 GMT-0600 (Central Standard Time),528593.799999997,008_y_m_n_a.png,I,m,1412,8,1,2422.7999999970198,526171.0,8031,NNB,A,6
5,test,3,0.0,2-Back,1,m,Fri Feb 21 2025 09:30:39 GMT-0600 (Central Standard Time),531059.099999994,010_y_f_n_a.png,I,m,1443,9,1,2452.5,528606.599999994,8031,NNB,A,7
6,test,3,0.0,2-Back,1,m,Fri Feb 21 2025 09:30:39 GMT-0600 (Central Standard Time),533225.799999997,058_m_m_n_a.png,I,m,1136,10,1,2158.10000000149,531067.6999999955,8031,NNB,A,8
7,test,3,1.0,2-Back,1,z,Fri Feb 21 2025 09:30:39 GMT-0600 (Central Standard Time),534957.8999999985,010_y_f_n_a.png,I,z,715,11,1,1723.2000000029802,533234.6999999955,8031,NNB,A,9
8,test,3,1.0,2-Back,1,z,Fri Feb 21 2025 09:30:39 GMT-0600 (Central Standard Time),536891.599999994,058_m_m_n_a.png,I,z,900,12,1,1926.0999999940395,534965.5,8031,NNB,A,10
9,test,3,0.0,2-Back,1,m,Fri Feb 21 2025 09:30:39 GMT-0600 (Central Standard Time),538805.8999999985,044_o_f_n_a.png,I,m,889,13,1,1904.0,536901.8999999985,8031,NNB,A,11
10,test,3,0.0,2-Back,1,m,Fri Feb 21 2025 09:30:39 GMT-0600 (Central Standard Time),541206.8999999985,050_m_f_n_a.png,I,m,1382,14,1,2389.60000000149,538817.299999997,8031,NNB,A,12
11,test,3,0.0,2-Back,1,m,Fri Feb 21 2025 09:30:39 GMT-0600 (Central Standard Time),543404.8999999985,046_o_m_n_a.png,I,m,1166,15,1,2187.3000000044703,541217.599999994,8031,NNB,A,13
12,test,3,1.0,2-Back,1,z,Fri Feb 21 2025 09:30:39 GMT-0600 (Central Standard Time),545389.599999994,050_m_f_n_a.png,I,z,965,16,1,1974.3999999985099,543415.1999999955,8031,NNB,A,14
13,test,3,0.0,2-Back,1,m,Fri Feb 21 2025 09:30:39 GMT-0600 (Central Standard Time),547487.6999999955,047_o_f_n_a.png,I,m,1071,17,1,2091.10000000149,545396.599999994,8031,NNB,A,15
14,test,3,0.0,2-Back,1,m,Fri Feb 21 2025 09:30:39 GMT-0600 (Central Standard Time),549486.6999999955,047_o_f_n_a.png,I,m,972,18,1,1989.3999999985099,547497.299999997,8031,NNB,A,16
0,test,4,0.0,2-Back,,,Fri Feb 21 2025 09:30:39 GMT-0600 (Central Standard Time),549486.6999999955,053_o_m_n_a.png,I,space,1301,1,1,1989.3999999985099,547497.299999997,8031,NNB,A,0
0,test,4,0.0,2-Back,,,Fri Feb 21 2025 09:30:39 GMT-0600 (Central Standard Time),549486.6999999955,063_y_f_n_a.png,I,space,1301,2,1,1989.3999999985099,547497.299999997,8031,NNB,A,0
1,test,4,1.0,2-Back,1,z,Fri Feb 21 2025 09:30:39 GMT-0600 (Central Standard Time),557850.1999999955,053_o_m_n_a.png,I,z,927,3,1,1940.5,555909.6999999955,8031,NNB,A,1
2,test,4,1.0,2-Back,1,z,Fri Feb 21 2025 09:30:39 GMT-0600 (Central Standard Time),559900.3999999985,063_y_f_n_a.png,I,z,1018,4,1,2041.0,557859.3999999985,8031,NNB,A,2
3,test,4,0.0,2-Back,1,m,Fri Feb 21 2025 09:30:39 GMT-0600 (Central Standard Time),561901.3999999985,044_o_f_n_a.png,I,m,983,5,1,1991.3999999985099,559910.0,8031,NNB,A,3
4,test,4,0.0,2-Back,1,m,Fri Feb 21 2025 09:30:39 GMT-0600 (Central Standard Time),563765.599999994,044_o_f_n_a.png,I,m,840,6,1,1856.0,561909.599999994,8031,NNB,A,4
5,test,4,0.0,2-Back,1,m,Fri Feb 21 2025 09:30:39 GMT-0600 (Central Standard Time),566047.8999999985,043_m_f_n_a.png,I,m,1254,7,1,2272.10000000149,563775.799999997,8031,NNB,A,5
6,test,4,0.0,2-Back,1,m,Fri Feb 21 2025 09:30:39 GMT-0600 (Central Standard Time),568429.6999999955,008_y_m_n_a.png,I,m,1355,8,1,2371.7999999970198,566057.8999999985,8031,NNB,A,6
7,test,4,1.0,2-Back,1,z,Fri Feb 21 2025 09:30:39 GMT-0600 (Central Standard Time),570280.3999999985,043_m_f_n_a.png,I,z,833,9,1,1841.3999999985099,568439.0,8031,NNB,A,7
8,test,4,0.0,2-Back,1,m,Fri Feb 21 2025 09:30:39 GMT-0600 (Central Standard Time),573095.599999994,058_m_m_n_a.png,I,m,1787,10,1,2805.5999999940395,570290.0,8031,NNB,A,8
8,test,4,0.0,2-Back,0,m,Fri Feb 21 2025 09:30:39 GMT-0600 (Central Standard Time),575061.799999997,008_y_m_n_a.png,I,z,941,11,1,1957.1000000014901,573104.6999999955,8031,NNB,A,9
9,test,4,0.0,2-Back,1,m,Fri Feb 21 2025 09:30:39 GMT-0600 (Central Standard Time),576943.3999999985,047_o_f_n_a.png,I,m,853,12,1,1872.1000000014901,575071.299999997,8031,NNB,A,10
10,test,4,0.0,2-Back,1,m,Fri Feb 21 2025 09:30:39 GMT-0600 (Central Standard Time),578793.599999994,041_y_m_n_a.png,I,m,820,13,1,1841.2999999970198,576952.299999997,8031,NNB,A,11
11,test,4,1.0,2-Back,1,z,Fri Feb 21 2025 09:30:39 GMT-0600 (Central Standard Time),580710.799999997,047_o_f_n_a.png,I,z,899,14,1,1907.2000000029802,578803.599999994,8031,NNB,A,12
12,test,4,1.0,2-Back,1,z,Fri Feb 21 2025 09:30:39 GMT-0600 (Central Standard Time),582592.3999999985,041_y_m_n_a.png,I,z,860,15,1,1871.0,580721.3999999985,8031,NNB,A,13
13,test,4,0.0,2-Back,1,m,Fri Feb 21 2025 09:30:39 GMT-0600 (Central Standard Time),584944.1999999955,045_m_m_n_a.png,I,m,1334,16,1,2342.1999999955297,582602.0,8031,NNB,A,14
14,test,4,0.0,2-Back,1,m,Fri Feb 21 2025 09:30:39 GMT-0600 (Central Standard Time),586674.6999999955,050_m_f_n_a.png,I,m,700,17,1,1722.1000000014901,584952.599999994,8031,NNB,A,15
15,test,4,1.0,2-Back,1,z,Fri Feb 21 2025 09:30:39 GMT-0600 (Central Standard Time),588455.599999994,045_m_m_n_a.png,I,z,761,18,1,1770.2999999970198,586685.299999997,8031,NNB,A,16
0,test,5,1.0,2-Back,,,Fri Feb 21 2025 09:30:39 GMT-0600 (Central Standard Time),588455.599999994,041_y_m_n_a.png,I,space,1204,1,1,1770.2999999970198,586685.299999997,8031,NNB,A,0
0,test,5,1.0,2-Back,,,Fri Feb 21 2025 09:30:39 GMT-0600 (Central Standard Time),588455.599999994,050_m_f_n_a.png,I,space,1204,2,1,1770.2999999970198,586685.299999997,8031,NNB,A,0
1,test,5,1.0,2-Back,1,z,Fri Feb 21 2025 09:30:39 GMT-0600 (Central Standard Time),596538.1999999955,041_y_m_n_a.png,I,z,793,3,1,1806.6000000014901,594731.599999994,8031,NNB,A,1
2,test,5,1.0,2-Back,1,z,Fri Feb 21 2025 09:30:39 GMT-0600 (Central Standard Time),598354.3999999985,050_m_f_n_a.png,I,z,783,4,1,1807.0,596547.3999999985,8031,NNB,A,2
3,test,5,0.0,2-Back,1,m,Fri Feb 21 2025 09:30:39 GMT-0600 (Central Standard Time),600319.799999997,047_o_f_n_a.png,I,m,937,5,1,1956.0,598363.799999997,8031,NNB,A,3
4,test,5,0.0,2-Back,1,m,Fri Feb 21 2025 09:30:39 GMT-0600 (Central Standard Time),602585.299999997,041_y_m_n_a.png,I,m,1244,6,1,2256.2000000029802,600329.099999994,8031,NNB,A,4
5,test,5,0.0,2-Back,1,m,Fri Feb 21 2025 09:30:39 GMT-0600 (Central Standard Time),604436.1999999955,010_y_f_n_a.png,I,m,833,7,1,1841.1999999955297,602595.0,8031,NNB,A,5
6,test,5,0.0,2-Back,1,m,Fri Feb 21 2025 09:30:39 GMT-0600 (Central Standard Time),606269.599999994,047_o_f_n_a.png,I,m,816,8,1,1824.2999999970198,604445.299999997,8031,NNB,A,6
7,test,5,1.0,2-Back,1,z,Fri Feb 21 2025 09:30:39 GMT-0600 (Central Standard Time),608268.3999999985,010_y_f_n_a.png,I,z,968,9,1,1990.6000000014901,606277.799999997,8031,NNB,A,7
8,test,5,0.0,2-Back,1,m,Fri Feb 21 2025 09:30:39 GMT-0600 (Central Standard Time),610082.599999994,046_o_m_n_a.png,I,m,792,10,1,1804.8999999985099,608277.6999999955,8031,NNB,A,8
9,test,5,0.0,2-Back,1,m,Fri Feb 21 2025 09:30:39 GMT-0600 (Central Standard Time),612016.799999997,043_m_f_n_a.png,I,m,914,11,1,1924.5,610092.299999997,8031,NNB,A,9
10,test,5,0.0,2-Back,1,m,Fri Feb 21 2025 09:30:39 GMT-0600 (Central Standard Time),613798.599999994,058_m_m_n_a.png,I,m,756,12,1,1772.2999999970198,612026.299999997,8031,NNB,A,10
11,test,5,0.0,2-Back,1,m,Fri Feb 21 2025 09:30:39 GMT-0600 (Central Standard Time),616031.6999999955,046_o_m_n_a.png,I,m,1201,13,1,2223.5,613808.1999999955,8031,NNB,A,11
12,test,5,1.0,2-Back,1,z,Fri Feb 21 2025 09:30:39 GMT-0600 (Central Standard Time),617930.3999999985,058_m_m_n_a.png,I,z,877,14,1,1889.8999999985099,616040.5,8031,NNB,A,12
13,test,5,0.0,2-Back,1,m,Fri Feb 21 2025 09:30:39 GMT-0600 (Central Standard Time),619798.799999997,063_y_f_n_a.png,I,m,849,15,1,1859.0,617939.799999997,8031,NNB,A,13
14,test,5,0.0,2-Back,1,m,Fri Feb 21 2025 09:30:39 GMT-0600 (Central Standard Time),621964.0,053_o_m_n_a.png,I,m,1134,16,1,2157.7000000029802,619806.299999997,8031,NNB,A,14
15,test,5,0.0,2-Back,1,m,Fri Feb 21 2025 09:30:39 GMT-0600 (Central Standard Time),623581.0,043_m_f_n_a.png,I,m,582,17,1,1606.5,621974.5,8031,NNB,A,15
16,test,5,1.0,2-Back,1,z,Fri Feb 21 2025 09:30:39 GMT-0600 (Central Standard Time),625197.799999997,053_o_m_n_a.png,I,z,599,18,1,1608.7999999970198,623589.0,8031,NNB,A,16
