acc_sum,block,block_c,change,condition,correct,correct_response,datetime,endtime,face,project,response,response_time,row_sel,session_number,start_end,starttime,subject_id,task,task_vers,trial
0,prac,1,,1-Back,,,Thu Apr 03 2025 13:29:08 GMT-0500 (Central Daylight Time),,050_m_f_n_a.png,O,space,18089,1,1,,,7113,NNB,A,0
1,prac,1,0.0,1-Back,1,m,Thu Apr 03 2025 13:29:08 GMT-0500 (Central Daylight Time),163254.0,063_y_f_n_a.png,O,m,709,2,1,1535.2000000476837,161718.79999995232,7113,NNB,A,1
2,prac,1,1.0,1-Back,1,z,Thu Apr 03 2025 13:29:08 GMT-0500 (Central Daylight Time),165003.19999998808,063_y_f_n_a.png,O,z,954,3,1,1721.9000000357628,163281.29999995232,7113,NNB,A,2
3,prac,1,0.0,1-Back,1,m,Thu Apr 03 2025 13:29:08 GMT-0500 (Central Daylight Time),166785.29999995232,053_o_m_n_a.png,O,m,910,4,1,1743.199999988079,165042.09999996424,7113,NNB,A,3
3,prac,1,0.0,1-Back,0,m,Thu Apr 03 2025 13:29:08 GMT-0500 (Central Daylight Time),168401.59999996424,058_m_m_n_a.png,O,z,761,5,1,1584.800000011921,166816.79999995232,7113,NNB,A,4
4,prac,1,1.0,1-Back,1,z,Thu Apr 03 2025 13:29:08 GMT-0500 (Central Daylight Time),170417.69999998808,058_m_m_n_a.png,O,z,1207,6,1,1981.9000000357628,168435.79999995232,7113,NNB,A,5
5,prac,1,0.0,1-Back,1,m,Thu Apr 03 2025 13:29:08 GMT-0500 (Central Daylight Time),172349.29999995232,047_o_f_n_a.png,O,m,1029,7,1,1900.8999999761581,170448.39999997616,7113,NNB,A,6
6,prac,1,0.0,1-Back,1,m,Thu Apr 03 2025 13:29:08 GMT-0500 (Central Daylight Time),174449.59999996424,045_m_m_n_a.png,O,m,1265,8,1,2085.699999988079,172363.89999997616,7113,NNB,A,7
7,prac,1,0.0,1-Back,1,m,Thu Apr 03 2025 13:29:08 GMT-0500 (Central Daylight Time),176248.79999995232,050_m_f_n_a.png,O,m,916,9,1,1759.2999999523163,174489.5,7113,NNB,A,8
8,prac,1,1.0,1-Back,1,z,Thu Apr 03 2025 13:29:08 GMT-0500 (Central Daylight Time),177965.19999998808,050_m_f_n_a.png,O,z,911,10,1,1689.199999988079,176276.0,7113,NNB,A,9
9,prac,1,0.0,1-Back,1,m,Thu Apr 03 2025 13:29:08 GMT-0500 (Central Daylight Time),179698.29999995232,053_o_m_n_a.png,O,m,865,11,1,1695.3999999761581,178002.89999997616,7113,NNB,A,10
10,prac,1,0.0,1-Back,1,m,Thu Apr 03 2025 13:29:08 GMT-0500 (Central Daylight Time),181413.89999997616,010_y_f_n_a.png,O,m,825,12,1,1687.300000011921,179726.59999996424,7113,NNB,A,11
0,test,1,0.0,1-Back,,,Thu Apr 03 2025 13:29:08 GMT-0500 (Central Daylight Time),181413.89999997616,063_y_f_n_a.png,O,space,11559,1,1,1687.300000011921,179726.59999996424,7113,NNB,A,0
1,test,1,0.0,1-Back,1,m,Thu Apr 03 2025 13:29:08 GMT-0500 (Central Daylight Time),203806.59999996424,043_m_f_n_a.png,O,m,920,2,1,1941.8999999761581,201864.69999998808,7113,NNB,A,1
1,test,1,0.0,1-Back,0,m,Thu Apr 03 2025 13:29:08 GMT-0500 (Central Daylight Time),205656.0,010_y_f_n_a.png,O,z,803,3,1,1821.4000000357628,203834.59999996424,7113,NNB,A,2
2,test,1,1.0,1-Back,1,z,Thu Apr 03 2025 13:29:08 GMT-0500 (Central Daylight Time),207838.5,010_y_f_n_a.png,O,z,1138,4,1,2151.7000000476837,205686.79999995232,7113,NNB,A,3
3,test,1,0.0,1-Back,1,m,Thu Apr 03 2025 13:29:08 GMT-0500 (Central Daylight Time),210137.79999995232,043_m_f_n_a.png,O,m,1251,5,1,2275.7999999523163,207862.0,7113,NNB,A,4
4,test,1,0.0,1-Back,1,m,Thu Apr 03 2025 13:29:08 GMT-0500 (Central Daylight Time),211953.69999998808,053_o_m_n_a.png,O,m,776,6,1,1788.5,210165.19999998808,7113,NNB,A,5
5,test,1,1.0,1-Back,1,z,Thu Apr 03 2025 13:29:08 GMT-0500 (Central Daylight Time),213919.89999997616,053_o_m_n_a.png,O,z,903,7,1,1935.199999988079,211984.69999998808,7113,NNB,A,6
6,test,1,0.0,1-Back,1,m,Thu Apr 03 2025 13:29:08 GMT-0500 (Central Daylight Time),216035.79999995232,058_m_m_n_a.png,O,m,1074,8,1,2090.0,213945.79999995232,7113,NNB,A,7
7,test,1,0.0,1-Back,1,m,Thu Apr 03 2025 13:29:08 GMT-0500 (Central Daylight Time),218201.69999998808,047_o_f_n_a.png,O,m,1117,9,1,2135.900000035763,216065.79999995232,7113,NNB,A,8
8,test,1,0.0,1-Back,1,m,Thu Apr 03 2025 13:29:08 GMT-0500 (Central Daylight Time),220001.19999998808,058_m_m_n_a.png,O,m,752,10,1,1769.0,218232.19999998808,7113,NNB,A,9
9,test,1,0.0,1-Back,1,m,Thu Apr 03 2025 13:29:08 GMT-0500 (Central Daylight Time),221917.0,041_y_m_n_a.png,O,m,871,11,1,1885.2000000476837,220031.79999995232,7113,NNB,A,10
10,test,1,1.0,1-Back,1,z,Thu Apr 03 2025 13:29:08 GMT-0500 (Central Daylight Time),223799.69999998808,041_y_m_n_a.png,O,z,844,12,1,1853.1000000238419,221946.59999996424,7113,NNB,A,11
11,test,1,0.0,1-Back,1,m,Thu Apr 03 2025 13:29:08 GMT-0500 (Central Daylight Time),226199.09999996424,044_o_f_n_a.png,O,m,1362,13,1,2376.199999988079,223822.89999997616,7113,NNB,A,12
12,test,1,1.0,1-Back,1,z,Thu Apr 03 2025 13:29:08 GMT-0500 (Central Daylight Time),228165.29999995232,044_o_f_n_a.png,O,z,906,14,1,1934.199999988079,226231.09999996424,7113,NNB,A,13
13,test,1,0.0,1-Back,1,m,Thu Apr 03 2025 13:29:08 GMT-0500 (Central Daylight Time),230364.89999997616,008_y_m_n_a.png,O,m,1164,15,1,2171.0,228193.89999997616,7113,NNB,A,14
14,test,1,0.0,1-Back,1,m,Thu Apr 03 2025 13:29:08 GMT-0500 (Central Daylight Time),232263.89999997616,050_m_f_n_a.png,O,m,861,16,1,1873.800000011921,230390.09999996424,7113,NNB,A,15
15,test,1,0.0,1-Back,1,m,Thu Apr 03 2025 13:29:08 GMT-0500 (Central Daylight Time),234196.89999997616,046_o_m_n_a.png,O,m,897,17,1,1903.3999999761581,232293.5,7113,NNB,A,16
16,test,1,0.0,1-Back,1,m,Thu Apr 03 2025 13:29:08 GMT-0500 (Central Daylight Time),236762.39999997616,050_m_f_n_a.png,O,m,1516,18,1,2536.600000023842,234225.79999995232,7113,NNB,A,17
0,test,2,0.0,1-Back,,,Thu Apr 03 2025 13:29:08 GMT-0500 (Central Daylight Time),236762.39999997616,058_m_m_n_a.png,O,space,2550,1,1,2536.600000023842,234225.79999995232,7113,NNB,A,0
1,test,2,0.0,1-Back,1,m,Thu Apr 03 2025 13:29:08 GMT-0500 (Central Daylight Time),243443.69999998808,043_m_f_n_a.png,O,m,1007,2,1,2020.300000011921,241423.39999997616,7113,NNB,A,1
2,test,2,1.0,1-Back,1,z,Thu Apr 03 2025 13:29:08 GMT-0500 (Central Daylight Time),245393.09999996424,043_m_f_n_a.png,O,z,902,3,1,1924.0999999642372,243469.0,7113,NNB,A,2
3,test,2,0.0,1-Back,1,m,Thu Apr 03 2025 13:29:08 GMT-0500 (Central Daylight Time),247475.5,058_m_m_n_a.png,O,m,1041,4,1,2053.600000023842,245421.89999997616,7113,NNB,A,3
4,test,2,0.0,1-Back,1,m,Thu Apr 03 2025 13:29:08 GMT-0500 (Central Daylight Time),249491.29999995232,041_y_m_n_a.png,O,m,966,5,1,1995.199999988079,247496.09999996424,7113,NNB,A,4
5,test,2,0.0,1-Back,1,m,Thu Apr 03 2025 13:29:08 GMT-0500 (Central Daylight Time),251290.59999996424,063_y_f_n_a.png,O,m,758,6,1,1768.5999999642372,249522.0,7113,NNB,A,5
6,test,2,1.0,1-Back,1,z,Thu Apr 03 2025 13:29:08 GMT-0500 (Central Daylight Time),253490.39999997616,063_y_f_n_a.png,O,z,1151,7,1,2169.300000011921,251321.09999996424,7113,NNB,A,6
7,test,2,0.0,1-Back,1,m,Thu Apr 03 2025 13:29:08 GMT-0500 (Central Daylight Time),255273.0,041_y_m_n_a.png,O,m,735,8,1,1756.6000000238419,253516.39999997616,7113,NNB,A,7
8,test,2,0.0,1-Back,1,m,Thu Apr 03 2025 13:29:08 GMT-0500 (Central Daylight Time),257121.89999997616,044_o_f_n_a.png,O,m,801,9,1,1818.8999999761581,255303.0,7113,NNB,A,8
9,test,2,0.0,1-Back,1,m,Thu Apr 03 2025 13:29:08 GMT-0500 (Central Daylight Time),259171.69999998808,045_m_m_n_a.png,O,m,999,10,1,2030.9000000357628,257140.79999995232,7113,NNB,A,9
10,test,2,1.0,1-Back,1,z,Thu Apr 03 2025 13:29:08 GMT-0500 (Central Daylight Time),261037.69999998808,045_m_m_n_a.png,O,z,822,11,1,1835.699999988079,259202.0,7113,NNB,A,10
11,test,2,0.0,1-Back,1,m,Thu Apr 03 2025 13:29:08 GMT-0500 (Central Daylight Time),262837.0,044_o_f_n_a.png,O,m,766,12,1,1768.800000011921,261068.19999998808,7113,NNB,A,11
12,test,2,0.0,1-Back,1,m,Thu Apr 03 2025 13:29:08 GMT-0500 (Central Daylight Time),265069.7999999523,047_o_f_n_a.png,O,m,1172,13,1,2199.2999999523163,262870.5,7113,NNB,A,12
13,test,2,0.0,1-Back,1,m,Thu Apr 03 2025 13:29:08 GMT-0500 (Central Daylight Time),267019.0,053_o_m_n_a.png,O,m,908,14,1,1922.7000000476837,265096.2999999523,7113,NNB,A,13
14,test,2,0.0,1-Back,1,m,Thu Apr 03 2025 13:29:08 GMT-0500 (Central Daylight Time),268818.39999997616,046_o_m_n_a.png,O,m,758,15,1,1772.1000000238419,267046.2999999523,7113,NNB,A,14
15,test,2,1.0,1-Back,1,z,Thu Apr 03 2025 13:29:08 GMT-0500 (Central Daylight Time),270684.6999999881,046_o_m_n_a.png,O,z,816,16,1,1838.199999988079,268846.5,7113,NNB,A,15
16,test,2,0.0,1-Back,1,m,Thu Apr 03 2025 13:29:08 GMT-0500 (Central Daylight Time),272733.2999999523,008_y_m_n_a.png,O,m,1014,17,1,2024.7999999523163,270708.5,7113,NNB,A,16
17,test,2,1.0,1-Back,1,z,Thu Apr 03 2025 13:29:08 GMT-0500 (Central Daylight Time),274516.59999996424,008_y_m_n_a.png,O,z,723,18,1,1748.0,272768.59999996424,7113,NNB,A,17
0,test,3,1.0,1-Back,,,Thu Apr 03 2025 13:29:08 GMT-0500 (Central Daylight Time),274516.59999996424,010_y_f_n_a.png,O,space,1749,1,1,1748.0,272768.59999996424,7113,NNB,A,0
1,test,3,0.0,1-Back,1,m,Thu Apr 03 2025 13:29:08 GMT-0500 (Central Daylight Time),280481.59999996424,046_o_m_n_a.png,O,m,1018,2,1,2037.8999999761581,278443.6999999881,7113,NNB,A,1
2,test,3,1.0,1-Back,1,z,Thu Apr 03 2025 13:29:08 GMT-0500 (Central Daylight Time),282380.5,046_o_m_n_a.png,O,z,839,3,1,1866.2000000476837,280514.2999999523,7113,NNB,A,2
3,test,3,0.0,1-Back,1,m,Thu Apr 03 2025 13:29:08 GMT-0500 (Central Daylight Time),284763.1999999881,050_m_f_n_a.png,O,m,1340,4,1,2355.699999988079,282407.5,7113,NNB,A,3
4,test,3,1.0,1-Back,1,z,Thu Apr 03 2025 13:29:08 GMT-0500 (Central Daylight Time),286645.39999997616,050_m_f_n_a.png,O,z,846,5,1,1851.300000011921,284794.09999996424,7113,NNB,A,4
5,test,3,0.0,1-Back,1,m,Thu Apr 03 2025 13:29:08 GMT-0500 (Central Daylight Time),288712.0,044_o_f_n_a.png,O,m,1028,6,1,2043.6000000238419,286668.39999997616,7113,NNB,A,5
6,test,3,0.0,1-Back,1,m,Thu Apr 03 2025 13:29:08 GMT-0500 (Central Daylight Time),291211.5,041_y_m_n_a.png,O,m,1449,7,1,2474.100000023842,288737.39999997616,7113,NNB,A,6
7,test,3,0.0,1-Back,1,m,Thu Apr 03 2025 13:29:08 GMT-0500 (Central Daylight Time),293343.7999999523,044_o_f_n_a.png,O,m,1078,8,1,2098.399999976158,291245.39999997616,7113,NNB,A,7
8,test,3,0.0,1-Back,1,m,Thu Apr 03 2025 13:29:08 GMT-0500 (Central Daylight Time),295409.7999999523,008_y_m_n_a.png,O,m,1009,9,1,2032.8999999761581,293376.89999997616,7113,NNB,A,8
9,test,3,1.0,1-Back,1,z,Thu Apr 03 2025 13:29:08 GMT-0500 (Central Daylight Time),297292.59999996424,008_y_m_n_a.png,O,z,815,10,1,1849.800000011921,295442.7999999523,7113,NNB,A,9
10,test,3,0.0,1-Back,1,m,Thu Apr 03 2025 13:29:08 GMT-0500 (Central Daylight Time),299307.59999996424,043_m_f_n_a.png,O,m,980,11,1,1990.3999999761581,297317.1999999881,7113,NNB,A,10
11,test,3,0.0,1-Back,1,m,Thu Apr 03 2025 13:29:08 GMT-0500 (Central Daylight Time),301207.39999997616,063_y_f_n_a.png,O,m,878,12,1,1885.699999988079,299321.6999999881,7113,NNB,A,11
12,test,3,1.0,1-Back,1,z,Thu Apr 03 2025 13:29:08 GMT-0500 (Central Daylight Time),303257.39999997616,063_y_f_n_a.png,O,z,993,13,1,2018.0,301239.39999997616,7113,NNB,A,12
13,test,3,0.0,1-Back,1,m,Thu Apr 03 2025 13:29:08 GMT-0500 (Central Daylight Time),305173.1999999881,043_m_f_n_a.png,O,m,880,14,1,1888.0,303285.1999999881,7113,NNB,A,13
14,test,3,0.0,1-Back,1,m,Thu Apr 03 2025 13:29:08 GMT-0500 (Central Daylight Time),306989.2999999523,058_m_m_n_a.png,O,m,772,15,1,1786.0999999642372,305203.1999999881,7113,NNB,A,14
15,test,3,1.0,1-Back,1,z,Thu Apr 03 2025 13:29:08 GMT-0500 (Central Daylight Time),308871.89999997616,058_m_m_n_a.png,O,z,844,16,1,1852.199999988079,307019.6999999881,7113,NNB,A,15
16,test,3,0.0,1-Back,1,m,Thu Apr 03 2025 13:29:08 GMT-0500 (Central Daylight Time),310720.6999999881,047_o_f_n_a.png,O,m,800,17,1,1823.1000000238419,308897.59999996424,7113,NNB,A,16
17,test,3,1.0,1-Back,1,z,Thu Apr 03 2025 13:29:08 GMT-0500 (Central Daylight Time),312487.39999997616,047_o_f_n_a.png,O,z,745,18,1,1758.5,310728.89999997616,7113,NNB,A,17
0,test,4,1.0,1-Back,,,Thu Apr 03 2025 13:29:08 GMT-0500 (Central Daylight Time),312487.39999997616,050_m_f_n_a.png,O,space,1794,1,1,1758.5,310728.89999997616,7113,NNB,A,0
1,test,4,0.0,1-Back,1,m,Thu Apr 03 2025 13:29:08 GMT-0500 (Central Daylight Time),318285.89999997616,046_o_m_n_a.png,O,m,850,2,1,1869.1000000238419,316416.7999999523,7113,NNB,A,1
2,test,4,0.0,1-Back,1,m,Thu Apr 03 2025 13:29:08 GMT-0500 (Central Daylight Time),320601.5,050_m_f_n_a.png,O,m,1277,3,1,2285.0,318316.5,7113,NNB,A,2
3,test,4,0.0,1-Back,1,m,Thu Apr 03 2025 13:29:08 GMT-0500 (Central Daylight Time),322350.09999996424,044_o_f_n_a.png,O,m,713,4,1,1722.5,320627.59999996424,7113,NNB,A,3
4,test,4,1.0,1-Back,1,z,Thu Apr 03 2025 13:29:08 GMT-0500 (Central Daylight Time),324217.09999996424,044_o_f_n_a.png,O,z,835,5,1,1853.199999988079,322363.89999997616,7113,NNB,A,4
5,test,4,0.0,1-Back,1,m,Thu Apr 03 2025 13:29:08 GMT-0500 (Central Daylight Time),326349.39999997616,063_y_f_n_a.png,O,m,1082,6,1,2101.699999988079,324247.6999999881,7113,NNB,A,5
6,test,4,0.0,1-Back,1,m,Thu Apr 03 2025 13:29:08 GMT-0500 (Central Daylight Time),328182.1999999881,041_y_m_n_a.png,O,m,795,7,1,1802.0,326380.1999999881,7113,NNB,A,6
7,test,4,1.0,1-Back,1,z,Thu Apr 03 2025 13:29:08 GMT-0500 (Central Daylight Time),330015.1999999881,041_y_m_n_a.png,O,z,788,8,1,1801.6000000238419,328213.59999996424,7113,NNB,A,7
8,test,4,0.0,1-Back,1,m,Thu Apr 03 2025 13:29:08 GMT-0500 (Central Daylight Time),331847.59999996424,063_y_f_n_a.png,O,m,786,9,1,1803.5,330044.09999996424,7113,NNB,A,8
9,test,4,0.0,1-Back,1,m,Thu Apr 03 2025 13:29:08 GMT-0500 (Central Daylight Time),333647.1999999881,045_m_m_n_a.png,O,m,754,10,1,1771.199999988079,331876.0,7113,NNB,A,9
10,test,4,1.0,1-Back,1,z,Thu Apr 03 2025 13:29:08 GMT-0500 (Central Daylight Time),335479.89999997616,045_m_m_n_a.png,O,z,787,11,1,1805.300000011921,333674.59999996424,7113,NNB,A,10
11,test,4,0.0,1-Back,1,m,Thu Apr 03 2025 13:29:08 GMT-0500 (Central Daylight Time),337229.5,047_o_f_n_a.png,O,m,706,12,1,1721.800000011921,335507.6999999881,7113,NNB,A,11
12,test,4,0.0,1-Back,1,m,Thu Apr 03 2025 13:29:08 GMT-0500 (Central Daylight Time),339011.89999997616,053_o_m_n_a.png,O,m,727,13,1,1750.3999999761581,337261.5,7113,NNB,A,12
13,test,4,0.0,1-Back,1,m,Thu Apr 03 2025 13:29:08 GMT-0500 (Central Daylight Time),341029.1999999881,047_o_f_n_a.png,O,m,965,14,1,1980.9000000357628,339048.2999999523,7113,NNB,A,13
14,test,4,0.0,1-Back,1,m,Thu Apr 03 2025 13:29:08 GMT-0500 (Central Daylight Time),342777.5,010_y_f_n_a.png,O,m,710,15,1,1721.300000011921,341056.1999999881,7113,NNB,A,14
15,test,4,1.0,1-Back,1,z,Thu Apr 03 2025 13:29:08 GMT-0500 (Central Daylight Time),344661.1999999881,010_y_f_n_a.png,O,z,850,16,1,1860.5,342800.6999999881,7113,NNB,A,15
16,test,4,0.0,1-Back,1,m,Thu Apr 03 2025 13:29:08 GMT-0500 (Central Daylight Time),346709.5,043_m_f_n_a.png,O,m,1014,17,1,2022.9000000357628,344686.59999996424,7113,NNB,A,16
17,test,4,1.0,1-Back,1,z,Thu Apr 03 2025 13:29:08 GMT-0500 (Central Daylight Time),348558.89999997616,043_m_f_n_a.png,O,z,788,18,1,1816.800000011921,346742.09999996424,7113,NNB,A,17
0,test,5,1.0,1-Back,,,Thu Apr 03 2025 13:29:08 GMT-0500 (Central Daylight Time),348558.89999997616,053_o_m_n_a.png,O,space,1403,1,1,1816.800000011921,346742.09999996424,7113,NNB,A,0
1,test,5,1.0,1-Back,1,z,Thu Apr 03 2025 13:29:08 GMT-0500 (Central Daylight Time),354023.7999999523,053_o_m_n_a.png,O,z,912,2,1,1931.199999988079,352092.59999996424,7113,NNB,A,1
2,test,5,0.0,1-Back,1,m,Thu Apr 03 2025 13:29:08 GMT-0500 (Central Daylight Time),356006.39999997616,063_y_f_n_a.png,O,m,946,3,1,1958.1000000238419,354048.2999999523,7113,NNB,A,2
3,test,5,0.0,1-Back,1,m,Thu Apr 03 2025 13:29:08 GMT-0500 (Central Daylight Time),357939.1999999881,041_y_m_n_a.png,O,m,891,4,1,1909.699999988079,356029.5,7113,NNB,A,3
4,test,5,0.0,1-Back,1,m,Thu Apr 03 2025 13:29:08 GMT-0500 (Central Daylight Time),359655.1999999881,063_y_f_n_a.png,O,m,662,5,1,1684.6000000238419,357970.59999996424,7113,NNB,A,4
5,test,5,0.0,1-Back,1,m,Thu Apr 03 2025 13:29:08 GMT-0500 (Central Daylight Time),361454.39999997616,058_m_m_n_a.png,O,m,762,6,1,1769.199999988079,359685.1999999881,7113,NNB,A,5
5,test,5,1.0,1-Back,0,z,Thu Apr 03 2025 13:29:08 GMT-0500 (Central Daylight Time),363837.39999997616,058_m_m_n_a.png,O,m,1339,7,1,2353.5,361483.89999997616,7113,NNB,A,6
6,test,5,0.0,1-Back,1,m,Thu Apr 03 2025 13:29:08 GMT-0500 (Central Daylight Time),365786.89999997616,010_y_f_n_a.png,O,m,900,8,1,1923.5,363863.39999997616,7113,NNB,A,7
7,test,5,0.0,1-Back,1,m,Thu Apr 03 2025 13:29:08 GMT-0500 (Central Daylight Time),367602.6999999881,008_y_m_n_a.png,O,m,758,9,1,1780.800000011921,365821.89999997616,7113,NNB,A,8
8,test,5,0.0,1-Back,1,m,Thu Apr 03 2025 13:29:08 GMT-0500 (Central Daylight Time),369669.39999997616,010_y_f_n_a.png,O,m,1032,10,1,2036.300000011921,367633.09999996424,7113,NNB,A,9
9,test,5,0.0,1-Back,1,m,Thu Apr 03 2025 13:29:08 GMT-0500 (Central Daylight Time),371484.7999999523,047_o_f_n_a.png,O,m,756,11,1,1784.199999988079,369700.59999996424,7113,NNB,A,10
10,test,5,1.0,1-Back,1,z,Thu Apr 03 2025 13:29:08 GMT-0500 (Central Daylight Time),373400.89999997616,047_o_f_n_a.png,O,z,869,12,1,1890.800000011921,371510.09999996424,7113,NNB,A,11
11,test,5,0.0,1-Back,1,m,Thu Apr 03 2025 13:29:08 GMT-0500 (Central Daylight Time),375350.09999996424,046_o_m_n_a.png,O,m,913,13,1,1923.5999999642372,373426.5,7113,NNB,A,12
12,test,5,0.0,1-Back,1,m,Thu Apr 03 2025 13:29:08 GMT-0500 (Central Daylight Time),377149.39999997616,050_m_f_n_a.png,O,m,763,14,1,1772.699999988079,375376.6999999881,7113,NNB,A,13
13,test,5,1.0,1-Back,1,z,Thu Apr 03 2025 13:29:08 GMT-0500 (Central Daylight Time),379065.2999999523,050_m_f_n_a.png,O,z,877,15,1,1888.5,377176.7999999523,7113,NNB,A,14
14,test,5,0.0,1-Back,1,m,Thu Apr 03 2025 13:29:08 GMT-0500 (Central Daylight Time),380747.5,046_o_m_n_a.png,O,m,639,16,1,1650.7000000476837,379096.7999999523,7113,NNB,A,15
15,test,5,0.0,1-Back,1,m,Thu Apr 03 2025 13:29:08 GMT-0500 (Central Daylight Time),382581.09999996424,043_m_f_n_a.png,O,m,806,17,1,1822.5999999642372,380758.5,7113,NNB,A,16
16,test,5,0.0,1-Back,1,m,Thu Apr 03 2025 13:29:08 GMT-0500 (Central Daylight Time),384413.59999996424,045_m_m_n_a.png,O,m,797,18,1,1805.0999999642372,382608.5,7113,NNB,A,17
0,prac,1,0.0,2-Back,,,Thu Apr 03 2025 13:29:08 GMT-0500 (Central Daylight Time),384413.59999996424,008_y_m_n_a.png,O,space,13580,1,1,1805.0999999642372,382608.5,7113,NNB,A,0
0,prac,1,0.0,2-Back,,,Thu Apr 03 2025 13:29:08 GMT-0500 (Central Daylight Time),384413.59999996424,043_m_f_n_a.png,O,space,13580,2,1,1805.0999999642372,382608.5,7113,NNB,A,0
1,prac,1,1.0,2-Back,1,m,Thu Apr 03 2025 13:29:08 GMT-0500 (Central Daylight Time),547843.8999999762,046_o_m_n_a.png,O,m,1039,3,1,1859.5,545984.3999999762,7113,NNB,A,1
1,prac,1,0.0,2-Back,0,m,Thu Apr 03 2025 13:29:08 GMT-0500 (Central Daylight Time),550759.3999999762,047_o_f_n_a.png,O,None,2013,4,1,2879.800000011921,547879.5999999642,7113,NNB,A,2
1,prac,1,0.0,2-Back,0,z,Thu Apr 03 2025 13:29:08 GMT-0500 (Central Daylight Time),553624.8999999762,046_o_m_n_a.png,O,None,2011,5,1,2835.600000023842,550789.2999999523,7113,NNB,A,3
1,prac,1,1.0,2-Back,0,z,Thu Apr 03 2025 13:29:08 GMT-0500 (Central Daylight Time),556524.2999999523,047_o_f_n_a.png,O,None,2004,6,1,2861.399999976158,553662.8999999762,7113,NNB,A,4
1,prac,1,0.0,2-Back,0,m,Thu Apr 03 2025 13:29:08 GMT-0500 (Central Daylight Time),559373.2999999523,045_m_m_n_a.png,O,None,2008,7,1,2821.5,556551.7999999523,7113,NNB,A,5
1,prac,1,0.0,2-Back,0,m,Thu Apr 03 2025 13:29:08 GMT-0500 (Central Daylight Time),562222.0,053_o_m_n_a.png,O,None,2008,8,1,2821.7000000476837,559400.2999999523,7113,NNB,A,6
1,prac,1,0.0,2-Back,0,m,Thu Apr 03 2025 13:29:08 GMT-0500 (Central Daylight Time),565121.0,010_y_f_n_a.png,O,None,2012,9,1,2870.600000023842,562250.3999999762,7113,NNB,A,7
1,prac,1,1.0,2-Back,0,z,Thu Apr 03 2025 13:29:08 GMT-0500 (Central Daylight Time),567937.0999999642,053_o_m_n_a.png,O,None,2013,10,1,2781.099999964237,565156.0,7113,NNB,A,8
1,prac,1,0.0,2-Back,0,m,Thu Apr 03 2025 13:29:08 GMT-0500 (Central Daylight Time),570819.2999999523,063_y_f_n_a.png,O,None,2011,11,1,2844.7999999523163,567974.5,7113,NNB,A,9
1,prac,1,0.0,2-Back,0,m,Thu Apr 03 2025 13:29:08 GMT-0500 (Central Daylight Time),573667.3999999762,045_m_m_n_a.png,O,None,2002,12,1,2812.199999988079,570855.1999999881,7113,NNB,A,10
0,prac,2,0.0,2-Back,,,Thu Apr 03 2025 13:29:08 GMT-0500 (Central Daylight Time),573667.3999999762,008_y_m_n_a.png,O,a,4035,1,1,2812.199999988079,570855.1999999881,7113,NNB,A,0
0,prac,2,0.0,2-Back,,,Thu Apr 03 2025 13:29:08 GMT-0500 (Central Daylight Time),573667.3999999762,043_m_f_n_a.png,O,a,4035,2,1,2812.199999988079,570855.1999999881,7113,NNB,A,0
1,prac,2,1.0,2-Back,1,m,Thu Apr 03 2025 13:29:08 GMT-0500 (Central Daylight Time),585331.5,046_o_m_n_a.png,O,m,1532,3,1,2353.400000035763,582978.0999999642,7113,NNB,A,1
1,prac,2,0.0,2-Back,0,m,Thu Apr 03 2025 13:29:08 GMT-0500 (Central Daylight Time),588247.0,047_o_f_n_a.png,O,None,2002,4,1,2874.7000000476837,585372.2999999523,7113,NNB,A,2
1,prac,2,0.0,2-Back,0,z,Thu Apr 03 2025 13:29:08 GMT-0500 (Central Daylight Time),590029.8999999762,046_o_m_n_a.png,O,m,967,5,1,1745.5,588284.3999999762,7113,NNB,A,3
1,prac,2,1.0,2-Back,0,z,Thu Apr 03 2025 13:29:08 GMT-0500 (Central Daylight Time),592362.2999999523,047_o_f_n_a.png,O,m,1528,6,1,2302.7999999523163,590059.5,7113,NNB,A,4
1,prac,2,0.0,2-Back,0,m,Thu Apr 03 2025 13:29:08 GMT-0500 (Central Daylight Time),595227.6999999881,045_m_m_n_a.png,O,None,2003,7,1,2830.699999988079,592397.0,7113,NNB,A,5
1,prac,2,0.0,2-Back,0,m,Thu Apr 03 2025 13:29:08 GMT-0500 (Central Daylight Time),597493.7999999523,053_o_m_n_a.png,O,z,1426,8,1,2240.899999976158,595252.8999999762,7113,NNB,A,6
2,prac,2,0.0,2-Back,1,m,Thu Apr 03 2025 13:29:08 GMT-0500 (Central Daylight Time),599876.5,010_y_f_n_a.png,O,m,1477,9,1,2349.5,597527.0,7113,NNB,A,7
2,prac,2,1.0,2-Back,0,z,Thu Apr 03 2025 13:29:08 GMT-0500 (Central Daylight Time),602309.0,053_o_m_n_a.png,O,m,1629,10,1,2407.0,599902.0,7113,NNB,A,8
2,prac,2,0.0,2-Back,0,m,Thu Apr 03 2025 13:29:08 GMT-0500 (Central Daylight Time),605207.8999999762,063_y_f_n_a.png,O,None,2009,11,1,2859.0,602348.8999999762,7113,NNB,A,9
2,prac,2,0.0,2-Back,0,m,Thu Apr 03 2025 13:29:08 GMT-0500 (Central Daylight Time),608057.1999999881,045_m_m_n_a.png,O,None,2002,12,1,2818.100000023842,605239.0999999642,7113,NNB,A,10
0,test,1,0.0,2-Back,,,Thu Apr 03 2025 13:29:08 GMT-0500 (Central Daylight Time),608057.1999999881,041_y_m_n_a.png,O,space,47464,1,1,2818.100000023842,605239.0999999642,7113,NNB,A,0
0,test,1,0.0,2-Back,,,Thu Apr 03 2025 13:29:08 GMT-0500 (Central Daylight Time),608057.1999999881,041_y_m_n_a.png,O,space,47464,2,1,2818.100000023842,605239.0999999642,7113,NNB,A,0
0,test,1,0.0,2-Back,0,m,Thu Apr 03 2025 13:29:08 GMT-0500 (Central Daylight Time),701593.5,047_o_f_n_a.png,O,None,2015,3,1,3024.600000023842,698568.8999999762,7113,NNB,A,1
0,test,1,0.0,2-Back,0,m,Thu Apr 03 2025 13:29:08 GMT-0500 (Central Daylight Time),704642.0,058_m_m_n_a.png,O,None,2014,4,1,3018.0,701624.0,7113,NNB,A,2
1,test,1,1.0,2-Back,1,z,Thu Apr 03 2025 13:29:08 GMT-0500 (Central Daylight Time),706808.0999999642,047_o_f_n_a.png,O,z,1111,5,1,2132.599999964237,704675.5,7113,NNB,A,3
2,test,1,0.0,2-Back,1,m,Thu Apr 03 2025 13:29:08 GMT-0500 (Central Daylight Time),708924.0999999642,063_y_f_n_a.png,O,m,1050,6,1,2080.099999964237,706844.0,7113,NNB,A,4
3,test,1,0.0,2-Back,1,m,Thu Apr 03 2025 13:29:08 GMT-0500 (Central Daylight Time),711623.0,058_m_m_n_a.png,O,m,1662,7,1,2674.800000011921,708948.1999999881,7113,NNB,A,5
4,test,1,1.0,2-Back,1,z,Thu Apr 03 2025 13:29:08 GMT-0500 (Central Daylight Time),713739.0999999642,063_y_f_n_a.png,O,z,1076,8,1,2090.899999976158,711648.1999999881,7113,NNB,A,6
5,test,1,0.0,2-Back,1,m,Thu Apr 03 2025 13:29:08 GMT-0500 (Central Daylight Time),716421.6999999881,008_y_m_n_a.png,O,m,1633,9,1,2648.100000023842,713773.5999999642,7113,NNB,A,7
6,test,1,0.0,2-Back,1,m,Thu Apr 03 2025 13:29:08 GMT-0500 (Central Daylight Time),718537.5999999642,044_o_f_n_a.png,O,m,1077,10,1,2090.0,716447.5999999642,7113,NNB,A,8
7,test,1,1.0,2-Back,1,z,Thu Apr 03 2025 13:29:08 GMT-0500 (Central Daylight Time),720620.2999999523,008_y_m_n_a.png,O,z,1017,11,1,2047.5,718572.7999999523,7113,NNB,A,9
8,test,1,0.0,2-Back,1,m,Thu Apr 03 2025 13:29:08 GMT-0500 (Central Daylight Time),722468.5999999642,043_m_f_n_a.png,O,m,806,12,1,1821.0999999642372,720647.5,7113,NNB,A,10
9,test,1,0.0,2-Back,1,m,Thu Apr 03 2025 13:29:08 GMT-0500 (Central Daylight Time),724967.8999999762,043_m_f_n_a.png,O,m,1470,13,1,2490.600000023842,722477.2999999523,7113,NNB,A,11
10,test,1,0.0,2-Back,1,m,Thu Apr 03 2025 13:29:08 GMT-0500 (Central Daylight Time),727700.5,046_o_m_n_a.png,O,m,1704,14,1,2722.600000023842,724977.8999999762,7113,NNB,A,12
11,test,1,0.0,2-Back,1,m,Thu Apr 03 2025 13:29:08 GMT-0500 (Central Daylight Time),730166.8999999762,044_o_f_n_a.png,O,m,1439,15,1,2457.0,727709.8999999762,7113,NNB,A,13
12,test,1,1.0,2-Back,1,z,Thu Apr 03 2025 13:29:08 GMT-0500 (Central Daylight Time),732566.0,046_o_m_n_a.png,O,z,1364,16,1,2372.900000035763,730193.0999999642,7113,NNB,A,14
13,test,1,0.0,2-Back,1,m,Thu Apr 03 2025 13:29:08 GMT-0500 (Central Daylight Time),734681.5,050_m_f_n_a.png,O,m,1068,17,1,2092.100000023842,732589.3999999762,7113,NNB,A,15
14,test,1,0.0,2-Back,1,m,Thu Apr 03 2025 13:29:08 GMT-0500 (Central Daylight Time),737614.3999999762,045_m_m_n_a.png,O,m,1914,18,1,2922.5,734691.8999999762,7113,NNB,A,16
0,test,2,0.0,2-Back,,,Thu Apr 03 2025 13:29:08 GMT-0500 (Central Daylight Time),737614.3999999762,045_m_m_n_a.png,O,space,2508,1,1,2922.5,734691.8999999762,7113,NNB,A,0
0,test,2,0.0,2-Back,,,Thu Apr 03 2025 13:29:08 GMT-0500 (Central Daylight Time),737614.3999999762,010_y_f_n_a.png,O,space,2508,2,1,2922.5,734691.8999999762,7113,NNB,A,0
1,test,2,1.0,2-Back,1,z,Thu Apr 03 2025 13:29:08 GMT-0500 (Central Daylight Time),747460.6999999881,045_m_m_n_a.png,O,z,1115,3,1,2133.800000011921,745326.8999999762,7113,NNB,A,1
2,test,2,0.0,2-Back,1,m,Thu Apr 03 2025 13:29:08 GMT-0500 (Central Daylight Time),750210.2999999523,050_m_f_n_a.png,O,m,1709,4,1,2718.5,747491.7999999523,7113,NNB,A,2
3,test,2,0.0,2-Back,1,m,Thu Apr 03 2025 13:29:08 GMT-0500 (Central Daylight Time),752493.3999999762,010_y_f_n_a.png,O,m,1231,5,1,2249.399999976158,750244.0,7113,NNB,A,3
4,test,2,0.0,2-Back,1,m,Thu Apr 03 2025 13:29:08 GMT-0500 (Central Daylight Time),754675.7999999523,046_o_m_n_a.png,O,m,1116,6,1,2148.399999976158,752527.3999999762,7113,NNB,A,4
5,test,2,0.0,2-Back,1,m,Thu Apr 03 2025 13:29:08 GMT-0500 (Central Daylight Time),756824.8999999762,063_y_f_n_a.png,O,m,1111,7,1,2125.5,754699.3999999762,7113,NNB,A,5
6,test,2,1.0,2-Back,1,z,Thu Apr 03 2025 13:29:08 GMT-0500 (Central Daylight Time),759007.5999999642,046_o_m_n_a.png,O,z,1137,8,1,2152.800000011921,756854.7999999523,7113,NNB,A,6
7,test,2,0.0,2-Back,1,m,Thu Apr 03 2025 13:29:08 GMT-0500 (Central Daylight Time),761490.0999999642,008_y_m_n_a.png,O,m,1428,9,1,2448.800000011921,759041.2999999523,7113,NNB,A,7
8,test,2,0.0,2-Back,1,m,Thu Apr 03 2025 13:29:08 GMT-0500 (Central Daylight Time),764255.7999999523,008_y_m_n_a.png,O,m,1712,10,1,2732.2999999523163,761523.5,7113,NNB,A,8
9,test,2,0.0,2-Back,1,m,Thu Apr 03 2025 13:29:08 GMT-0500 (Central Daylight Time),766606.0,043_m_f_n_a.png,O,m,1298,11,1,2317.5,764288.5,7113,NNB,A,9
10,test,2,0.0,2-Back,1,m,Thu Apr 03 2025 13:29:08 GMT-0500 (Central Daylight Time),769003.8999999762,010_y_f_n_a.png,O,m,1365,12,1,2368.800000011921,766635.0999999642,7113,NNB,A,10
11,test,2,1.0,2-Back,1,z,Thu Apr 03 2025 13:29:08 GMT-0500 (Central Daylight Time),771103.7999999523,043_m_f_n_a.png,O,z,1081,13,1,2086.2999999523163,769017.5,7113,NNB,A,11
12,test,2,0.0,2-Back,1,m,Thu Apr 03 2025 13:29:08 GMT-0500 (Central Daylight Time),773036.2999999523,053_o_m_n_a.png,O,m,883,14,1,1902.199999988079,771134.0999999642,7113,NNB,A,12
13,test,2,0.0,2-Back,1,m,Thu Apr 03 2025 13:29:08 GMT-0500 (Central Daylight Time),775252.2999999523,053_o_m_n_a.png,O,m,1174,15,1,2193.0,773059.2999999523,7113,NNB,A,13
14,test,2,0.0,2-Back,1,m,Thu Apr 03 2025 13:29:08 GMT-0500 (Central Daylight Time),777601.1999999881,044_o_f_n_a.png,O,m,1302,16,1,2321.800000011921,775279.3999999762,7113,NNB,A,14
15,test,2,0.0,2-Back,1,m,Thu Apr 03 2025 13:29:08 GMT-0500 (Central Daylight Time),779634.0,058_m_m_n_a.png,O,m,978,17,1,1997.2000000476837,777636.7999999523,7113,NNB,A,15
16,test,2,1.0,2-Back,1,z,Thu Apr 03 2025 13:29:08 GMT-0500 (Central Daylight Time),781700.5,044_o_f_n_a.png,O,z,1015,18,1,2039.9000000357628,779660.5999999642,7113,NNB,A,16
0,test,3,1.0,2-Back,,,Thu Apr 03 2025 13:29:08 GMT-0500 (Central Daylight Time),781700.5,041_y_m_n_a.png,O,space,1438,1,1,2039.9000000357628,779660.5999999642,7113,NNB,A,0
0,test,3,1.0,2-Back,,,Thu Apr 03 2025 13:29:08 GMT-0500 (Central Daylight Time),781700.5,041_y_m_n_a.png,O,space,1438,2,1,2039.9000000357628,779660.5999999642,7113,NNB,A,0
1,test,3,0.0,2-Back,1,m,Thu Apr 03 2025 13:29:08 GMT-0500 (Central Daylight Time),790247.5,044_o_f_n_a.png,O,m,879,3,1,1896.1000000238419,788351.3999999762,7113,NNB,A,1
2,test,3,0.0,2-Back,1,m,Thu Apr 03 2025 13:29:08 GMT-0500 (Central Daylight Time),792966.1999999881,045_m_m_n_a.png,O,m,1684,4,1,2689.699999988079,790276.5,7113,NNB,A,2
3,test,3,1.0,2-Back,1,z,Thu Apr 03 2025 13:29:08 GMT-0500 (Central Daylight Time),794995.1999999881,044_o_f_n_a.png,O,z,1007,5,1,2018.9000000357628,792976.2999999523,7113,NNB,A,3
3,test,3,0.0,2-Back,0,m,Thu Apr 03 2025 13:29:08 GMT-0500 (Central Daylight Time),797461.8999999762,008_y_m_n_a.png,O,z,1423,6,1,2450.899999976158,795011.0,7113,NNB,A,4
3,test,3,0.0,2-Back,0,m,Thu Apr 03 2025 13:29:08 GMT-0500 (Central Daylight Time),800043.7999999523,045_m_m_n_a.png,O,z,1524,7,1,2547.5,797496.2999999523,7113,NNB,A,5
4,test,3,1.0,2-Back,1,z,Thu Apr 03 2025 13:29:08 GMT-0500 (Central Daylight Time),802393.5,008_y_m_n_a.png,O,z,1301,8,1,2320.7000000476837,800072.7999999523,7113,NNB,A,6
5,test,3,0.0,2-Back,1,m,Thu Apr 03 2025 13:29:08 GMT-0500 (Central Daylight Time),804226.2999999523,010_y_f_n_a.png,O,m,785,9,1,1801.8999999761581,802424.3999999762,7113,NNB,A,7
6,test,3,0.0,2-Back,1,m,Thu Apr 03 2025 13:29:08 GMT-0500 (Central Daylight Time),806225.3999999762,058_m_m_n_a.png,O,m,954,10,1,1969.699999988079,804255.6999999881,7113,NNB,A,8
7,test,3,1.0,2-Back,1,z,Thu Apr 03 2025 13:29:08 GMT-0500 (Central Daylight Time),808591.2999999523,010_y_f_n_a.png,O,z,1314,11,1,2332.2999999523163,806259.0,7113,NNB,A,9
7,test,3,1.0,2-Back,0,z,Thu Apr 03 2025 13:29:08 GMT-0500 (Central Daylight Time),810940.7999999523,058_m_m_n_a.png,O,m,1283,12,1,2315.2999999523163,808625.5,7113,NNB,A,10
8,test,3,0.0,2-Back,1,m,Thu Apr 03 2025 13:29:08 GMT-0500 (Central Daylight Time),813223.1999999881,044_o_f_n_a.png,O,m,1221,13,1,2249.400000035763,810973.7999999523,7113,NNB,A,11
9,test,3,0.0,2-Back,1,m,Thu Apr 03 2025 13:29:08 GMT-0500 (Central Daylight Time),815655.5999999642,050_m_f_n_a.png,O,m,1388,14,1,2401.399999976158,813254.1999999881,7113,NNB,A,12
10,test,3,0.0,2-Back,1,m,Thu Apr 03 2025 13:29:08 GMT-0500 (Central Daylight Time),817688.5999999642,046_o_m_n_a.png,O,m,987,15,1,2003.300000011921,815685.2999999523,7113,NNB,A,13
11,test,3,1.0,2-Back,1,z,Thu Apr 03 2025 13:29:08 GMT-0500 (Central Daylight Time),819639.0999999642,050_m_f_n_a.png,O,z,899,16,1,1916.3999999761581,817722.6999999881,7113,NNB,A,14
12,test,3,0.0,2-Back,1,m,Thu Apr 03 2025 13:29:08 GMT-0500 (Central Daylight Time),821720.5,047_o_f_n_a.png,O,m,1020,17,1,2045.9000000357628,819674.5999999642,7113,NNB,A,15
13,test,3,0.0,2-Back,1,m,Thu Apr 03 2025 13:29:08 GMT-0500 (Central Daylight Time),824253.0,047_o_f_n_a.png,O,m,1482,18,1,2504.900000035763,821748.0999999642,7113,NNB,A,16
0,test,4,0.0,2-Back,,,Thu Apr 03 2025 13:29:08 GMT-0500 (Central Daylight Time),824253.0,053_o_m_n_a.png,O,space,1285,1,1,2504.900000035763,821748.0999999642,7113,NNB,A,0
0,test,4,0.0,2-Back,,,Thu Apr 03 2025 13:29:08 GMT-0500 (Central Daylight Time),824253.0,063_y_f_n_a.png,O,space,1285,2,1,2504.900000035763,821748.0999999642,7113,NNB,A,0
1,test,4,1.0,2-Back,1,z,Thu Apr 03 2025 13:29:08 GMT-0500 (Central Daylight Time),832616.7999999523,053_o_m_n_a.png,O,z,820,3,1,1839.2999999523163,830777.5,7113,NNB,A,1
1,test,4,1.0,2-Back,0,z,Thu Apr 03 2025 13:29:08 GMT-0500 (Central Daylight Time),834732.7999999523,063_y_f_n_a.png,O,m,1072,4,1,2089.899999976158,832642.8999999762,7113,NNB,A,2
1,test,4,0.0,2-Back,0,m,Thu Apr 03 2025 13:29:08 GMT-0500 (Central Daylight Time),837515.0999999642,044_o_f_n_a.png,O,z,1733,5,1,2751.5,834763.5999999642,7113,NNB,A,3
1,test,4,0.0,2-Back,0,m,Thu Apr 03 2025 13:29:08 GMT-0500 (Central Daylight Time),840330.8999999762,044_o_f_n_a.png,O,z,1750,6,1,2781.300000011921,837549.5999999642,7113,NNB,A,4
2,test,4,0.0,2-Back,1,m,Thu Apr 03 2025 13:29:08 GMT-0500 (Central Daylight Time),842413.6999999881,043_m_f_n_a.png,O,m,1031,7,1,2049.699999988079,840364.0,7113,NNB,A,5
3,test,4,0.0,2-Back,1,m,Thu Apr 03 2025 13:29:08 GMT-0500 (Central Daylight Time),844496.1999999881,008_y_m_n_a.png,O,m,1037,8,1,2052.300000011921,842443.8999999762,7113,NNB,A,6
4,test,4,1.0,2-Back,1,z,Thu Apr 03 2025 13:29:08 GMT-0500 (Central Daylight Time),846628.6999999881,043_m_f_n_a.png,O,z,1082,9,1,2106.5,844522.1999999881,7113,NNB,A,7
5,test,4,0.0,2-Back,1,m,Thu Apr 03 2025 13:29:08 GMT-0500 (Central Daylight Time),848694.3999999762,058_m_m_n_a.png,O,m,1013,10,1,2033.300000011921,846661.0999999642,7113,NNB,A,8
5,test,4,0.0,2-Back,0,m,Thu Apr 03 2025 13:29:08 GMT-0500 (Central Daylight Time),850644.2999999523,008_y_m_n_a.png,O,z,908,11,1,1925.8999999761581,848718.3999999762,7113,NNB,A,9
6,test,4,0.0,2-Back,1,m,Thu Apr 03 2025 13:29:08 GMT-0500 (Central Daylight Time),852793.5999999642,047_o_f_n_a.png,O,m,1110,12,1,2122.399999976158,850671.1999999881,7113,NNB,A,10
7,test,4,0.0,2-Back,1,m,Thu Apr 03 2025 13:29:08 GMT-0500 (Central Daylight Time),854775.8999999762,041_y_m_n_a.png,O,m,945,13,1,1951.300000011921,852824.5999999642,7113,NNB,A,11
8,test,4,1.0,2-Back,1,z,Thu Apr 03 2025 13:29:08 GMT-0500 (Central Daylight Time),856875.6999999881,047_o_f_n_a.png,O,z,1061,14,1,2069.800000011921,854805.8999999762,7113,NNB,A,12
9,test,4,1.0,2-Back,1,z,Thu Apr 03 2025 13:29:08 GMT-0500 (Central Daylight Time),858857.1999999881,041_y_m_n_a.png,O,z,924,15,1,1949.199999988079,856908.0,7113,NNB,A,13
10,test,4,0.0,2-Back,1,m,Thu Apr 03 2025 13:29:08 GMT-0500 (Central Daylight Time),860758.0,045_m_m_n_a.png,O,m,881,16,1,1892.1000000238419,858865.8999999762,7113,NNB,A,14
11,test,4,0.0,2-Back,1,m,Thu Apr 03 2025 13:29:08 GMT-0500 (Central Daylight Time),862740.0999999642,050_m_f_n_a.png,O,m,941,17,1,1960.199999988079,860779.8999999762,7113,NNB,A,15
12,test,4,1.0,2-Back,1,z,Thu Apr 03 2025 13:29:08 GMT-0500 (Central Daylight Time),864655.5999999642,045_m_m_n_a.png,O,z,861,18,1,1882.300000011921,862773.2999999523,7113,NNB,A,16
0,test,5,1.0,2-Back,,,Thu Apr 03 2025 13:29:08 GMT-0500 (Central Daylight Time),864655.5999999642,041_y_m_n_a.png,O,space,1413,1,1,1882.300000011921,862773.2999999523,7113,NNB,A,0
0,test,5,1.0,2-Back,,,Thu Apr 03 2025 13:29:08 GMT-0500 (Central Daylight Time),864655.5999999642,050_m_f_n_a.png,O,space,1413,2,1,1882.300000011921,862773.2999999523,7113,NNB,A,0
0,test,5,1.0,2-Back,0,z,Thu Apr 03 2025 13:29:08 GMT-0500 (Central Daylight Time),873086.7999999523,041_y_m_n_a.png,O,m,880,3,1,1902.2999999523163,871184.5,7113,NNB,A,1
1,test,5,1.0,2-Back,1,z,Thu Apr 03 2025 13:29:08 GMT-0500 (Central Daylight Time),875686.0,050_m_f_n_a.png,O,z,1556,4,1,2575.600000023842,873110.3999999762,7113,NNB,A,2
1,test,5,0.0,2-Back,0,m,Thu Apr 03 2025 13:29:08 GMT-0500 (Central Daylight Time),878235.0999999642,047_o_f_n_a.png,O,z,1501,5,1,2519.899999976158,875715.1999999881,7113,NNB,A,3
1,test,5,0.0,2-Back,0,m,Thu Apr 03 2025 13:29:08 GMT-0500 (Central Daylight Time),880500.8999999762,041_y_m_n_a.png,O,z,1216,6,1,2236.100000023842,878264.7999999523,7113,NNB,A,4
2,test,5,0.0,2-Back,1,m,Thu Apr 03 2025 13:29:08 GMT-0500 (Central Daylight Time),882534.0,010_y_f_n_a.png,O,m,966,7,1,1995.1000000238419,880538.8999999762,7113,NNB,A,5
2,test,5,0.0,2-Back,0,m,Thu Apr 03 2025 13:29:08 GMT-0500 (Central Daylight Time),884599.6999999881,047_o_f_n_a.png,O,z,1029,8,1,2038.6000000238419,882561.0999999642,7113,NNB,A,6
3,test,5,1.0,2-Back,1,z,Thu Apr 03 2025 13:29:08 GMT-0500 (Central Daylight Time),887065.7999999523,010_y_f_n_a.png,O,z,1419,9,1,2438.5,884627.2999999523,7113,NNB,A,7
4,test,5,0.0,2-Back,1,m,Thu Apr 03 2025 13:29:08 GMT-0500 (Central Daylight Time),888948.1999999881,046_o_m_n_a.png,O,m,817,10,1,1847.800000011921,887100.3999999762,7113,NNB,A,8
5,test,5,0.0,2-Back,1,m,Thu Apr 03 2025 13:29:08 GMT-0500 (Central Daylight Time),890782.0,043_m_f_n_a.png,O,m,798,11,1,1805.300000011921,888976.6999999881,7113,NNB,A,9
6,test,5,0.0,2-Back,1,m,Thu Apr 03 2025 13:29:08 GMT-0500 (Central Daylight Time),893063.6999999881,058_m_m_n_a.png,O,m,1238,12,1,2253.699999988079,890810.0,7113,NNB,A,10
6,test,5,0.0,2-Back,0,m,Thu Apr 03 2025 13:29:08 GMT-0500 (Central Daylight Time),894896.0,046_o_m_n_a.png,O,z,797,13,1,1804.9000000357628,893091.0999999642,7113,NNB,A,11
7,test,5,1.0,2-Back,1,z,Thu Apr 03 2025 13:29:08 GMT-0500 (Central Daylight Time),896962.6999999881,058_m_m_n_a.png,O,z,1017,14,1,2043.0,894919.6999999881,7113,NNB,A,12
8,test,5,0.0,2-Back,1,m,Thu Apr 03 2025 13:29:08 GMT-0500 (Central Daylight Time),899128.1999999881,063_y_f_n_a.png,O,m,1120,15,1,2139.699999988079,896988.5,7113,NNB,A,13
8,test,5,0.0,2-Back,0,m,Thu Apr 03 2025 13:29:08 GMT-0500 (Central Daylight Time),902194.1999999881,053_o_m_n_a.png,O,None,2014,16,1,3031.699999988079,899162.5,7113,NNB,A,14
9,test,5,0.0,2-Back,1,m,Thu Apr 03 2025 13:29:08 GMT-0500 (Central Daylight Time),904526.6999999881,043_m_f_n_a.png,O,m,1272,17,1,2294.699999988079,902232.0,7113,NNB,A,15
10,test,5,1.0,2-Back,1,z,Thu Apr 03 2025 13:29:08 GMT-0500 (Central Daylight Time),906459.1999999881,053_o_m_n_a.png,O,z,892,18,1,1906.6000000238419,904552.5999999642,7113,NNB,A,16
