acc_sum,block_c,block_dur,condition,correct,correct_response,countdown,datetime,endtime,project,response,response_time,response_time_test1_response,response_time_test2_response,row_sel,same,session_number,start_end,starttime,stim1,stim2,subject_id,task,task_vers,time_test1,time_test2,trial
1,1,0.0,prac,1,z,30000.0,Wed Mar 26 2025 12:12:47 GMT-0400 (Eastern Daylight Time),72402.19999980927,I,z,1104,,,3,yes,2,2625.0999999046326,69777.09999990463,practrial3.png,practrial3.png,9005,PC,C,,,1
2,1,0.0,prac,1,z,30000.0,Wed Mar 26 2025 12:12:47 GMT-0400 (Eastern Daylight Time),75135.7999997139,I,z,1203,,,1,yes,2,2721.699999809265,72414.09999990463,practrial1.png,practrial1.png,9005,PC,C,,,2
3,1,0.0,prac,1,z,30000.0,Wed Mar 26 2025 12:12:47 GMT-0400 (Eastern Daylight Time),78035.40000009537,I,z,1368,,,5,yes,2,2890.7000002861023,75144.69999980927,practrial5.png,practrial5.png,9005,PC,C,,,3
3,1,0.0,prac,0,m,30000.0,Wed Mar 26 2025 12:12:47 GMT-0400 (Eastern Daylight Time),80602.0,I,z,1028,,,4,no,2,2557.7000002861023,78044.2999997139,practrial4.png,practrial4b.png,9005,PC,C,,,4
4,1,0.0,prac,1,m,30000.0,Wed Mar 26 2025 12:12:47 GMT-0400 (Eastern Daylight Time),83452.0,I,m,1311,,,6,no,2,2842.0999999046326,80609.90000009537,practrial6.png,practrial6b.png,9005,PC,C,,,5
5,1,0.0,prac,1,m,30000.0,Wed Mar 26 2025 12:12:47 GMT-0400 (Eastern Daylight Time),86185.5,I,m,1194,,,2,no,2,2723.0,83462.5,practrial2.png,practrial2b.png,9005,PC,C,,,6
1,1,1.2339999675750732,test,1,z,28766.000032424927,Wed Mar 26 2025 12:12:47 GMT-0400 (Eastern Daylight Time),106785.69999980927,I,z,1214,1214,,1,yes,2,1230.5999999046326,105555.09999990463,test1trial1.png,test1trial1.png,9005,PC,C,102433,,1
2,1,2.2669999599456787,test,1,m,27733.00004005432,Wed Mar 26 2025 12:12:47 GMT-0400 (Eastern Daylight Time),107819.19999980927,I,m,1017,1017,,2,no,2,1027.4000000953674,106791.7999997139,test1trial2.png,test1trial2b.png,9005,PC,C,103670,,2
3,1,3.4670000076293945,test,1,z,26532.999992370605,Wed Mar 26 2025 12:12:47 GMT-0400 (Eastern Daylight Time),109018.90000009537,I,z,1184,1184,,3,yes,2,1193.3000001907349,107825.59999990463,test1trial3.png,test1trial3.png,9005,PC,C,104703,,3
4,1,4.634000062942505,test,1,m,25365.999937057495,Wed Mar 26 2025 12:12:47 GMT-0400 (Eastern Daylight Time),110185.59999990463,I,m,1150,1150,,4,no,2,1159.3000001907349,109026.2999997139,test1trial4.png,test1trial4b.png,9005,PC,C,105905,,4
5,1,5.950000047683716,test,1,z,24049.999952316284,Wed Mar 26 2025 12:12:47 GMT-0400 (Eastern Daylight Time),111502.19999980927,I,z,1297,1297,,5,yes,2,1309.7999997138977,110192.40000009537,test1trial5.png,test1trial5.png,9005,PC,C,107070,,5
6,1,6.91700005531311,test,1,m,23082.99994468689,Wed Mar 26 2025 12:12:47 GMT-0400 (Eastern Daylight Time),112468.90000009537,I,m,956,956,,6,no,2,960.1000003814697,111508.7999997139,test1trial6.png,test1trial6b.png,9005,PC,C,108387,,6
7,1,8.0,test,1,z,22000.0,Wed Mar 26 2025 12:12:47 GMT-0400 (Eastern Daylight Time),113552.0,I,z,1062,1062,,7,yes,2,1076.5,112475.5,test1trial7.png,test1trial7.png,9005,PC,C,109353,,7
7,1,9.349999904632568,test,0,m,20650.00009536743,Wed Mar 26 2025 12:12:47 GMT-0400 (Eastern Daylight Time),114902.09999990463,I,z,1334,1334,,8,no,2,1340.9000000953674,113561.19999980927,test1trial8.png,test1trial8b.png,9005,PC,C,110441,,8
8,1,10.384000062942505,test,1,z,19615.999937057495,Wed Mar 26 2025 12:12:47 GMT-0400 (Eastern Daylight Time),115935.59999990463,I,z,1012,1012,,9,yes,2,1026.8000001907349,114908.7999997139,test1trial9.png,test1trial9.png,9005,PC,C,111787,,9
9,1,11.434000015258789,test,1,m,18565.99998474121,Wed Mar 26 2025 12:12:47 GMT-0400 (Eastern Daylight Time),116985.59999990463,I,m,1034,1034,,10,no,2,1042.5,115943.09999990463,test1trial10.png,test1trial10b.png,9005,PC,C,112821,,10
10,1,12.516999959945679,test,1,z,17483.00004005432,Wed Mar 26 2025 12:12:47 GMT-0400 (Eastern Daylight Time),118068.7999997139,I,z,1070,1070,,11,yes,2,1073.7999997138977,116995.0,test1trial11.png,test1trial11.png,9005,PC,C,113873,,11
10,1,14.033999919891357,test,0,m,15966.000080108643,Wed Mar 26 2025 12:12:47 GMT-0400 (Eastern Daylight Time),119585.5,I,z,1493,1493,,12,no,2,1510.0999999046326,118075.40000009537,test1trial12.png,test1trial12b.png,9005,PC,C,114953,,12
11,1,15.066999912261963,test,1,m,14933.000087738037,Wed Mar 26 2025 12:12:47 GMT-0400 (Eastern Daylight Time),120618.7999997139,I,m,1016,1016,,13,no,2,1025.7999997138977,119593.0,test1trial13.png,test1trial13b.png,9005,PC,C,116471,,13
11,1,16.34999990463257,test,0,m,13650.000095367432,Wed Mar 26 2025 12:12:47 GMT-0400 (Eastern Daylight Time),121902.19999980927,I,z,1263,1263,,14,no,2,1276.6999998092651,120625.5,test1trial14.png,test1trial14b.png,9005,PC,C,117504,,14
12,1,17.51699995994568,test,1,z,12483.000040054321,Wed Mar 26 2025 12:12:47 GMT-0400 (Eastern Daylight Time),123068.90000009537,I,z,1148,1148,,15,yes,2,1160.0,121908.90000009537,test1trial15.png,test1trial15.png,9005,PC,C,118787,,15
12,1,18.733999967575073,test,0,m,11266.000032424927,Wed Mar 26 2025 12:12:47 GMT-0400 (Eastern Daylight Time),124285.2999997139,I,z,1195,1195,,16,no,2,1207.8999996185303,123077.40000009537,test1trial16.png,test1trial16b.png,9005,PC,C,119956,,16
13,1,20.217000007629395,test,1,z,9782.999992370605,Wed Mar 26 2025 12:12:47 GMT-0400 (Eastern Daylight Time),125768.90000009537,I,z,1470,1470,,17,yes,2,1477.9000000953674,124291.0,test1trial17.png,test1trial17.png,9005,PC,C,121169,,17
14,1,21.59999990463257,test,1,m,8400.000095367432,Wed Mar 26 2025 12:12:47 GMT-0400 (Eastern Daylight Time),127152.0,I,m,1362,1362,,18,no,2,1377.0999999046326,125774.90000009537,test1trial18.png,test1trial18b.png,9005,PC,C,122653,,18
14,1,23.43400001525879,test,0,m,6565.999984741211,Wed Mar 26 2025 12:12:47 GMT-0400 (Eastern Daylight Time),128985.5,I,z,1816,1816,,19,no,2,1824.5999999046326,127160.90000009537,test1trial19.png,test1trial19b.png,9005,PC,C,124039,,19
15,1,24.717000007629395,test,1,z,5282.9999923706055,Wed Mar 26 2025 12:12:47 GMT-0400 (Eastern Daylight Time),130268.7999997139,I,z,1265,1265,,20,yes,2,1276.3999996185303,128992.40000009537,test1trial20.png,test1trial20.png,9005,PC,C,125870,,20
16,1,25.884000062942505,test,1,z,4115.999937057495,Wed Mar 26 2025 12:12:47 GMT-0400 (Eastern Daylight Time),131435.5,I,z,1150,1150,,21,yes,2,1160.0999999046326,130275.40000009537,test1trial21.png,test1trial21.png,9005,PC,C,127153,,21
17,1,27.049999952316284,test,1,z,2950.000047683716,Wed Mar 26 2025 12:12:47 GMT-0400 (Eastern Daylight Time),132601.5,I,z,1150,1150,,22,yes,2,1158.9000000953674,131442.59999990463,test1trial22.png,test1trial22.png,9005,PC,C,128321,,22
18,1,28.816999912261963,test,1,z,1183.000087738037,Wed Mar 26 2025 12:12:47 GMT-0400 (Eastern Daylight Time),134368.69999980927,I,z,1747,1747,,23,yes,2,1763.1999998092651,132605.5,test1trial23.png,test1trial23.png,9005,PC,C,129484,,23
18,1,30.01699995994568,test,0,z,-16.99995994567871,Wed Mar 26 2025 12:12:47 GMT-0400 (Eastern Daylight Time),135569.0,I,None,1193,1193,,24,yes,2,1193.5999999046326,134375.40000009537,test1trial24.png,test1trial24.png,9005,PC,C,131253,,24
1,2,1.2170000076293945,test,1,m,28782.999992370605,Wed Mar 26 2025 12:12:47 GMT-0400 (Eastern Daylight Time),141885.7999997139,I,m,1198,,1198.0,1,no,2,7510.39999961853,134375.40000009537,test2trial1.png,test2trial1b.png,9005,PC,C,,137553.0,1
1,2,2.5,test,0,m,27500.0,Wed Mar 26 2025 12:12:47 GMT-0400 (Eastern Daylight Time),143169.19999980927,I,z,1261,,1261.0,2,no,2,8793.799999713898,134375.40000009537,test2trial2.png,test2trial2b.png,9005,PC,C,,138770.0,2
2,2,3.700000047683716,test,1,z,26299.999952316284,Wed Mar 26 2025 12:12:47 GMT-0400 (Eastern Daylight Time),144368.90000009537,I,z,1178,,1178.0,3,yes,2,9993.5,134375.40000009537,test2trial3.png,test2trial3.png,9005,PC,C,,140053.0,3
3,2,5.317000150680542,test,1,z,24682.999849319458,Wed Mar 26 2025 12:12:47 GMT-0400 (Eastern Daylight Time),145985.40000009537,I,z,1594,,1594.0,4,yes,2,11610.0,134375.40000009537,test2trial4.png,test2trial4.png,9005,PC,C,,141253.0,4
4,2,6.767000198364258,test,1,z,23232.999801635742,Wed Mar 26 2025 12:12:47 GMT-0400 (Eastern Daylight Time),147435.40000009537,I,z,1434,,1434.0,5,yes,2,13060.0,134375.40000009537,test2trial5.png,test2trial5.png,9005,PC,C,,142869.0,5
5,2,8.200000047683716,test,1,z,21799.999952316284,Wed Mar 26 2025 12:12:47 GMT-0400 (Eastern Daylight Time),148868.69999980927,I,z,1422,,1422.0,6,yes,2,14493.299999713898,134375.40000009537,test2trial6.png,test2trial6.png,9005,PC,C,,144320.0,6
5,2,9.400000095367432,test,0,m,20599.99990463257,Wed Mar 26 2025 12:12:47 GMT-0400 (Eastern Daylight Time),150068.7999997139,I,z,1190,,1190.0,7,no,2,15693.39999961853,134375.40000009537,test2trial7.png,test2trial7b.png,9005,PC,C,,145753.0,7
6,2,10.551000118255615,test,1,m,19448.999881744385,Wed Mar 26 2025 12:12:47 GMT-0400 (Eastern Daylight Time),151219.40000009537,I,m,1140,,1140.0,8,no,2,16844.0,134375.40000009537,test2trial8.png,test2trial8b.png,9005,PC,C,,146954.0,8
7,2,11.850000143051147,test,1,z,18149.999856948853,Wed Mar 26 2025 12:12:47 GMT-0400 (Eastern Daylight Time),152518.90000009537,I,z,1290,,1290.0,9,yes,2,18143.5,134375.40000009537,test2trial9.png,test2trial9.png,9005,PC,C,,148101.0,9
8,2,13.050000190734863,test,1,z,16949.999809265137,Wed Mar 26 2025 12:12:47 GMT-0400 (Eastern Daylight Time),153718.7999997139,I,z,1186,,1186.0,10,yes,2,19343.39999961853,134375.40000009537,test2trial10.png,test2trial10.png,9005,PC,C,,149405.0,10
9,2,14.233000040054321,test,1,m,15766.999959945679,Wed Mar 26 2025 12:12:47 GMT-0400 (Eastern Daylight Time),154902.09999990463,I,m,1167,,1167.0,11,no,2,20526.699999809265,134375.40000009537,test2trial11.png,test2trial11b.png,9005,PC,C,,150607.0,11
10,2,15.76800012588501,test,1,m,14231.99987411499,Wed Mar 26 2025 12:12:47 GMT-0400 (Eastern Daylight Time),156436.40000009537,I,m,1524,,1524.0,12,no,2,22061.0,134375.40000009537,test2trial12.png,test2trial12b.png,9005,PC,C,,151787.0,12
11,2,16.950000047683716,test,1,z,13049.999952316284,Wed Mar 26 2025 12:12:47 GMT-0400 (Eastern Daylight Time),157618.7999997139,I,z,1174,,1174.0,13,yes,2,23243.39999961853,134375.40000009537,test2trial13.png,test2trial13.png,9005,PC,C,,153321.0,13
12,2,18.16600012779236,test,1,m,11833.999872207642,Wed Mar 26 2025 12:12:47 GMT-0400 (Eastern Daylight Time),158835.09999990463,I,m,1209,,1209.0,14,no,2,24459.699999809265,134375.40000009537,test2trial14.png,test2trial14b.png,9005,PC,C,,154502.0,14
13,2,19.48300004005432,test,1,m,10516.999959945679,Wed Mar 26 2025 12:12:47 GMT-0400 (Eastern Daylight Time),160152.19999980927,I,m,1304,,1304.0,15,no,2,25776.799999713898,134375.40000009537,test2trial15.png,test2trial15b.png,9005,PC,C,,155719.0,15
13,2,20.65000009536743,test,0,m,9349.999904632568,Wed Mar 26 2025 12:12:47 GMT-0400 (Eastern Daylight Time),161318.59999990463,I,z,1155,,1155.0,16,no,2,26943.199999809265,134375.40000009537,test2trial16.png,test2trial16b.png,9005,PC,C,,157036.0,16
14,2,21.867000102996826,test,1,z,8132.999897003174,Wed Mar 26 2025 12:12:47 GMT-0400 (Eastern Daylight Time),162535.40000009537,I,z,1202,,1202.0,17,yes,2,28160.0,134375.40000009537,test2trial17.png,test2trial17.png,9005,PC,C,,158205.0,17
15,2,22.867000102996826,test,1,z,7132.999897003174,Wed Mar 26 2025 12:12:47 GMT-0400 (Eastern Daylight Time),163535.59999990463,I,z,979,,979.0,18,yes,2,29160.199999809265,134375.40000009537,test2trial18.png,test2trial18.png,9005,PC,C,,159420.0,18
16,2,24.050000190734863,test,1,z,5949.999809265137,Wed Mar 26 2025 12:12:47 GMT-0400 (Eastern Daylight Time),164718.90000009537,I,z,1163,,1163.0,19,yes,2,30343.5,134375.40000009537,test2trial19.png,test2trial19.png,9005,PC,C,,160420.0,19
17,2,25.183000087738037,test,1,z,4816.999912261963,Wed Mar 26 2025 12:12:47 GMT-0400 (Eastern Daylight Time),165852.2999997139,I,z,1110,,1110.0,20,yes,2,31476.89999961853,134375.40000009537,test2trial20.png,test2trial20.png,9005,PC,C,,161609.0,20
18,2,26.33300018310547,test,1,z,3666.9998168945312,Wed Mar 26 2025 12:12:47 GMT-0400 (Eastern Daylight Time),167002.19999980927,I,z,1134,,1134.0,21,yes,2,32626.799999713898,134375.40000009537,test2trial21.png,test2trial21.png,9005,PC,C,,162737.0,21
19,2,27.75,test,1,m,2250.0,Wed Mar 26 2025 12:12:47 GMT-0400 (Eastern Daylight Time),168418.69999980927,I,m,1392,,1392.0,22,no,2,34043.2999997139,134375.40000009537,test2trial22.png,test2trial22b.png,9005,PC,C,,163887.0,22
19,2,29.41700005531311,test,0,m,582.9999446868896,Wed Mar 26 2025 12:12:47 GMT-0400 (Eastern Daylight Time),170085.40000009537,I,z,1656,,1656.0,23,no,2,35710.0,134375.40000009537,test2trial23.png,test2trial23b.png,9005,PC,C,,165303.0,23
19,2,30.017000198364258,test,0,m,-17.000198364257812,Wed Mar 26 2025 12:12:47 GMT-0400 (Eastern Daylight Time),170685.40000009537,I,None,592,,592.0,24,no,2,36310.0,134375.40000009537,test2trial24.png,test2trial24b.png,9005,PC,C,,166970.0,24
