acc_sum,block,block_c,change,condition,correct,correct_response,datetime,endtime,face,project,response,response_time,row_sel,session_number,start_end,starttime,subject_id,task,task_vers,trial
0,prac,1,,1-Back,,,Thu Feb 20 2025 09:02:00 GMT-0600 (Central Standard Time),,005_o_f_d_a.png,O,space,7732,1,1,,,7058,VNB,B,0
1,prac,1,0.0,1-Back,1,m,Thu Feb 20 2025 09:02:00 GMT-0600 (Central Standard Time),135116.90000000224,020_y_f_n_a.png,O,m,1499,2,1,2373.60000000149,132743.30000000075,7058,VNB,B,1
1,prac,1,0.0,1-Back,0,m,Thu Feb 20 2025 09:02:00 GMT-0600 (Central Standard Time),136916.19999999925,007_m_m_h_a.png,O,z,901,3,1,1793.0999999977648,135123.1000000015,7058,VNB,B,2
2,prac,1,0.0,1-Back,1,m,Thu Feb 20 2025 09:02:00 GMT-0600 (Central Standard Time),138732.30000000075,016_y_m_d_a.png,O,m,908,4,1,1810.1000000014901,136922.19999999925,7058,VNB,B,3
3,prac,1,0.0,1-Back,1,m,Thu Feb 20 2025 09:02:00 GMT-0600 (Central Standard Time),140998.19999999925,005_o_f_n_a.png,O,m,1380,5,1,2258.89999999851,138739.30000000075,7058,VNB,B,4
4,prac,1,1.0,1-Back,1,z,Thu Feb 20 2025 09:02:00 GMT-0600 (Central Standard Time),142997.40000000224,016_y_m_n_a.png,O,z,1105,6,1,1992.0,141005.40000000224,7058,VNB,B,5
5,prac,1,0.0,1-Back,1,m,Thu Feb 20 2025 09:02:00 GMT-0600 (Central Standard Time),145013.5,004_o_m_h_a.png,O,m,1139,7,1,2008.199999999255,143005.30000000075,7058,VNB,B,6
6,prac,1,0.0,1-Back,1,m,Thu Feb 20 2025 09:02:00 GMT-0600 (Central Standard Time),147063.0,011_m_f_d_a.png,O,m,1165,8,1,2043.199999999255,145019.80000000075,7058,VNB,B,7
6,prac,1,1.0,1-Back,0,z,Thu Feb 20 2025 09:02:00 GMT-0600 (Central Standard Time),149945.1000000015,020_y_f_d_a.png,O,None,2007,9,1,2874.699999999255,147070.40000000224,7058,VNB,B,8
7,prac,1,0.0,1-Back,1,m,Thu Feb 20 2025 09:02:00 GMT-0600 (Central Standard Time),152144.5,007_m_m_n_a.png,O,m,1295,10,1,2191.39999999851,149953.1000000015,7058,VNB,B,9
7,prac,1,0.0,1-Back,0,m,Thu Feb 20 2025 09:02:00 GMT-0600 (Central Standard Time),154112.0,005_o_f_h_a.png,O,z,1078,11,1,1960.199999999255,152151.80000000075,7058,VNB,B,10
8,prac,1,0.0,1-Back,1,m,Thu Feb 20 2025 09:02:00 GMT-0600 (Central Standard Time),155826.90000000224,016_y_m_d_a.png,O,m,809,12,1,1708.7000000029802,154118.19999999925,7058,VNB,B,11
0,test,1,0.0,1-Back,,,Thu Feb 20 2025 09:02:00 GMT-0600 (Central Standard Time),155826.90000000224,020_y_f_d_a.png,O,space,7619,1,1,1708.7000000029802,154118.19999999925,7058,VNB,B,0
1,test,1,0.0,1-Back,1,m,Thu Feb 20 2025 09:02:00 GMT-0600 (Central Standard Time),173654.5,011_m_f_n_a.png,O,m,1208,2,1,2227.39999999851,171427.1000000015,7058,VNB,B,1
2,test,1,0.0,1-Back,1,m,Thu Feb 20 2025 09:02:00 GMT-0600 (Central Standard Time),175787.40000000224,004_o_m_h_a.png,O,m,1112,3,1,2129.300000000745,173658.1000000015,7058,VNB,B,2
2,test,1,1.0,1-Back,0,z,Thu Feb 20 2025 09:02:00 GMT-0600 (Central Standard Time),177636.5,007_m_m_h_a.png,O,m,819,4,1,1844.300000000745,175792.19999999925,7058,VNB,B,3
3,test,1,0.0,1-Back,1,m,Thu Feb 20 2025 09:02:00 GMT-0600 (Central Standard Time),179587.19999999925,005_o_f_n_a.png,O,m,930,5,1,1947.2999999970198,177639.90000000224,7058,VNB,B,4
4,test,1,0.0,1-Back,1,m,Thu Feb 20 2025 09:02:00 GMT-0600 (Central Standard Time),181685.40000000224,016_y_m_d_a.png,O,m,1069,6,1,2094.7000000029802,179590.69999999925,7058,VNB,B,5
5,test,1,1.0,1-Back,1,z,Thu Feb 20 2025 09:02:00 GMT-0600 (Central Standard Time),184334.40000000224,011_m_f_d_a.png,O,z,1625,7,1,2645.400000002235,181689.0,7058,VNB,B,6
6,test,1,0.0,1-Back,1,m,Thu Feb 20 2025 09:02:00 GMT-0600 (Central Standard Time),186300.6000000015,020_y_f_h_a.png,O,m,944,8,1,1961.800000000745,184338.80000000075,7058,VNB,B,7
7,test,1,0.0,1-Back,1,m,Thu Feb 20 2025 09:02:00 GMT-0600 (Central Standard Time),188633.19999999925,004_o_m_n_a.png,O,m,1315,9,1,2328.199999999255,186305.0,7058,VNB,B,8
8,test,1,0.0,1-Back,1,m,Thu Feb 20 2025 09:02:00 GMT-0600 (Central Standard Time),190815.6000000015,016_y_m_h_a.png,O,m,1165,10,1,2178.400000002235,188637.19999999925,7058,VNB,B,9
9,test,1,0.0,1-Back,1,m,Thu Feb 20 2025 09:02:00 GMT-0600 (Central Standard Time),192798.5,004_o_m_d_a.png,O,m,958,11,1,1978.5,190820.0,7058,VNB,B,10
10,test,1,1.0,1-Back,1,z,Thu Feb 20 2025 09:02:00 GMT-0600 (Central Standard Time),194998.1000000015,005_o_f_d_a.png,O,z,1176,12,1,2194.900000002235,192803.19999999925,7058,VNB,B,11
11,test,1,0.0,1-Back,1,m,Thu Feb 20 2025 09:02:00 GMT-0600 (Central Standard Time),197030.19999999925,007_m_m_n_a.png,O,m,1009,13,1,2028.199999999255,195002.0,7058,VNB,B,12
12,test,1,1.0,1-Back,1,z,Thu Feb 20 2025 09:02:00 GMT-0600 (Central Standard Time),199397.6000000015,020_y_f_n_a.png,O,z,1336,14,1,2362.900000002235,197034.69999999925,7058,VNB,B,13
13,test,1,0.0,1-Back,1,m,Thu Feb 20 2025 09:02:00 GMT-0600 (Central Standard Time),201645.80000000075,011_m_f_h_a.png,O,m,1218,15,1,2244.60000000149,199401.19999999925,7058,VNB,B,14
14,test,1,0.0,1-Back,1,m,Thu Feb 20 2025 09:02:00 GMT-0600 (Central Standard Time),203778.40000000224,007_m_m_d_a.png,O,m,1112,16,1,2127.800000000745,201650.6000000015,7058,VNB,B,15
15,test,1,0.0,1-Back,1,m,Thu Feb 20 2025 09:02:00 GMT-0600 (Central Standard Time),206577.6000000015,016_y_m_n_a.png,O,m,1780,17,1,2794.300000000745,203783.30000000075,7058,VNB,B,16
16,test,1,0.0,1-Back,1,m,Thu Feb 20 2025 09:02:00 GMT-0600 (Central Standard Time),208693.5,005_o_f_h_a.png,O,m,1085,18,1,2111.800000000745,206581.69999999925,7058,VNB,B,17
0,test,2,0.0,1-Back,,,Thu Feb 20 2025 09:02:00 GMT-0600 (Central Standard Time),208693.5,016_y_m_n_a.png,O,space,1193,1,1,2111.800000000745,206581.69999999925,7058,VNB,B,0
1,test,2,0.0,1-Back,1,m,Thu Feb 20 2025 09:02:00 GMT-0600 (Central Standard Time),213925.6000000015,020_y_f_h_a.png,O,m,985,2,1,2012.1000000014901,211913.5,7058,VNB,B,1
2,test,2,1.0,1-Back,1,m,Thu Feb 20 2025 09:02:00 GMT-0600 (Central Standard Time),215908.0,004_o_m_n_a.png,O,m,953,3,1,1978.300000000745,213929.69999999925,7058,VNB,B,2
3,test,2,0.0,1-Back,1,m,Thu Feb 20 2025 09:02:00 GMT-0600 (Central Standard Time),218240.6000000015,011_m_f_d_a.png,O,m,1306,4,1,2328.699999999255,215911.90000000224,7058,VNB,B,3
4,test,2,0.0,1-Back,1,z,Thu Feb 20 2025 09:02:00 GMT-0600 (Central Standard Time),220223.1000000015,007_m_m_d_a.png,O,z,950,5,1,1978.800000000745,218244.30000000075,7058,VNB,B,4
5,test,2,0.0,1-Back,1,m,Thu Feb 20 2025 09:02:00 GMT-0600 (Central Standard Time),222022.69999999925,016_y_m_h_a.png,O,m,775,6,1,1795.0999999977648,220227.6000000015,7058,VNB,B,5
6,test,2,1.0,1-Back,1,z,Thu Feb 20 2025 09:02:00 GMT-0600 (Central Standard Time),223955.40000000224,005_o_f_h_a.png,O,z,903,7,1,1928.300000000745,222027.1000000015,7058,VNB,B,6
7,test,2,0.0,1-Back,1,m,Thu Feb 20 2025 09:02:00 GMT-0600 (Central Standard Time),225821.5,011_m_f_n_a.png,O,m,835,8,1,1861.300000000745,223960.19999999925,7058,VNB,B,7
7,test,2,0.0,1-Back,0,m,Thu Feb 20 2025 09:02:00 GMT-0600 (Central Standard Time),227970.6000000015,020_y_f_d_a.png,O,z,1121,9,1,2144.10000000149,225826.5,7058,VNB,B,8
8,test,2,0.0,1-Back,1,m,Thu Feb 20 2025 09:02:00 GMT-0600 (Central Standard Time),229937.0,007_m_m_n_a.png,O,m,940,10,1,1962.5999999977648,227974.40000000224,7058,VNB,B,9
9,test,2,1.0,1-Back,1,m,Thu Feb 20 2025 09:02:00 GMT-0600 (Central Standard Time),232119.5,011_m_f_h_a.png,O,m,1164,11,1,2177.800000000745,229941.69999999925,7058,VNB,B,10
9,test,2,0.0,1-Back,0,z,Thu Feb 20 2025 09:02:00 GMT-0600 (Central Standard Time),234668.69999999925,004_o_m_h_a.png,O,m,1519,12,1,2545.099999997765,232123.6000000015,7058,VNB,B,11
10,test,2,0.0,1-Back,1,m,Thu Feb 20 2025 09:02:00 GMT-0600 (Central Standard Time),236734.69999999925,016_y_m_d_a.png,O,m,1042,13,1,2061.5,234673.19999999925,7058,VNB,B,12
11,test,2,0.0,1-Back,1,m,Thu Feb 20 2025 09:02:00 GMT-0600 (Central Standard Time),239283.80000000075,005_o_f_n_a.png,O,m,1527,14,1,2544.699999999255,236739.1000000015,7058,VNB,B,13
12,test,2,0.0,1-Back,1,z,Thu Feb 20 2025 09:02:00 GMT-0600 (Central Standard Time),241333.19999999925,020_y_f_n_a.png,O,z,1027,15,1,2045.0999999977648,239288.1000000015,7058,VNB,B,14
13,test,2,1.0,1-Back,1,m,Thu Feb 20 2025 09:02:00 GMT-0600 (Central Standard Time),243116.0,007_m_m_h_a.png,O,m,753,16,1,1778.3999999985099,241337.6000000015,7058,VNB,B,15
14,test,2,0.0,1-Back,1,m,Thu Feb 20 2025 09:02:00 GMT-0600 (Central Standard Time),245115.5,005_o_f_d_a.png,O,m,978,17,1,1995.0999999977648,243120.40000000224,7058,VNB,B,16
14,test,2,1.0,1-Back,0,z,Thu Feb 20 2025 09:02:00 GMT-0600 (Central Standard Time),247631.19999999925,004_o_m_d_a.png,O,m,1499,18,1,2511.2999999970198,245119.90000000224,7058,VNB,B,17
0,test,3,1.0,1-Back,,,Thu Feb 20 2025 09:02:00 GMT-0600 (Central Standard Time),247631.19999999925,005_o_f_h_a.png,O,space,959,1,1,2511.2999999970198,245119.90000000224,7058,VNB,B,0
1,test,3,0.0,1-Back,1,m,Thu Feb 20 2025 09:02:00 GMT-0600 (Central Standard Time),252696.40000000224,011_m_f_d_a.png,O,m,965,2,1,1978.0,250718.40000000224,7058,VNB,B,1
2,test,3,1.0,1-Back,1,m,Thu Feb 20 2025 09:02:00 GMT-0600 (Central Standard Time),254662.30000000075,007_m_m_n_a.png,O,m,934,3,1,1961.199999999255,252701.1000000015,7058,VNB,B,2
3,test,3,0.0,1-Back,1,z,Thu Feb 20 2025 09:02:00 GMT-0600 (Central Standard Time),256695.40000000224,005_o_f_n_a.png,O,z,1000,4,1,2027.9000000022352,254667.5,7058,VNB,B,3
4,test,3,1.0,1-Back,1,m,Thu Feb 20 2025 09:02:00 GMT-0600 (Central Standard Time),258544.5,004_o_m_d_a.png,O,m,782,5,1,1845.5,256699.0,7058,VNB,B,4
5,test,3,0.0,1-Back,1,m,Thu Feb 20 2025 09:02:00 GMT-0600 (Central Standard Time),260527.19999999925,020_y_f_h_a.png,O,m,958,6,1,1978.699999999255,258548.5,7058,VNB,B,5
6,test,3,0.0,1-Back,1,z,Thu Feb 20 2025 09:02:00 GMT-0600 (Central Standard Time),262510.0,016_y_m_h_a.png,O,z,951,7,1,1979.5999999977648,260530.40000000224,7058,VNB,B,6
7,test,3,0.0,1-Back,1,m,Thu Feb 20 2025 09:02:00 GMT-0600 (Central Standard Time),264292.5,011_m_f_n_a.png,O,m,760,8,1,1778.5,262514.0,7058,VNB,B,7
7,test,3,0.0,1-Back,0,m,Thu Feb 20 2025 09:02:00 GMT-0600 (Central Standard Time),266908.6000000015,020_y_f_d_a.png,O,z,1585,9,1,2611.900000002235,264296.69999999925,7058,VNB,B,8
8,test,3,1.0,1-Back,1,m,Thu Feb 20 2025 09:02:00 GMT-0600 (Central Standard Time),269424.30000000075,004_o_m_n_a.png,O,m,1497,10,1,2512.300000000745,266912.0,7058,VNB,B,9
8,test,3,0.0,1-Back,0,m,Thu Feb 20 2025 09:02:00 GMT-0600 (Central Standard Time),271257.30000000075,007_m_m_h_a.png,O,z,813,11,1,1828.199999999255,269429.1000000015,7058,VNB,B,10
8,test,3,0.0,1-Back,0,z,Thu Feb 20 2025 09:02:00 GMT-0600 (Central Standard Time),273939.80000000075,011_m_f_h_a.png,O,m,1653,12,1,2678.300000000745,271261.5,7058,VNB,B,11
9,test,3,1.0,1-Back,1,m,Thu Feb 20 2025 09:02:00 GMT-0600 (Central Standard Time),275872.90000000224,005_o_f_d_a.png,O,m,914,13,1,1928.7000000029802,273944.19999999925,7058,VNB,B,12
10,test,3,0.0,1-Back,1,z,Thu Feb 20 2025 09:02:00 GMT-0600 (Central Standard Time),277771.80000000075,007_m_m_d_a.png,O,z,878,14,1,1894.5,275877.30000000075,7058,VNB,B,13
11,test,3,0.0,1-Back,1,m,Thu Feb 20 2025 09:02:00 GMT-0600 (Central Standard Time),279837.90000000224,016_y_m_n_a.png,O,m,1034,15,1,2062.300000000745,277775.6000000015,7058,VNB,B,14
12,test,3,1.0,1-Back,1,m,Thu Feb 20 2025 09:02:00 GMT-0600 (Central Standard Time),281920.6000000015,004_o_m_h_a.png,O,m,1056,16,1,2078.199999999255,279842.40000000224,7058,VNB,B,15
13,test,3,0.0,1-Back,1,m,Thu Feb 20 2025 09:02:00 GMT-0600 (Central Standard Time),283921.0,016_y_m_d_a.png,O,m,981,17,1,1996.0,281925.0,7058,VNB,B,16
14,test,3,1.0,1-Back,1,m,Thu Feb 20 2025 09:02:00 GMT-0600 (Central Standard Time),285985.90000000224,020_y_f_n_a.png,O,m,1038,18,1,2061.7000000029802,283924.19999999925,7058,VNB,B,17
0,test,4,1.0,1-Back,,,Thu Feb 20 2025 09:02:00 GMT-0600 (Central Standard Time),285985.90000000224,007_m_m_d_a.png,O,space,900,1,1,2061.7000000029802,283924.19999999925,7058,VNB,B,0
1,test,4,0.0,1-Back,1,z,Thu Feb 20 2025 09:02:00 GMT-0600 (Central Standard Time),291101.1000000015,004_o_m_d_a.png,O,z,1052,2,1,2078.5,289022.6000000015,7058,VNB,B,1
2,test,4,0.0,1-Back,1,m,Thu Feb 20 2025 09:02:00 GMT-0600 (Central Standard Time),292800.5,016_y_m_h_a.png,O,m,681,3,1,1695.199999999255,291105.30000000075,7058,VNB,B,2
3,test,4,0.0,1-Back,1,m,Thu Feb 20 2025 09:02:00 GMT-0600 (Central Standard Time),294633.40000000224,011_m_f_n_a.png,O,m,805,4,1,1828.2000000029802,292805.19999999925,7058,VNB,B,3
4,test,4,1.0,1-Back,1,m,Thu Feb 20 2025 09:02:00 GMT-0600 (Central Standard Time),296766.0,005_o_f_h_a.png,O,m,1101,5,1,2128.099999997765,294637.90000000224,7058,VNB,B,4
5,test,4,0.0,1-Back,1,m,Thu Feb 20 2025 09:02:00 GMT-0600 (Central Standard Time),299431.6000000015,007_m_m_n_a.png,O,m,1648,6,1,2660.900000002235,296770.69999999925,7058,VNB,B,5
6,test,4,0.0,1-Back,1,m,Thu Feb 20 2025 09:02:00 GMT-0600 (Central Standard Time),301497.90000000224,016_y_m_d_a.png,O,m,1046,7,1,2062.800000000745,299435.1000000015,7058,VNB,B,6
7,test,4,1.0,1-Back,1,z,Thu Feb 20 2025 09:02:00 GMT-0600 (Central Standard Time),303680.5,020_y_f_d_a.png,O,z,1164,8,1,2178.39999999851,301502.1000000015,7058,VNB,B,7
8,test,4,0.0,1-Back,1,m,Thu Feb 20 2025 09:02:00 GMT-0600 (Central Standard Time),305579.80000000075,011_m_f_h_a.png,O,m,781,9,1,1894.699999999255,303685.1000000015,7058,VNB,B,8
9,test,4,0.0,1-Back,1,z,Thu Feb 20 2025 09:02:00 GMT-0600 (Central Standard Time),308262.5,004_o_m_h_a.png,O,z,1650,10,1,2678.199999999255,305584.30000000075,7058,VNB,B,9
10,test,4,1.0,1-Back,1,m,Thu Feb 20 2025 09:02:00 GMT-0600 (Central Standard Time),309978.5,005_o_f_n_a.png,O,m,687,11,1,1709.5999999977648,308268.90000000224,7058,VNB,B,10
11,test,4,0.0,1-Back,1,m,Thu Feb 20 2025 09:02:00 GMT-0600 (Central Standard Time),312261.0,011_m_f_d_a.png,O,m,1252,12,1,2279.199999999255,309981.80000000075,7058,VNB,B,11
12,test,4,0.0,1-Back,1,m,Thu Feb 20 2025 09:02:00 GMT-0600 (Central Standard Time),314460.40000000224,020_y_f_n_a.png,O,m,1169,13,1,2195.900000002235,312264.5,7058,VNB,B,12
13,test,4,0.0,1-Back,1,m,Thu Feb 20 2025 09:02:00 GMT-0600 (Central Standard Time),316376.5,005_o_f_d_a.png,O,m,890,14,1,1912.199999999255,314464.30000000075,7058,VNB,B,13
14,test,4,0.0,1-Back,1,m,Thu Feb 20 2025 09:02:00 GMT-0600 (Central Standard Time),318475.80000000075,020_y_f_h_a.png,O,m,1070,15,1,2096.0,316379.80000000075,7058,VNB,B,14
15,test,4,1.0,1-Back,1,z,Thu Feb 20 2025 09:02:00 GMT-0600 (Central Standard Time),320875.0,007_m_m_h_a.png,O,z,1370,16,1,2394.89999999851,318480.1000000015,7058,VNB,B,15
16,test,4,0.0,1-Back,1,m,Thu Feb 20 2025 09:02:00 GMT-0600 (Central Standard Time),322657.40000000224,004_o_m_n_a.png,O,m,755,17,1,1778.2000000029802,320879.19999999925,7058,VNB,B,16
17,test,4,1.0,1-Back,1,z,Thu Feb 20 2025 09:02:00 GMT-0600 (Central Standard Time),324757.1000000015,016_y_m_n_a.png,O,z,1076,18,1,2095.300000000745,322661.80000000075,7058,VNB,B,17
0,test,5,1.0,1-Back,,,Thu Feb 20 2025 09:02:00 GMT-0600 (Central Standard Time),324757.1000000015,004_o_m_n_a.png,O,space,889,1,1,2095.300000000745,322661.80000000075,7058,VNB,B,0
1,test,5,1.0,1-Back,1,m,Thu Feb 20 2025 09:02:00 GMT-0600 (Central Standard Time),329772.30000000075,005_o_f_h_a.png,O,m,1070,2,1,2094.89999999851,327677.40000000224,7058,VNB,B,1
2,test,5,0.0,1-Back,1,m,Thu Feb 20 2025 09:02:00 GMT-0600 (Central Standard Time),332054.80000000075,016_y_m_d_a.png,O,m,1250,3,1,2278.199999999255,329776.6000000015,7058,VNB,B,2
3,test,5,0.0,1-Back,1,z,Thu Feb 20 2025 09:02:00 GMT-0600 (Central Standard Time),333921.0,004_o_m_d_a.png,O,z,847,4,1,1861.8999999985099,332059.1000000015,7058,VNB,B,3
4,test,5,0.0,1-Back,1,m,Thu Feb 20 2025 09:02:00 GMT-0600 (Central Standard Time),335703.80000000075,011_m_f_h_a.png,O,m,757,5,1,1778.3999999985099,333925.40000000224,7058,VNB,B,4
5,test,5,0.0,1-Back,1,m,Thu Feb 20 2025 09:02:00 GMT-0600 (Central Standard Time),337852.90000000224,020_y_f_n_a.png,O,m,1118,6,1,2146.0,335706.90000000224,7058,VNB,B,5
6,test,5,1.0,1-Back,1,z,Thu Feb 20 2025 09:02:00 GMT-0600 (Central Standard Time),339869.5,005_o_f_n_a.png,O,z,985,7,1,2012.699999999255,337856.80000000075,7058,VNB,B,6
7,test,5,0.0,1-Back,1,m,Thu Feb 20 2025 09:02:00 GMT-0600 (Central Standard Time),341668.6000000015,011_m_f_d_a.png,O,m,777,8,1,1795.199999999255,339873.40000000224,7058,VNB,B,7
8,test,5,0.0,1-Back,1,m,Thu Feb 20 2025 09:02:00 GMT-0600 (Central Standard Time),344101.19999999925,016_y_m_h_a.png,O,m,1402,9,1,2428.599999997765,341672.6000000015,7058,VNB,B,8
9,test,5,0.0,1-Back,1,m,Thu Feb 20 2025 09:02:00 GMT-0600 (Central Standard Time),346100.40000000224,020_y_f_d_a.png,O,m,969,10,1,1994.6000000014901,344105.80000000075,7058,VNB,B,9
10,test,5,0.0,1-Back,1,m,Thu Feb 20 2025 09:02:00 GMT-0600 (Central Standard Time),348166.6000000015,007_m_m_n_a.png,O,m,1042,11,1,2062.5,346104.1000000015,7058,VNB,B,10
11,test,5,1.0,1-Back,1,z,Thu Feb 20 2025 09:02:00 GMT-0600 (Central Standard Time),350599.19999999925,011_m_f_n_a.png,O,z,1408,12,1,2428.2999999970198,348170.90000000224,7058,VNB,B,11
12,test,5,0.0,1-Back,1,m,Thu Feb 20 2025 09:02:00 GMT-0600 (Central Standard Time),352348.6000000015,004_o_m_h_a.png,O,m,727,13,1,1745.6000000014901,350603.0,7058,VNB,B,12
13,test,5,0.0,1-Back,1,z,Thu Feb 20 2025 09:02:00 GMT-0600 (Central Standard Time),354364.5,007_m_m_h_a.png,O,z,986,14,1,2012.0,352352.5,7058,VNB,B,13
14,test,5,1.0,1-Back,1,m,Thu Feb 20 2025 09:02:00 GMT-0600 (Central Standard Time),356147.19999999925,005_o_f_d_a.png,O,m,754,15,1,1779.3999999985099,354367.80000000075,7058,VNB,B,14
15,test,5,0.0,1-Back,1,m,Thu Feb 20 2025 09:02:00 GMT-0600 (Central Standard Time),358296.69999999925,016_y_m_n_a.png,O,m,1123,16,1,2145.5,356151.19999999925,7058,VNB,B,15
16,test,5,0.0,1-Back,1,m,Thu Feb 20 2025 09:02:00 GMT-0600 (Central Standard Time),360312.69999999925,020_y_f_h_a.png,O,m,989,17,1,2011.5999999977648,358301.1000000015,7058,VNB,B,16
17,test,5,0.0,1-Back,1,m,Thu Feb 20 2025 09:02:00 GMT-0600 (Central Standard Time),362361.90000000224,007_m_m_d_a.png,O,m,1030,18,1,2046.0,360315.90000000224,7058,VNB,B,17
0,prac,1,0.0,2-Back,,,Thu Feb 20 2025 09:02:00 GMT-0600 (Central Standard Time),362361.90000000224,011_m_f_n_a.png,O,space,3810,1,1,2046.0,360315.90000000224,7058,VNB,B,0
0,prac,1,0.0,2-Back,,,Thu Feb 20 2025 09:02:00 GMT-0600 (Central Standard Time),362361.90000000224,005_o_f_h_a.png,O,space,3810,2,1,2046.0,360315.90000000224,7058,VNB,B,0
1,prac,1,0.0,2-Back,1,m,Thu Feb 20 2025 09:02:00 GMT-0600 (Central Standard Time),446286.0,004_o_m_d_a.png,O,m,990,3,1,1858.0999999977648,444427.90000000224,7058,VNB,B,1
2,prac,1,1.0,2-Back,1,z,Thu Feb 20 2025 09:02:00 GMT-0600 (Central Standard Time),448751.90000000224,007_m_m_h_a.png,O,z,1562,4,1,2458.400000002235,446293.5,7058,VNB,B,2
3,prac,1,0.0,2-Back,1,m,Thu Feb 20 2025 09:02:00 GMT-0600 (Central Standard Time),450900.90000000224,020_y_f_n_a.png,O,m,1265,5,1,2143.2000000029802,448757.69999999925,7058,VNB,B,3
4,prac,1,1.0,2-Back,1,z,Thu Feb 20 2025 09:02:00 GMT-0600 (Central Standard Time),453283.69999999925,004_o_m_h_a.png,O,z,1502,6,1,2375.699999999255,450908.0,7058,VNB,B,4
5,prac,1,1.0,2-Back,1,z,Thu Feb 20 2025 09:02:00 GMT-0600 (Central Standard Time),455816.30000000075,016_y_m_n_a.png,O,z,1639,7,1,2527.39999999851,453288.90000000224,7058,VNB,B,5
6,prac,1,0.0,2-Back,1,m,Thu Feb 20 2025 09:02:00 GMT-0600 (Central Standard Time),458583.1000000015,011_m_f_d_a.png,O,m,1898,8,1,2761.400000002235,455821.69999999925,7058,VNB,B,6
7,prac,1,0.0,2-Back,1,m,Thu Feb 20 2025 09:02:00 GMT-0600 (Central Standard Time),461098.90000000224,005_o_f_d_a.png,O,m,1618,9,1,2509.5,458589.40000000224,7058,VNB,B,7
7,prac,1,0.0,2-Back,0,m,Thu Feb 20 2025 09:02:00 GMT-0600 (Central Standard Time),462864.1000000015,007_m_m_h_a.png,O,z,980,10,1,1758.300000000745,461105.80000000075,7058,VNB,B,8
7,prac,1,1.0,2-Back,0,z,Thu Feb 20 2025 09:02:00 GMT-0600 (Central Standard Time),465080.0,020_y_f_d_a.png,O,m,1340,11,1,2210.39999999851,462869.6000000015,7058,VNB,B,9
8,prac,1,0.0,2-Back,1,m,Thu Feb 20 2025 09:02:00 GMT-0600 (Central Standard Time),467462.5,004_o_m_n_a.png,O,m,1516,12,1,2377.39999999851,465085.1000000015,7058,VNB,B,10
0,test,1,0.0,2-Back,,,Thu Feb 20 2025 09:02:00 GMT-0600 (Central Standard Time),467462.5,016_y_m_h_a.png,O,space,6734,1,1,2377.39999999851,465085.1000000015,7058,VNB,B,0
0,test,1,0.0,2-Back,,,Thu Feb 20 2025 09:02:00 GMT-0600 (Central Standard Time),467462.5,005_o_f_n_a.png,O,space,6734,2,1,2377.39999999851,465085.1000000015,7058,VNB,B,0
1,test,1,0.0,2-Back,1,z,Thu Feb 20 2025 09:02:00 GMT-0600 (Central Standard Time),489755.6000000015,004_o_m_h_a.png,O,z,954,3,1,1979.4000000022352,487776.19999999925,7058,VNB,B,1
2,test,1,0.0,2-Back,1,m,Thu Feb 20 2025 09:02:00 GMT-0600 (Central Standard Time),492054.90000000224,011_m_f_d_a.png,O,m,1283,4,1,2295.400000002235,489759.5,7058,VNB,B,2
2,test,1,1.0,2-Back,0,m,Thu Feb 20 2025 09:02:00 GMT-0600 (Central Standard Time),494837.5,016_y_m_n_a.png,O,z,1746,5,1,2778.5,492059.0,7058,VNB,B,3
2,test,1,0.0,2-Back,0,z,Thu Feb 20 2025 09:02:00 GMT-0600 (Central Standard Time),497819.6000000015,020_y_f_d_a.png,O,m,1961,6,1,2978.199999999255,494841.40000000224,7058,VNB,B,4
3,test,1,0.0,2-Back,1,m,Thu Feb 20 2025 09:02:00 GMT-0600 (Central Standard Time),500185.69999999925,007_m_m_h_a.png,O,m,1347,7,1,2362.099999997765,497823.6000000015,7058,VNB,B,5
4,test,1,1.0,2-Back,1,m,Thu Feb 20 2025 09:02:00 GMT-0600 (Central Standard Time),502301.5,020_y_f_n_a.png,O,m,1093,8,1,2111.699999999255,500189.80000000075,7058,VNB,B,6
4,test,1,0.0,2-Back,0,z,Thu Feb 20 2025 09:02:00 GMT-0600 (Central Standard Time),505217.1000000015,005_o_f_h_a.png,O,m,1889,9,1,2911.199999999255,502305.90000000224,7058,VNB,B,7
4,test,1,0.0,2-Back,0,m,Thu Feb 20 2025 09:02:00 GMT-0600 (Central Standard Time),508249.80000000075,004_o_m_d_a.png,O,None,2016,10,1,3029.5,505220.30000000075,7058,VNB,B,8
5,test,1,1.0,2-Back,1,m,Thu Feb 20 2025 09:02:00 GMT-0600 (Central Standard Time),510465.69999999925,007_m_m_d_a.png,O,m,1188,11,1,2211.7999999970198,508253.90000000224,7058,VNB,B,9
6,test,1,0.0,2-Back,1,m,Thu Feb 20 2025 09:02:00 GMT-0600 (Central Standard Time),512431.5,011_m_f_n_a.png,O,m,949,12,1,1962.0,510469.5,7058,VNB,B,10
7,test,1,0.0,2-Back,1,m,Thu Feb 20 2025 09:02:00 GMT-0600 (Central Standard Time),514397.80000000075,020_y_f_h_a.png,O,m,933,13,1,1962.199999999255,512435.6000000015,7058,VNB,B,11
7,test,1,0.0,2-Back,0,z,Thu Feb 20 2025 09:02:00 GMT-0600 (Central Standard Time),516979.90000000224,007_m_m_n_a.png,O,m,1559,14,1,2578.300000000745,514401.6000000015,7058,VNB,B,12
7,test,1,0.0,2-Back,0,m,Thu Feb 20 2025 09:02:00 GMT-0600 (Central Standard Time),520012.90000000224,016_y_m_d_a.png,O,None,2016,15,1,3029.300000000745,516983.6000000015,7058,VNB,B,13
8,test,1,1.0,2-Back,1,m,Thu Feb 20 2025 09:02:00 GMT-0600 (Central Standard Time),522728.5,011_m_f_h_a.png,O,m,1690,16,1,2712.300000000745,520016.19999999925,7058,VNB,B,14
8,test,1,0.0,2-Back,0,z,Thu Feb 20 2025 09:02:00 GMT-0600 (Central Standard Time),524777.9000000022,005_o_f_d_a.png,O,m,1022,17,1,2045.9000000022352,522732.0,7058,VNB,B,15
8,test,1,0.0,2-Back,0,m,Thu Feb 20 2025 09:02:00 GMT-0600 (Central Standard Time),526977.1999999993,004_o_m_n_a.png,O,z,1180,18,1,2195.2999999970198,524781.9000000022,7058,VNB,B,16
0,test,2,0.0,2-Back,,,Thu Feb 20 2025 09:02:00 GMT-0600 (Central Standard Time),526977.1999999993,007_m_m_h_a.png,O,space,901,1,1,2195.2999999970198,524781.9000000022,7058,VNB,B,0
0,test,2,0.0,2-Back,,,Thu Feb 20 2025 09:02:00 GMT-0600 (Central Standard Time),526977.1999999993,020_y_f_n_a.png,O,space,901,2,1,2195.2999999970198,524781.9000000022,7058,VNB,B,0
1,test,2,1.0,2-Back,1,z,Thu Feb 20 2025 09:02:00 GMT-0600 (Central Standard Time),534657.9000000022,005_o_f_h_a.png,O,z,472,3,1,1494.6000000014901,533163.3000000007,7058,VNB,B,1
2,test,2,0.0,2-Back,1,m,Thu Feb 20 2025 09:02:00 GMT-0600 (Central Standard Time),536607.3000000007,004_o_m_d_a.png,O,m,932,4,1,1945.3999999985099,534661.9000000022,7058,VNB,B,2
3,test,2,0.0,2-Back,1,m,Thu Feb 20 2025 09:02:00 GMT-0600 (Central Standard Time),538490.3000000007,011_m_f_d_a.png,O,m,855,5,1,1879.199999999255,536611.1000000015,7058,VNB,B,3
4,test,2,0.0,2-Back,1,m,Thu Feb 20 2025 09:02:00 GMT-0600 (Central Standard Time),540839.6999999993,016_y_m_h_a.png,O,m,1332,6,1,2345.39999999851,538494.3000000007,7058,VNB,B,4
4,test,2,0.0,2-Back,0,m,Thu Feb 20 2025 09:02:00 GMT-0600 (Central Standard Time),542822.3000000007,005_o_f_n_a.png,O,z,959,7,1,1978.699999999255,540843.6000000015,7058,VNB,B,5
4,test,2,1.0,2-Back,0,z,Thu Feb 20 2025 09:02:00 GMT-0600 (Central Standard Time),544638.5,004_o_m_h_a.png,O,m,792,8,1,1811.8999999985099,542826.6000000015,7058,VNB,B,6
5,test,2,0.0,2-Back,1,m,Thu Feb 20 2025 09:02:00 GMT-0600 (Central Standard Time),546854.3000000007,020_y_f_d_a.png,O,m,1191,9,1,2211.800000000745,544642.5,7058,VNB,B,7
6,test,2,0.0,2-Back,1,m,Thu Feb 20 2025 09:02:00 GMT-0600 (Central Standard Time),549336.8000000007,016_y_m_d_a.png,O,m,1456,10,1,2478.60000000149,546858.1999999993,7058,VNB,B,8
7,test,2,0.0,2-Back,1,m,Thu Feb 20 2025 09:02:00 GMT-0600 (Central Standard Time),552269.1999999993,007_m_m_n_a.png,O,m,1901,11,1,2928.89999999851,549340.3000000007,7058,VNB,B,9
8,test,2,0.0,2-Back,1,m,Thu Feb 20 2025 09:02:00 GMT-0600 (Central Standard Time),554201.8000000007,011_m_f_h_a.png,O,m,905,12,1,1928.5,552273.3000000007,7058,VNB,B,10
9,test,2,1.0,2-Back,1,z,Thu Feb 20 2025 09:02:00 GMT-0600 (Central Standard Time),556534.8000000007,004_o_m_n_a.png,O,z,1300,13,1,2328.60000000149,554206.1999999993,7058,VNB,B,11
10,test,2,0.0,2-Back,1,m,Thu Feb 20 2025 09:02:00 GMT-0600 (Central Standard Time),559050.4000000022,005_o_f_d_a.png,O,m,1495,14,1,2511.7000000029802,556538.6999999993,7058,VNB,B,12
11,test,2,0.0,2-Back,1,m,Thu Feb 20 2025 09:02:00 GMT-0600 (Central Standard Time),561483.0,020_y_f_h_a.png,O,m,1411,15,1,2428.800000000745,559054.1999999993,7058,VNB,B,13
11,test,2,0.0,2-Back,0,z,Thu Feb 20 2025 09:02:00 GMT-0600 (Central Standard Time),564515.6999999993,007_m_m_d_a.png,O,None,2015,16,1,3028.39999999851,561487.3000000007,7058,VNB,B,14
11,test,2,0.0,2-Back,0,m,Thu Feb 20 2025 09:02:00 GMT-0600 (Central Standard Time),567047.6000000015,016_y_m_n_a.png,O,z,1515,17,1,2527.900000002235,564519.6999999993,7058,VNB,B,15
12,test,2,1.0,2-Back,1,m,Thu Feb 20 2025 09:02:00 GMT-0600 (Central Standard Time),569597.1000000015,011_m_f_n_a.png,O,m,1526,18,1,2545.900000002235,567051.1999999993,7058,VNB,B,16
0,test,3,1.0,2-Back,,,Thu Feb 20 2025 09:02:00 GMT-0600 (Central Standard Time),569597.1000000015,004_o_m_n_a.png,O,space,1017,1,1,2545.900000002235,567051.1999999993,7058,VNB,B,0
0,test,3,1.0,2-Back,,,Thu Feb 20 2025 09:02:00 GMT-0600 (Central Standard Time),569597.1000000015,005_o_f_d_a.png,O,space,1017,2,1,2545.900000002235,567051.1999999993,7058,VNB,B,0
1,test,3,0.0,2-Back,1,m,Thu Feb 20 2025 09:02:00 GMT-0600 (Central Standard Time),577577.8000000007,020_y_f_h_a.png,O,m,688,3,1,1713.1000000014901,575864.6999999993,7058,VNB,B,1
2,test,3,0.0,2-Back,1,z,Thu Feb 20 2025 09:02:00 GMT-0600 (Central Standard Time),579977.0,011_m_f_d_a.png,O,z,1372,4,1,2395.099999997765,577581.9000000022,7058,VNB,B,2
2,test,3,1.0,2-Back,0,m,Thu Feb 20 2025 09:02:00 GMT-0600 (Central Standard Time),582559.5,016_y_m_n_a.png,O,z,1557,5,1,2577.699999999255,579981.8000000007,7058,VNB,B,3
3,test,3,0.0,2-Back,1,m,Thu Feb 20 2025 09:02:00 GMT-0600 (Central Standard Time),584975.4000000022,004_o_m_h_a.png,O,m,1399,6,1,2411.800000000745,582563.6000000015,7058,VNB,B,4
3,test,3,0.0,2-Back,0,z,Thu Feb 20 2025 09:02:00 GMT-0600 (Central Standard Time),587658.1000000015,020_y_f_n_a.png,O,m,1662,7,1,2679.199999999255,584978.9000000022,7058,VNB,B,5
4,test,3,1.0,2-Back,1,m,Thu Feb 20 2025 09:02:00 GMT-0600 (Central Standard Time),590007.3000000007,007_m_m_d_a.png,O,m,1324,8,1,2345.10000000149,587662.1999999993,7058,VNB,B,6
5,test,3,0.0,2-Back,1,m,Thu Feb 20 2025 09:02:00 GMT-0600 (Central Standard Time),592756.6000000015,016_y_m_d_a.png,O,m,1727,9,1,2745.10000000149,590011.5,7058,VNB,B,7
5,test,3,0.0,2-Back,0,m,Thu Feb 20 2025 09:02:00 GMT-0600 (Central Standard Time),594872.6000000015,005_o_f_h_a.png,O,z,1090,10,1,2112.900000002235,592759.6999999993,7058,VNB,B,8
6,test,3,1.0,2-Back,1,m,Thu Feb 20 2025 09:02:00 GMT-0600 (Central Standard Time),597271.6000000015,011_m_f_n_a.png,O,m,1381,11,1,2395.400000002235,594876.1999999993,7058,VNB,B,9
6,test,3,1.0,2-Back,0,z,Thu Feb 20 2025 09:02:00 GMT-0600 (Central Standard Time),599887.5,007_m_m_h_a.png,O,m,1598,12,1,2612.199999999255,597275.3000000007,7058,VNB,B,10
7,test,3,0.0,2-Back,1,m,Thu Feb 20 2025 09:02:00 GMT-0600 (Central Standard Time),602320.0,020_y_f_d_a.png,O,m,1415,13,1,2428.699999999255,599891.3000000007,7058,VNB,B,11
8,test,3,0.0,2-Back,1,m,Thu Feb 20 2025 09:02:00 GMT-0600 (Central Standard Time),604319.6000000015,005_o_f_n_a.png,O,m,966,14,1,1996.0,602323.6000000015,7058,VNB,B,12
8,test,3,0.0,2-Back,0,z,Thu Feb 20 2025 09:02:00 GMT-0600 (Central Standard Time),606951.8000000007,004_o_m_d_a.png,O,m,1615,15,1,2628.89999999851,604322.9000000022,7058,VNB,B,13
8,test,3,1.0,2-Back,0,m,Thu Feb 20 2025 09:02:00 GMT-0600 (Central Standard Time),609984.4000000022,011_m_f_h_a.png,O,None,2015,16,1,3029.300000000745,606955.1000000015,7058,VNB,B,14
9,test,3,0.0,2-Back,1,m,Thu Feb 20 2025 09:02:00 GMT-0600 (Central Standard Time),611967.0,007_m_m_n_a.png,O,m,958,17,1,1978.5,609988.5,7058,VNB,B,15
10,test,3,0.0,2-Back,1,z,Thu Feb 20 2025 09:02:00 GMT-0600 (Central Standard Time),614332.9000000022,016_y_m_h_a.png,O,z,1335,18,1,2362.400000002235,611970.5,7058,VNB,B,16
0,test,4,0.0,2-Back,,,Thu Feb 20 2025 09:02:00 GMT-0600 (Central Standard Time),614332.9000000022,011_m_f_n_a.png,O,space,897,1,1,2362.400000002235,611970.5,7058,VNB,B,0
0,test,4,0.0,2-Back,,,Thu Feb 20 2025 09:02:00 GMT-0600 (Central Standard Time),614332.9000000022,004_o_m_n_a.png,O,space,897,2,1,2362.400000002235,611970.5,7058,VNB,B,0
1,test,4,1.0,2-Back,1,m,Thu Feb 20 2025 09:02:00 GMT-0600 (Central Standard Time),622230.6000000015,016_y_m_h_a.png,O,m,742,3,1,1761.800000000745,620468.8000000007,7058,VNB,B,1
2,test,4,1.0,2-Back,1,m,Thu Feb 20 2025 09:02:00 GMT-0600 (Central Standard Time),624146.3000000007,005_o_f_d_a.png,O,m,896,4,1,1911.300000000745,622235.0,7058,VNB,B,2
3,test,4,0.0,2-Back,1,z,Thu Feb 20 2025 09:02:00 GMT-0600 (Central Standard Time),626112.9000000022,004_o_m_h_a.png,O,z,939,5,1,1962.800000000745,624150.1000000015,7058,VNB,B,3
4,test,4,0.0,2-Back,1,m,Thu Feb 20 2025 09:02:00 GMT-0600 (Central Standard Time),628412.3000000007,007_m_m_n_a.png,O,m,1278,6,1,2296.300000000745,626116.0,7058,VNB,B,4
5,test,4,0.0,2-Back,1,m,Thu Feb 20 2025 09:02:00 GMT-0600 (Central Standard Time),630844.6999999993,011_m_f_d_a.png,O,m,1410,7,1,2428.699999999255,628416.0,7058,VNB,B,5
6,test,4,0.0,2-Back,1,z,Thu Feb 20 2025 09:02:00 GMT-0600 (Central Standard Time),633393.9000000022,020_y_f_n_a.png,O,z,1530,8,1,2545.7000000029802,630848.1999999993,7058,VNB,B,6
7,test,4,1.0,2-Back,1,m,Thu Feb 20 2025 09:02:00 GMT-0600 (Central Standard Time),635876.3000000007,005_o_f_h_a.png,O,m,1458,9,1,2478.300000000745,633398.0,7058,VNB,B,7
8,test,4,0.0,2-Back,1,m,Thu Feb 20 2025 09:02:00 GMT-0600 (Central Standard Time),637775.9000000022,007_m_m_h_a.png,O,m,874,10,1,1896.1000000014901,635879.8000000007,7058,VNB,B,8
9,test,4,0.0,2-Back,1,m,Thu Feb 20 2025 09:02:00 GMT-0600 (Central Standard Time),640358.1999999993,020_y_f_d_a.png,O,m,1550,11,1,2577.2999999970198,637780.9000000022,7058,VNB,B,9
10,test,4,0.0,2-Back,1,m,Thu Feb 20 2025 09:02:00 GMT-0600 (Central Standard Time),642274.5,016_y_m_n_a.png,O,m,896,12,1,1912.3999999985099,640362.1000000015,7058,VNB,B,10
11,test,4,0.0,2-Back,1,z,Thu Feb 20 2025 09:02:00 GMT-0600 (Central Standard Time),644407.1999999993,004_o_m_d_a.png,O,z,1116,13,1,2129.599999997765,642277.6000000015,7058,VNB,B,11
11,test,4,1.0,2-Back,0,m,Thu Feb 20 2025 09:02:00 GMT-0600 (Central Standard Time),647206.1999999993,011_m_f_h_a.png,O,z,1775,14,1,2795.099999997765,644411.1000000015,7058,VNB,B,12
11,test,4,1.0,2-Back,0,m,Thu Feb 20 2025 09:02:00 GMT-0600 (Central Standard Time),649605.1000000015,020_y_f_h_a.png,O,z,1368,15,1,2395.10000000149,647210.0,7058,VNB,B,13
12,test,4,0.0,2-Back,1,m,Thu Feb 20 2025 09:02:00 GMT-0600 (Central Standard Time),651438.1999999993,005_o_f_n_a.png,O,m,801,16,1,1829.3999999985099,649608.8000000007,7058,VNB,B,14
13,test,4,0.0,2-Back,1,m,Thu Feb 20 2025 09:02:00 GMT-0600 (Central Standard Time),653370.6000000015,016_y_m_d_a.png,O,m,912,17,1,1928.1000000014901,651442.5,7058,VNB,B,15
13,test,4,1.0,2-Back,0,m,Thu Feb 20 2025 09:02:00 GMT-0600 (Central Standard Time),655320.1999999993,007_m_m_d_a.png,O,z,923,18,1,1946.3999999985099,653373.8000000007,7058,VNB,B,16
0,test,5,1.0,2-Back,,,Thu Feb 20 2025 09:02:00 GMT-0600 (Central Standard Time),655320.1999999993,020_y_f_d_a.png,O,space,934,1,1,1946.3999999985099,653373.8000000007,7058,VNB,B,0
0,test,5,1.0,2-Back,,,Thu Feb 20 2025 09:02:00 GMT-0600 (Central Standard Time),655320.1999999993,005_o_f_h_a.png,O,space,934,2,1,1946.3999999985099,653373.8000000007,7058,VNB,B,0
1,test,5,1.0,2-Back,1,z,Thu Feb 20 2025 09:02:00 GMT-0600 (Central Standard Time),663151.0,004_o_m_d_a.png,O,z,608,3,1,1630.0999999977648,661520.9000000022,7058,VNB,B,1
2,test,5,1.0,2-Back,1,m,Thu Feb 20 2025 09:02:00 GMT-0600 (Central Standard Time),665083.5,011_m_f_n_a.png,O,m,910,4,1,1928.800000000745,663154.6999999993,7058,VNB,B,2
3,test,5,0.0,2-Back,1,m,Thu Feb 20 2025 09:02:00 GMT-0600 (Central Standard Time),667583.0,007_m_m_h_a.png,O,m,1475,5,1,2495.5,665087.5,7058,VNB,B,3
3,test,5,0.0,2-Back,0,z,Thu Feb 20 2025 09:02:00 GMT-0600 (Central Standard Time),669782.4000000022,020_y_f_n_a.png,O,m,1167,6,1,2195.900000002235,667586.5,7058,VNB,B,4
3,test,5,0.0,2-Back,0,m,Thu Feb 20 2025 09:02:00 GMT-0600 (Central Standard Time),672814.8000000007,005_o_f_d_a.png,O,None,2016,7,1,3028.10000000149,669786.6999999993,7058,VNB,B,5
4,test,5,0.0,2-Back,1,m,Thu Feb 20 2025 09:02:00 GMT-0600 (Central Standard Time),674597.5,004_o_m_h_a.png,O,m,751,8,1,1779.300000000745,672818.1999999993,7058,VNB,B,6
5,test,5,1.0,2-Back,1,z,Thu Feb 20 2025 09:02:00 GMT-0600 (Central Standard Time),676563.5,011_m_f_d_a.png,O,z,937,9,1,1962.0999999977648,674601.4000000022,7058,VNB,B,7
6,test,5,0.0,2-Back,1,m,Thu Feb 20 2025 09:02:00 GMT-0600 (Central Standard Time),678396.4000000022,016_y_m_n_a.png,O,m,810,10,1,1829.0,676567.4000000022,7058,VNB,B,8
7,test,5,0.0,2-Back,1,m,Thu Feb 20 2025 09:02:00 GMT-0600 (Central Standard Time),681361.5,007_m_m_n_a.png,O,m,1948,11,1,2961.300000000745,678400.1999999993,7058,VNB,B,9
8,test,5,0.0,2-Back,1,m,Thu Feb 20 2025 09:02:00 GMT-0600 (Central Standard Time),683378.1000000015,020_y_f_h_a.png,O,m,996,12,1,2012.800000000745,681365.3000000007,7058,VNB,B,10
9,test,5,0.0,2-Back,1,m,Thu Feb 20 2025 09:02:00 GMT-0600 (Central Standard Time),685511.1000000015,016_y_m_d_a.png,O,m,1116,13,1,2128.900000002235,683382.1999999993,7058,VNB,B,11
10,test,5,1.0,2-Back,1,z,Thu Feb 20 2025 09:02:00 GMT-0600 (Central Standard Time),687376.9000000022,011_m_f_h_a.png,O,z,847,14,1,1862.1000000014901,685514.8000000007,7058,VNB,B,12
11,test,5,0.0,2-Back,1,m,Thu Feb 20 2025 09:02:00 GMT-0600 (Central Standard Time),689492.8000000007,004_o_m_n_a.png,O,m,1093,15,1,2112.199999999255,687380.6000000015,7058,VNB,B,13
12,test,5,0.0,2-Back,1,m,Thu Feb 20 2025 09:02:00 GMT-0600 (Central Standard Time),691675.6999999993,007_m_m_d_a.png,O,m,1161,16,1,2179.0,689496.6999999993,7058,VNB,B,14
13,test,5,0.0,2-Back,1,z,Thu Feb 20 2025 09:02:00 GMT-0600 (Central Standard Time),693741.6000000015,005_o_f_n_a.png,O,z,1035,17,1,2062.0,691679.6000000015,7058,VNB,B,15
14,test,5,1.0,2-Back,1,m,Thu Feb 20 2025 09:02:00 GMT-0600 (Central Standard Time),695991.1000000015,016_y_m_h_a.png,O,m,1233,18,1,2245.60000000149,693745.5,7058,VNB,B,16
