acc_sum,block,block_c,change,condition,correct,correct_response,datetime,endtime,face,project,response,response_time,row_sel,session_number,start_end,starttime,subject_id,task,task_vers,trial
0,prac,1,,1-Back,,,Wed Mar 19 2025 16:36:23 GMT-0500 (Central Daylight Time),,093_m_f_n_a.png,O,space,10693,1,1,,,7065,NNB,C,0
1,prac,1,0.0,1-Back,1,m,Wed Mar 19 2025 16:36:23 GMT-0500 (Central Daylight Time),139957.80000000028,098_y_f_n_a.png,O,m,1346,2,1,2208.5,137749.30000000028,7065,NNB,C,1
2,prac,1,1.0,1-Back,1,z,Wed Mar 19 2025 16:36:23 GMT-0500 (Central Daylight Time),142707.0,098_y_f_n_a.png,O,z,1972,3,1,2741.6999999997206,139965.30000000028,7065,NNB,C,2
3,prac,1,0.0,1-Back,1,m,Wed Mar 19 2025 16:36:23 GMT-0500 (Central Daylight Time),144672.8999999999,059_o_m_n_a.png,O,m,1094,4,1,1959.8999999999069,142713.0,7065,NNB,C,3
4,prac,1,0.0,1-Back,1,m,Wed Mar 19 2025 16:36:23 GMT-0500 (Central Daylight Time),146840.0,092_m_m_n_a.png,O,m,1290,5,1,2160.6999999997206,144679.30000000028,7065,NNB,C,4
5,prac,1,1.0,1-Back,1,z,Wed Mar 19 2025 16:36:23 GMT-0500 (Central Daylight Time),148555.0,092_m_m_n_a.png,O,z,939,6,1,1708.7999999998137,146846.2000000002,7065,NNB,C,5
6,prac,1,0.0,1-Back,1,m,Wed Mar 19 2025 16:36:23 GMT-0500 (Central Daylight Time),150471.0,130_o_f_n_a.png,O,m,1011,7,1,1908.0,148563.0,7065,NNB,C,6
7,prac,1,0.0,1-Back,1,m,Wed Mar 19 2025 16:36:23 GMT-0500 (Central Daylight Time),152653.6000000001,082_m_m_n_a.png,O,m,1301,8,1,2176.7000000001863,150476.8999999999,7065,NNB,C,7
8,prac,1,0.0,1-Back,1,m,Wed Mar 19 2025 16:36:23 GMT-0500 (Central Daylight Time),154754.0,093_m_f_n_a.png,O,m,1310,9,1,2094.399999999907,152659.6000000001,7065,NNB,C,8
9,prac,1,1.0,1-Back,1,z,Wed Mar 19 2025 16:36:23 GMT-0500 (Central Daylight Time),156769.0,093_m_f_n_a.png,O,z,1240,10,1,2007.6000000000931,154761.3999999999,7065,NNB,C,9
10,prac,1,0.0,1-Back,1,m,Wed Mar 19 2025 16:36:23 GMT-0500 (Central Daylight Time),158568.5,059_o_m_n_a.png,O,m,1010,11,1,1791.7999999998137,156776.7000000002,7065,NNB,C,10
11,prac,1,0.0,1-Back,1,m,Wed Mar 19 2025 16:36:23 GMT-0500 (Central Daylight Time),160634.6000000001,028_y_f_n_a.png,O,m,1195,12,1,2058.600000000093,158576.0,7065,NNB,C,11
0,test,1,0.0,1-Back,,,Wed Mar 19 2025 16:36:23 GMT-0500 (Central Daylight Time),160634.6000000001,098_y_f_n_a.png,O,space,8304,1,1,2058.600000000093,158576.0,7065,NNB,C,0
1,test,1,0.0,1-Back,1,m,Wed Mar 19 2025 16:36:23 GMT-0500 (Central Daylight Time),183177.5,006_m_f_n_a.png,O,m,1050,2,1,2076.2999999998137,181101.2000000002,7065,NNB,C,1
2,test,1,0.0,1-Back,1,m,Wed Mar 19 2025 16:36:23 GMT-0500 (Central Daylight Time),185326.6000000001,028_y_f_n_a.png,O,m,1120,3,1,2144.2999999998137,183182.30000000028,7065,NNB,C,2
3,test,1,1.0,1-Back,1,z,Wed Mar 19 2025 16:36:23 GMT-0500 (Central Daylight Time),187276.2000000002,028_y_f_n_a.png,O,z,923,4,1,1945.8000000002794,185330.3999999999,7065,NNB,C,3
4,test,1,0.0,1-Back,1,m,Wed Mar 19 2025 16:36:23 GMT-0500 (Central Daylight Time),189325.3999999999,006_m_f_n_a.png,O,m,1021,5,1,2044.5,187280.8999999999,7065,NNB,C,4
5,test,1,0.0,1-Back,1,m,Wed Mar 19 2025 16:36:23 GMT-0500 (Central Daylight Time),191258.30000000028,059_o_m_n_a.png,O,m,916,6,1,1928.2000000001863,189330.1000000001,7065,NNB,C,5
6,test,1,1.0,1-Back,1,z,Wed Mar 19 2025 16:36:23 GMT-0500 (Central Daylight Time),193091.2000000002,059_o_m_n_a.png,O,z,807,7,1,1829.3000000002794,191261.8999999999,7065,NNB,C,6
7,test,1,0.0,1-Back,1,m,Wed Mar 19 2025 16:36:23 GMT-0500 (Central Daylight Time),194990.30000000028,092_m_m_n_a.png,O,m,870,8,1,1895.5,193094.80000000028,7065,NNB,C,7
8,test,1,0.0,1-Back,1,m,Wed Mar 19 2025 16:36:23 GMT-0500 (Central Daylight Time),197006.30000000028,130_o_f_n_a.png,O,m,994,9,1,2011.5,194994.80000000028,7065,NNB,C,8
9,test,1,0.0,1-Back,1,m,Wed Mar 19 2025 16:36:23 GMT-0500 (Central Daylight Time),198905.80000000028,092_m_m_n_a.png,O,m,867,10,1,1895.9000000003725,197009.8999999999,7065,NNB,C,9
10,test,1,0.0,1-Back,1,m,Wed Mar 19 2025 16:36:23 GMT-0500 (Central Daylight Time),200838.3999999999,057_y_m_n_a.png,O,m,903,11,1,1928.7999999998137,198909.6000000001,7065,NNB,C,10
10,test,1,1.0,1-Back,0,z,Wed Mar 19 2025 16:36:23 GMT-0500 (Central Daylight Time),202654.6000000001,057_y_m_n_a.png,O,m,795,12,1,1811.7000000001863,200842.8999999999,7065,NNB,C,11
11,test,1,0.0,1-Back,1,m,Wed Mar 19 2025 16:36:23 GMT-0500 (Central Daylight Time),204388.6000000001,030_o_f_n_a.png,O,m,706,13,1,1729.7999999998137,202658.80000000028,7065,NNB,C,12
12,test,1,1.0,1-Back,1,z,Wed Mar 19 2025 16:36:23 GMT-0500 (Central Daylight Time),206670.2000000002,030_o_f_n_a.png,O,z,1254,14,1,2278.0,204392.2000000002,7065,NNB,C,13
13,test,1,0.0,1-Back,1,m,Wed Mar 19 2025 16:36:23 GMT-0500 (Central Daylight Time),208686.1000000001,031_y_m_n_a.png,O,m,986,15,1,2012.6000000000931,206673.5,7065,NNB,C,14
14,test,1,0.0,1-Back,1,m,Wed Mar 19 2025 16:36:23 GMT-0500 (Central Daylight Time),210736.6000000001,093_m_f_n_a.png,O,m,1027,16,1,2045.8999999999069,208690.7000000002,7065,NNB,C,15
15,test,1,0.0,1-Back,1,m,Wed Mar 19 2025 16:36:23 GMT-0500 (Central Daylight Time),212418.3999999999,146_o_m_n_a.png,O,m,666,17,1,1678.2999999998137,210740.1000000001,7065,NNB,C,16
16,test,1,0.0,1-Back,1,m,Wed Mar 19 2025 16:36:23 GMT-0500 (Central Daylight Time),214167.6000000001,093_m_f_n_a.png,O,m,719,18,1,1745.3999999999069,212422.2000000002,7065,NNB,C,17
0,test,2,0.0,1-Back,,,Wed Mar 19 2025 16:36:23 GMT-0500 (Central Daylight Time),214167.6000000001,092_m_m_n_a.png,O,space,1802,1,1,1745.3999999999069,212422.2000000002,7065,NNB,C,0
1,test,2,0.0,1-Back,1,m,Wed Mar 19 2025 16:36:23 GMT-0500 (Central Daylight Time),220165.7000000002,006_m_f_n_a.png,O,m,1145,2,1,2162.2000000001863,218003.5,7065,NNB,C,1
2,test,2,1.0,1-Back,1,z,Wed Mar 19 2025 16:36:23 GMT-0500 (Central Daylight Time),222015.1000000001,006_m_f_n_a.png,O,z,827,3,1,1845.0,220170.1000000001,7065,NNB,C,2
3,test,2,0.0,1-Back,1,m,Wed Mar 19 2025 16:36:23 GMT-0500 (Central Daylight Time),223914.30000000028,092_m_m_n_a.png,O,m,882,4,1,1894.6000000000931,222019.7000000002,7065,NNB,C,3
4,test,2,0.0,1-Back,1,m,Wed Mar 19 2025 16:36:23 GMT-0500 (Central Daylight Time),225597.30000000028,057_y_m_n_a.png,O,m,654,5,1,1678.5,223918.80000000028,7065,NNB,C,4
5,test,2,0.0,1-Back,1,m,Wed Mar 19 2025 16:36:23 GMT-0500 (Central Daylight Time),227280.1000000001,098_y_f_n_a.png,O,m,660,6,1,1679.1000000000931,225601.0,7065,NNB,C,5
6,test,2,1.0,1-Back,1,z,Wed Mar 19 2025 16:36:23 GMT-0500 (Central Daylight Time),229263.0,098_y_f_n_a.png,O,z,953,7,1,1978.8999999999069,227284.1000000001,7065,NNB,C,6
7,test,2,0.0,1-Back,1,m,Wed Mar 19 2025 16:36:23 GMT-0500 (Central Daylight Time),231162.30000000028,057_y_m_n_a.png,O,m,867,8,1,1894.8000000002794,229267.5,7065,NNB,C,7
8,test,2,0.0,1-Back,1,m,Wed Mar 19 2025 16:36:23 GMT-0500 (Central Daylight Time),232928.30000000028,030_o_f_n_a.png,O,m,735,9,1,1761.4000000003725,231166.8999999999,7065,NNB,C,8
9,test,2,0.0,1-Back,1,m,Wed Mar 19 2025 16:36:23 GMT-0500 (Central Daylight Time),234610.8999999999,082_m_m_n_a.png,O,m,665,10,1,1678.7999999998137,232932.1000000001,7065,NNB,C,9
10,test,2,1.0,1-Back,1,z,Wed Mar 19 2025 16:36:23 GMT-0500 (Central Daylight Time),236710.6000000001,082_m_m_n_a.png,O,z,1070,11,1,2094.899999999907,234615.7000000002,7065,NNB,C,10
11,test,2,0.0,1-Back,1,m,Wed Mar 19 2025 16:36:23 GMT-0500 (Central Daylight Time),238760.0,030_o_f_n_a.png,O,m,1019,12,1,2044.7999999998137,236715.2000000002,7065,NNB,C,11
12,test,2,0.0,1-Back,1,m,Wed Mar 19 2025 16:36:23 GMT-0500 (Central Daylight Time),240459.30000000028,130_o_f_n_a.png,O,m,673,13,1,1695.0,238764.30000000028,7065,NNB,C,12
13,test,2,0.0,1-Back,1,m,Wed Mar 19 2025 16:36:23 GMT-0500 (Central Daylight Time),242225.5,059_o_m_n_a.png,O,m,733,14,1,1761.3999999999069,240464.1000000001,7065,NNB,C,13
14,test,2,0.0,1-Back,1,m,Wed Mar 19 2025 16:36:23 GMT-0500 (Central Daylight Time),244008.5,146_o_m_n_a.png,O,m,752,15,1,1779.7999999998137,242228.7000000002,7065,NNB,C,14
15,test,2,1.0,1-Back,1,z,Wed Mar 19 2025 16:36:23 GMT-0500 (Central Daylight Time),246041.0,146_o_m_n_a.png,O,z,1001,16,1,2028.0,244013.0,7065,NNB,C,15
16,test,2,0.0,1-Back,1,m,Wed Mar 19 2025 16:36:23 GMT-0500 (Central Daylight Time),247990.5,031_y_m_n_a.png,O,m,928,17,1,1945.0,246045.5,7065,NNB,C,16
17,test,2,1.0,1-Back,1,z,Wed Mar 19 2025 16:36:23 GMT-0500 (Central Daylight Time),250106.6000000001,031_y_m_n_a.png,O,z,1083,18,1,2112.0,247994.6000000001,7065,NNB,C,17
0,test,3,1.0,1-Back,,,Wed Mar 19 2025 16:36:23 GMT-0500 (Central Daylight Time),250106.6000000001,028_y_f_n_a.png,O,space,1711,1,1,2112.0,247994.6000000001,7065,NNB,C,0
1,test,3,0.0,1-Back,1,m,Wed Mar 19 2025 16:36:23 GMT-0500 (Central Daylight Time),255521.30000000028,146_o_m_n_a.png,O,m,575,1,1,1594.8000000002794,253926.5,7065,NNB,C,1
2,test,3,1.0,1-Back,1,z,Wed Mar 19 2025 16:36:23 GMT-0500 (Central Daylight Time),257554.1000000001,146_o_m_n_a.png,O,z,999,1,1,2029.6000000000931,255524.5,7065,NNB,C,2
3,test,3,0.0,1-Back,1,m,Wed Mar 19 2025 16:36:23 GMT-0500 (Central Daylight Time),259870.30000000028,093_m_f_n_a.png,O,m,1295,1,1,2311.8000000002794,257558.5,7065,NNB,C,3
4,test,3,1.0,1-Back,1,z,Wed Mar 19 2025 16:36:23 GMT-0500 (Central Daylight Time),261819.2000000002,093_m_f_n_a.png,O,z,923,1,1,1944.6000000000931,259874.6000000001,7065,NNB,C,4
5,test,3,0.0,1-Back,1,m,Wed Mar 19 2025 16:36:23 GMT-0500 (Central Daylight Time),263785.3999999999,030_o_f_n_a.png,O,m,934,1,1,1962.5999999996275,261822.80000000028,7065,NNB,C,5
6,test,3,0.0,1-Back,1,m,Wed Mar 19 2025 16:36:23 GMT-0500 (Central Daylight Time),265301.7000000002,057_y_m_n_a.png,O,m,496,1,1,1511.8000000002794,263789.8999999999,7065,NNB,C,6
7,test,3,0.0,1-Back,1,m,Wed Mar 19 2025 16:36:23 GMT-0500 (Central Daylight Time),266901.0,030_o_f_n_a.png,O,m,579,1,1,1595.1999999997206,265305.8000000003,7065,NNB,C,7
8,test,3,0.0,1-Back,1,m,Wed Mar 19 2025 16:36:23 GMT-0500 (Central Daylight Time),268467.3000000003,031_y_m_n_a.png,O,m,539,1,1,1561.8000000002794,266905.5,7065,NNB,C,8
9,test,3,1.0,1-Back,1,z,Wed Mar 19 2025 16:36:23 GMT-0500 (Central Daylight Time),270383.3999999999,031_y_m_n_a.png,O,z,894,1,1,1911.5999999996275,268471.8000000003,7065,NNB,C,9
10,test,3,0.0,1-Back,1,m,Wed Mar 19 2025 16:36:23 GMT-0500 (Central Daylight Time),272382.7000000002,006_m_f_n_a.png,O,m,969,1,1,1995.2000000001863,270387.5,7065,NNB,C,10
11,test,3,0.0,1-Back,1,m,Wed Mar 19 2025 16:36:23 GMT-0500 (Central Daylight Time),273982.3999999999,098_y_f_n_a.png,O,m,578,1,1,1596.1999999997206,272386.2000000002,7065,NNB,C,11
12,test,3,1.0,1-Back,1,z,Wed Mar 19 2025 16:36:23 GMT-0500 (Central Daylight Time),275998.3000000003,098_y_f_n_a.png,O,z,995,1,1,2010.7000000001863,273987.6000000001,7065,NNB,C,12
13,test,3,0.0,1-Back,1,m,Wed Mar 19 2025 16:36:23 GMT-0500 (Central Daylight Time),277914.3999999999,006_m_f_n_a.png,O,m,891,1,1,1911.7999999998137,276002.6000000001,7065,NNB,C,13
14,test,3,0.0,1-Back,1,m,Wed Mar 19 2025 16:36:23 GMT-0500 (Central Daylight Time),279480.6000000001,092_m_m_n_a.png,O,m,535,1,1,1561.3999999999069,277919.2000000002,7065,NNB,C,14
15,test,3,1.0,1-Back,1,z,Wed Mar 19 2025 16:36:23 GMT-0500 (Central Daylight Time),281496.7000000002,092_m_m_n_a.png,O,z,985,1,1,2013.0,279483.7000000002,7065,NNB,C,15
16,test,3,0.0,1-Back,1,m,Wed Mar 19 2025 16:36:23 GMT-0500 (Central Daylight Time),283380.3999999999,130_o_f_n_a.png,O,m,856,1,1,1879.3999999999069,281501.0,7065,NNB,C,16
17,test,3,1.0,1-Back,1,z,Wed Mar 19 2025 16:36:23 GMT-0500 (Central Daylight Time),285262.1000000001,130_o_f_n_a.png,O,z,862,1,1,1877.8999999999069,283384.2000000002,7065,NNB,C,17
0,test,4,1.0,1-Back,,,Wed Mar 19 2025 16:36:23 GMT-0500 (Central Daylight Time),285262.1000000001,093_m_f_n_a.png,O,space,1315,1,1,1877.8999999999069,283384.2000000002,7065,NNB,C,0
1,test,4,0.0,1-Back,1,m,Wed Mar 19 2025 16:36:23 GMT-0500 (Central Daylight Time),290243.5,146_o_m_n_a.png,O,m,548,2,1,1561.3999999999069,288682.1000000001,7065,NNB,C,1
2,test,4,0.0,1-Back,1,m,Wed Mar 19 2025 16:36:23 GMT-0500 (Central Daylight Time),292009.7000000002,093_m_f_n_a.png,O,m,742,3,1,1763.1000000000931,290246.6000000001,7065,NNB,C,2
3,test,4,0.0,1-Back,1,m,Wed Mar 19 2025 16:36:23 GMT-0500 (Central Daylight Time),293659.6000000001,030_o_f_n_a.png,O,m,623,4,1,1645.5,292014.1000000001,7065,NNB,C,3
4,test,4,1.0,1-Back,1,z,Wed Mar 19 2025 16:36:23 GMT-0500 (Central Daylight Time),295592.1000000001,030_o_f_n_a.png,O,z,909,5,1,1928.3999999999069,293663.7000000002,7065,NNB,C,4
5,test,4,0.0,1-Back,1,m,Wed Mar 19 2025 16:36:23 GMT-0500 (Central Daylight Time),297208.1000000001,098_y_f_n_a.png,O,m,593,6,1,1612.5,295595.6000000001,7065,NNB,C,5
6,test,4,0.0,1-Back,1,m,Wed Mar 19 2025 16:36:23 GMT-0500 (Central Daylight Time),298842.1000000001,057_y_m_n_a.png,O,m,617,7,1,1630.7999999998137,297211.3000000003,7065,NNB,C,6
7,test,4,1.0,1-Back,1,z,Wed Mar 19 2025 16:36:23 GMT-0500 (Central Daylight Time),300790.3999999999,057_y_m_n_a.png,O,z,920,8,1,1944.0,298846.3999999999,7065,NNB,C,7
8,test,4,0.0,1-Back,1,m,Wed Mar 19 2025 16:36:23 GMT-0500 (Central Daylight Time),302340.1000000001,098_y_f_n_a.png,O,m,522,9,1,1545.1000000000931,300795.0,7065,NNB,C,8
9,test,4,0.0,1-Back,1,m,Wed Mar 19 2025 16:36:23 GMT-0500 (Central Daylight Time),304022.8000000003,082_m_m_n_a.png,O,m,653,10,1,1678.0,302344.8000000003,7065,NNB,C,9
10,test,4,1.0,1-Back,1,z,Wed Mar 19 2025 16:36:23 GMT-0500 (Central Daylight Time),305922.3999999999,082_m_m_n_a.png,O,z,865,11,1,1895.1999999997206,304027.2000000002,7065,NNB,C,10
11,test,4,0.0,1-Back,1,m,Wed Mar 19 2025 16:36:23 GMT-0500 (Central Daylight Time),307521.7000000002,130_o_f_n_a.png,O,m,566,12,1,1595.3000000002794,305926.3999999999,7065,NNB,C,11
12,test,4,0.0,1-Back,1,m,Wed Mar 19 2025 16:36:23 GMT-0500 (Central Daylight Time),309121.1000000001,059_o_m_n_a.png,O,m,568,13,1,1594.5,307526.6000000001,7065,NNB,C,12
13,test,4,0.0,1-Back,1,m,Wed Mar 19 2025 16:36:23 GMT-0500 (Central Daylight Time),310937.3000000003,130_o_f_n_a.png,O,m,784,14,1,1811.5,309125.8000000003,7065,NNB,C,13
14,test,4,0.0,1-Back,1,m,Wed Mar 19 2025 16:36:23 GMT-0500 (Central Daylight Time),312536.8999999999,028_y_f_n_a.png,O,m,568,15,1,1595.5,310941.3999999999,7065,NNB,C,14
15,test,4,1.0,1-Back,1,z,Wed Mar 19 2025 16:36:23 GMT-0500 (Central Daylight Time),314686.1000000001,028_y_f_n_a.png,O,z,1120,16,1,2145.5,312540.6000000001,7065,NNB,C,15
16,test,4,0.0,1-Back,1,m,Wed Mar 19 2025 16:36:23 GMT-0500 (Central Daylight Time),316235.8000000003,006_m_f_n_a.png,O,m,523,17,1,1546.0,314689.8000000003,7065,NNB,C,16
17,test,4,1.0,1-Back,1,z,Wed Mar 19 2025 16:36:23 GMT-0500 (Central Daylight Time),319184.8000000003,006_m_f_n_a.png,O,z,1925,18,1,2945.7000000001863,316239.1000000001,7065,NNB,C,17
0,test,5,1.0,1-Back,,,Wed Mar 19 2025 16:36:23 GMT-0500 (Central Daylight Time),319184.8000000003,059_o_m_n_a.png,O,space,1336,1,1,2945.7000000001863,316239.1000000001,7065,NNB,C,0
1,test,5,1.0,1-Back,1,z,Wed Mar 19 2025 16:36:23 GMT-0500 (Central Daylight Time),324633.1000000001,059_o_m_n_a.png,O,z,1051,2,1,2078.600000000093,322554.5,7065,NNB,C,1
2,test,5,0.0,1-Back,1,m,Wed Mar 19 2025 16:36:23 GMT-0500 (Central Daylight Time),326482.5,098_y_f_n_a.png,O,m,832,3,1,1845.3999999999069,324637.1000000001,7065,NNB,C,2
3,test,5,0.0,1-Back,1,m,Wed Mar 19 2025 16:36:23 GMT-0500 (Central Daylight Time),328098.7000000002,057_y_m_n_a.png,O,m,591,4,1,1613.3000000002794,326485.3999999999,7065,NNB,C,3
4,test,5,0.0,1-Back,1,m,Wed Mar 19 2025 16:36:23 GMT-0500 (Central Daylight Time),329998.0,098_y_f_n_a.png,O,m,879,5,1,1895.6999999997206,328102.3000000003,7065,NNB,C,4
5,test,5,0.0,1-Back,1,m,Wed Mar 19 2025 16:36:23 GMT-0500 (Central Daylight Time),331681.0,092_m_m_n_a.png,O,m,651,6,1,1679.6000000000931,330001.3999999999,7065,NNB,C,5
6,test,5,1.0,1-Back,1,z,Wed Mar 19 2025 16:36:23 GMT-0500 (Central Daylight Time),333596.8999999999,092_m_m_n_a.png,O,z,896,7,1,1911.7999999998137,331685.1000000001,7065,NNB,C,6
7,test,5,0.0,1-Back,1,m,Wed Mar 19 2025 16:36:23 GMT-0500 (Central Daylight Time),335046.3000000003,028_y_f_n_a.png,O,m,420,8,1,1445.3000000002794,333601.0,7065,NNB,C,7
8,test,5,0.0,1-Back,1,m,Wed Mar 19 2025 16:36:23 GMT-0500 (Central Daylight Time),336762.7000000002,031_y_m_n_a.png,O,m,691,9,1,1711.8000000002794,335050.8999999999,7065,NNB,C,8
9,test,5,0.0,1-Back,1,m,Wed Mar 19 2025 16:36:23 GMT-0500 (Central Daylight Time),338562.2000000002,028_y_f_n_a.png,O,m,767,10,1,1795.2000000001863,336767.0,7065,NNB,C,9
10,test,5,0.0,1-Back,1,m,Wed Mar 19 2025 16:36:23 GMT-0500 (Central Daylight Time),340211.3999999999,130_o_f_n_a.png,O,m,631,11,1,1645.5999999996275,338565.8000000003,7065,NNB,C,10
11,test,5,1.0,1-Back,1,z,Wed Mar 19 2025 16:36:23 GMT-0500 (Central Daylight Time),342160.8000000003,130_o_f_n_a.png,O,z,925,12,1,1946.4000000003725,340214.3999999999,7065,NNB,C,11
12,test,5,0.0,1-Back,1,m,Wed Mar 19 2025 16:36:23 GMT-0500 (Central Daylight Time),343843.6000000001,146_o_m_n_a.png,O,m,656,13,1,1678.7999999998137,342164.8000000003,7065,NNB,C,12
13,test,5,0.0,1-Back,1,m,Wed Mar 19 2025 16:36:23 GMT-0500 (Central Daylight Time),345426.7000000002,093_m_f_n_a.png,O,m,558,14,1,1579.2000000001863,343847.5,7065,NNB,C,13
13,test,5,1.0,1-Back,0,z,Wed Mar 19 2025 16:36:23 GMT-0500 (Central Daylight Time),347420.2000000002,093_m_f_n_a.png,O,m,961,15,1,1989.7000000001863,345430.5,7065,NNB,C,14
14,test,5,0.0,1-Back,1,m,Wed Mar 19 2025 16:36:23 GMT-0500 (Central Daylight Time),349008.8999999999,146_o_m_n_a.png,O,m,576,16,1,1585.5,347423.3999999999,7065,NNB,C,15
15,test,5,0.0,1-Back,1,m,Wed Mar 19 2025 16:36:23 GMT-0500 (Central Daylight Time),350691.6000000001,006_m_f_n_a.png,O,m,656,17,1,1679.5,349012.1000000001,7065,NNB,C,16
16,test,5,0.0,1-Back,1,m,Wed Mar 19 2025 16:36:23 GMT-0500 (Central Daylight Time),352407.7000000002,082_m_m_n_a.png,O,m,686,18,1,1712.1000000000931,350695.6000000001,7065,NNB,C,17
0,prac,1,0.0,2-Back,,,Wed Mar 19 2025 16:36:23 GMT-0500 (Central Daylight Time),352407.7000000002,031_y_m_n_a.png,O,space,10439,1,1,1712.1000000000931,350695.6000000001,7065,NNB,C,0
0,prac,1,0.0,2-Back,,,Wed Mar 19 2025 16:36:23 GMT-0500 (Central Daylight Time),352407.7000000002,006_m_f_n_a.png,O,space,10439,2,1,1712.1000000000931,350695.6000000001,7065,NNB,C,0
1,prac,1,1.0,2-Back,1,m,Wed Mar 19 2025 16:36:23 GMT-0500 (Central Daylight Time),472620.1000000001,146_o_m_n_a.png,O,m,1254,3,1,2127.5,470492.6000000001,7065,NNB,C,1
2,prac,1,0.0,2-Back,1,m,Wed Mar 19 2025 16:36:23 GMT-0500 (Central Daylight Time),475169.2000000002,130_o_f_n_a.png,O,m,1662,4,1,2543.899999999907,472625.3000000003,7065,NNB,C,2
2,prac,1,0.0,2-Back,0,z,Wed Mar 19 2025 16:36:23 GMT-0500 (Central Daylight Time),477235.3999999999,146_o_m_n_a.png,O,m,1281,5,1,2059.1999999997206,475176.2000000002,7065,NNB,C,3
3,prac,1,1.0,2-Back,1,z,Wed Mar 19 2025 16:36:23 GMT-0500 (Central Daylight Time),479284.7000000002,130_o_f_n_a.png,O,z,1271,6,1,2042.1000000000931,477242.6000000001,7065,NNB,C,4
4,prac,1,0.0,2-Back,1,m,Wed Mar 19 2025 16:36:23 GMT-0500 (Central Daylight Time),481400.8000000003,082_m_m_n_a.png,O,m,1240,7,1,2109.3000000002794,479291.5,7065,NNB,C,5
5,prac,1,0.0,2-Back,1,m,Wed Mar 19 2025 16:36:23 GMT-0500 (Central Daylight Time),483250.2000000002,059_o_m_n_a.png,O,m,977,8,1,1842.6000000000931,481407.6000000001,7065,NNB,C,6
5,prac,1,0.0,2-Back,0,m,Wed Mar 19 2025 16:36:23 GMT-0500 (Central Daylight Time),485849.2000000002,028_y_f_n_a.png,O,z,1731,9,1,2592.600000000093,483256.6000000001,7065,NNB,C,7
5,prac,1,1.0,2-Back,0,z,Wed Mar 19 2025 16:36:23 GMT-0500 (Central Daylight Time),487748.6000000001,059_o_m_n_a.png,O,m,1115,10,1,1894.1000000000931,485854.5,7065,NNB,C,8
6,prac,1,0.0,2-Back,1,m,Wed Mar 19 2025 16:36:23 GMT-0500 (Central Daylight Time),489798.3000000003,098_y_f_n_a.png,O,m,1181,11,1,2042.6000000000931,487755.7000000002,7065,NNB,C,9
7,prac,1,0.0,2-Back,1,m,Wed Mar 19 2025 16:36:23 GMT-0500 (Central Daylight Time),491614.2000000002,082_m_m_n_a.png,O,m,1029,12,1,1809.2000000001863,489805.0,7065,NNB,C,10
0,test,1,0.0,2-Back,,,Wed Mar 19 2025 16:36:23 GMT-0500 (Central Daylight Time),491614.2000000002,057_y_m_n_a.png,O,space,8338,1,1,1809.2000000001863,489805.0,7065,NNB,C,0
0,test,1,0.0,2-Back,,,Wed Mar 19 2025 16:36:23 GMT-0500 (Central Daylight Time),491614.2000000002,057_y_m_n_a.png,O,space,8338,2,1,1809.2000000001863,489805.0,7065,NNB,C,0
1,test,1,0.0,2-Back,1,m,Wed Mar 19 2025 16:36:23 GMT-0500 (Central Daylight Time),517122.8999999999,130_o_f_n_a.png,O,m,1815,3,1,2845.1999999997206,514277.7000000002,7065,NNB,C,1
2,test,1,0.0,2-Back,1,m,Wed Mar 19 2025 16:36:23 GMT-0500 (Central Daylight Time),519238.8999999999,092_m_m_n_a.png,O,m,1086,4,1,2111.899999999907,517127.0,7065,NNB,C,2
3,test,1,1.0,2-Back,1,z,Wed Mar 19 2025 16:36:23 GMT-0500 (Central Daylight Time),521288.1000000001,130_o_f_n_a.png,O,z,1026,5,1,2045.3999999999069,519242.7000000002,7065,NNB,C,3
4,test,1,0.0,2-Back,1,m,Wed Mar 19 2025 16:36:23 GMT-0500 (Central Daylight Time),523387.3999999999,098_y_f_n_a.png,O,m,1073,6,1,2096.399999999907,521291.0,7065,NNB,C,4
5,test,1,0.0,2-Back,1,m,Wed Mar 19 2025 16:36:23 GMT-0500 (Central Daylight Time),525836.6000000001,092_m_m_n_a.png,O,m,1430,7,1,2445.399999999907,523391.2000000002,7065,NNB,C,5
6,test,1,1.0,2-Back,1,z,Wed Mar 19 2025 16:36:23 GMT-0500 (Central Daylight Time),527852.7000000002,098_y_f_n_a.png,O,z,988,8,1,2012.8999999999069,525839.8000000003,7065,NNB,C,6
7,test,1,0.0,2-Back,1,m,Wed Mar 19 2025 16:36:23 GMT-0500 (Central Daylight Time),530535.2000000002,031_y_m_n_a.png,O,m,1652,9,1,2678.0,527857.2000000002,7065,NNB,C,7
8,test,1,0.0,2-Back,1,m,Wed Mar 19 2025 16:36:23 GMT-0500 (Central Daylight Time),532618.0,030_o_f_n_a.png,O,m,1058,10,1,2078.6999999997206,530539.3000000003,7065,NNB,C,8
8,test,1,1.0,2-Back,0,z,Wed Mar 19 2025 16:36:23 GMT-0500 (Central Daylight Time),535283.5,031_y_m_n_a.png,O,m,1639,11,1,2662.0,532621.5,7065,NNB,C,9
8,test,1,0.0,2-Back,0,m,Wed Mar 19 2025 16:36:23 GMT-0500 (Central Daylight Time),537816.2000000002,006_m_f_n_a.png,O,z,1501,12,1,2529.100000000093,535287.1000000001,7065,NNB,C,10
9,test,1,0.0,2-Back,1,m,Wed Mar 19 2025 16:36:23 GMT-0500 (Central Daylight Time),540282.2000000002,006_m_f_n_a.png,O,m,1449,13,1,2462.8000000002794,537819.3999999999,7065,NNB,C,11
10,test,1,0.0,2-Back,1,m,Wed Mar 19 2025 16:36:23 GMT-0500 (Central Daylight Time),541931.7000000002,146_o_m_n_a.png,O,m,622,14,1,1646.3999999999069,540285.3000000003,7065,NNB,C,12
11,test,1,0.0,2-Back,1,m,Wed Mar 19 2025 16:36:23 GMT-0500 (Central Daylight Time),543730.8999999999,030_o_f_n_a.png,O,m,773,15,1,1796.0999999996275,541934.8000000003,7065,NNB,C,13
11,test,1,1.0,2-Back,0,z,Wed Mar 19 2025 16:36:23 GMT-0500 (Central Daylight Time),546763.6000000001,146_o_m_n_a.png,O,None,2015,16,1,3028.899999999907,543734.7000000002,7065,NNB,C,14
12,test,1,0.0,2-Back,1,m,Wed Mar 19 2025 16:36:23 GMT-0500 (Central Daylight Time),548929.5,093_m_f_n_a.png,O,m,1142,17,1,2162.2999999998137,546767.2000000002,7065,NNB,C,15
12,test,1,0.0,2-Back,0,m,Wed Mar 19 2025 16:36:23 GMT-0500 (Central Daylight Time),551078.8000000003,082_m_m_n_a.png,O,z,1120,18,1,2145.100000000093,548933.7000000002,7065,NNB,C,16
0,test,2,0.0,2-Back,,,Wed Mar 19 2025 16:36:23 GMT-0500 (Central Daylight Time),551078.8000000003,082_m_m_n_a.png,O,space,13707,1,1,2145.100000000093,548933.7000000002,7065,NNB,C,0
0,test,2,0.0,2-Back,,,Wed Mar 19 2025 16:36:23 GMT-0500 (Central Daylight Time),551078.8000000003,028_y_f_n_a.png,O,space,13707,2,1,2145.100000000093,548933.7000000002,7065,NNB,C,0
1,test,2,1.0,2-Back,1,z,Wed Mar 19 2025 16:36:23 GMT-0500 (Central Daylight Time),572588.8999999999,082_m_m_n_a.png,O,z,1621,3,1,2645.5999999996275,569943.3000000003,7065,NNB,C,1
2,test,2,0.0,2-Back,1,m,Wed Mar 19 2025 16:36:23 GMT-0500 (Central Daylight Time),575121.1000000001,093_m_f_n_a.png,O,m,1500,4,1,2528.5,572592.6000000001,7065,NNB,C,2
3,test,2,0.0,2-Back,1,m,Wed Mar 19 2025 16:36:23 GMT-0500 (Central Daylight Time),577837.2000000002,028_y_f_n_a.png,O,m,1696,5,1,2712.7000000001863,575124.5,7065,NNB,C,3
4,test,2,0.0,2-Back,1,m,Wed Mar 19 2025 16:36:23 GMT-0500 (Central Daylight Time),580169.6000000001,146_o_m_n_a.png,O,m,1308,6,1,2328.100000000093,577841.5,7065,NNB,C,4
4,test,2,0.0,2-Back,0,m,Wed Mar 19 2025 16:36:23 GMT-0500 (Central Daylight Time),582052.3000000003,098_y_f_n_a.png,O,z,856,7,1,1878.6000000000931,580173.7000000002,7065,NNB,C,5
4,test,2,1.0,2-Back,0,z,Wed Mar 19 2025 16:36:23 GMT-0500 (Central Daylight Time),583835.2000000002,146_o_m_n_a.png,O,m,757,8,1,1778.5,582056.7000000002,7065,NNB,C,6
5,test,2,0.0,2-Back,1,m,Wed Mar 19 2025 16:36:23 GMT-0500 (Central Daylight Time),585584.6000000001,031_y_m_n_a.png,O,m,725,9,1,1745.6000000000931,583839.0,7065,NNB,C,7
5,test,2,0.0,2-Back,0,m,Wed Mar 19 2025 16:36:23 GMT-0500 (Central Daylight Time),588383.7000000002,031_y_m_n_a.png,O,z,1768,10,1,2795.7000000001863,585588.0,7065,NNB,C,8
6,test,2,0.0,2-Back,1,m,Wed Mar 19 2025 16:36:23 GMT-0500 (Central Daylight Time),590199.8999999999,006_m_f_n_a.png,O,m,793,11,1,1812.5999999996275,588387.3000000003,7065,NNB,C,9
7,test,2,0.0,2-Back,1,m,Wed Mar 19 2025 16:36:23 GMT-0500 (Central Daylight Time),591715.7000000002,028_y_f_n_a.png,O,m,498,12,1,1512.1000000000931,590203.6000000001,7065,NNB,C,10
7,test,2,1.0,2-Back,0,z,Wed Mar 19 2025 16:36:23 GMT-0500 (Central Daylight Time),593332.3000000003,006_m_f_n_a.png,O,m,597,13,1,1612.6000000000931,591719.7000000002,7065,NNB,C,11
8,test,2,0.0,2-Back,1,m,Wed Mar 19 2025 16:36:23 GMT-0500 (Central Daylight Time),595315.1000000001,059_o_m_n_a.png,O,m,957,14,1,1979.6000000000931,593335.5,7065,NNB,C,12
8,test,2,0.0,2-Back,0,m,Wed Mar 19 2025 16:36:23 GMT-0500 (Central Daylight Time),597114.2000000002,059_o_m_n_a.png,O,z,775,15,1,1795.8999999999069,595318.3000000003,7065,NNB,C,13
9,test,2,0.0,2-Back,1,m,Wed Mar 19 2025 16:36:23 GMT-0500 (Central Daylight Time),598947.0,030_o_f_n_a.png,O,m,815,16,1,1828.8999999999069,597118.1000000001,7065,NNB,C,14
10,test,2,0.0,2-Back,1,m,Wed Mar 19 2025 16:36:23 GMT-0500 (Central Daylight Time),600996.6000000001,092_m_m_n_a.png,O,m,1022,17,1,2046.2000000001863,598950.3999999999,7065,NNB,C,15
10,test,2,1.0,2-Back,0,z,Wed Mar 19 2025 16:36:23 GMT-0500 (Central Daylight Time),602762.6000000001,030_o_f_n_a.png,O,m,741,18,1,1762.2999999998137,601000.3000000003,7065,NNB,C,16
0,test,3,1.0,2-Back,,,Wed Mar 19 2025 16:36:23 GMT-0500 (Central Daylight Time),602762.6000000001,057_y_m_n_a.png,O,space,4975,1,1,1762.2999999998137,601000.3000000003,7065,NNB,C,0
0,test,3,1.0,2-Back,,,Wed Mar 19 2025 16:36:23 GMT-0500 (Central Daylight Time),602762.6000000001,057_y_m_n_a.png,O,space,4975,2,1,1762.2999999998137,601000.3000000003,7065,NNB,C,0
1,test,3,0.0,2-Back,1,m,Wed Mar 19 2025 16:36:23 GMT-0500 (Central Daylight Time),615042.1000000001,030_o_f_n_a.png,O,m,1124,3,1,2146.100000000093,612896.0,7065,NNB,C,1
2,test,3,0.0,2-Back,1,m,Wed Mar 19 2025 16:36:23 GMT-0500 (Central Daylight Time),617208.2000000002,082_m_m_n_a.png,O,m,1143,4,1,2162.600000000093,615045.6000000001,7065,NNB,C,2
3,test,3,1.0,2-Back,1,z,Wed Mar 19 2025 16:36:23 GMT-0500 (Central Daylight Time),619207.6000000001,030_o_f_n_a.png,O,z,977,5,1,1995.1000000000931,617212.5,7065,NNB,C,3
4,test,3,0.0,2-Back,1,m,Wed Mar 19 2025 16:36:23 GMT-0500 (Central Daylight Time),621206.7000000002,031_y_m_n_a.png,O,m,978,6,1,1994.8000000002794,619211.8999999999,7065,NNB,C,4
4,test,3,0.0,2-Back,0,m,Wed Mar 19 2025 16:36:23 GMT-0500 (Central Daylight Time),623922.8000000003,082_m_m_n_a.png,O,z,1689,7,1,2712.4000000003725,621210.3999999999,7065,NNB,C,5
5,test,3,1.0,2-Back,1,z,Wed Mar 19 2025 16:36:23 GMT-0500 (Central Daylight Time),626705.1000000001,031_y_m_n_a.png,O,z,1751,8,1,2778.7999999998137,623926.3000000003,7065,NNB,C,6
6,test,3,0.0,2-Back,1,m,Wed Mar 19 2025 16:36:23 GMT-0500 (Central Daylight Time),628404.6000000001,028_y_f_n_a.png,O,m,672,9,1,1695.0,626709.6000000001,7065,NNB,C,7
7,test,3,0.0,2-Back,1,m,Wed Mar 19 2025 16:36:23 GMT-0500 (Central Daylight Time),630204.0,092_m_m_n_a.png,O,m,773,10,1,1796.1999999997206,628407.8000000003,7065,NNB,C,8
7,test,3,1.0,2-Back,0,z,Wed Mar 19 2025 16:36:23 GMT-0500 (Central Daylight Time),631920.1000000001,028_y_f_n_a.png,O,m,685,11,1,1713.0,630207.1000000001,7065,NNB,C,9
7,test,3,1.0,2-Back,0,z,Wed Mar 19 2025 16:36:23 GMT-0500 (Central Daylight Time),633836.3000000003,092_m_m_n_a.png,O,m,897,12,1,1912.5,631923.8000000003,7065,NNB,C,10
8,test,3,0.0,2-Back,1,m,Wed Mar 19 2025 16:36:23 GMT-0500 (Central Daylight Time),635702.1000000001,030_o_f_n_a.png,O,m,845,13,1,1861.8999999999069,633840.2000000002,7065,NNB,C,11
9,test,3,0.0,2-Back,1,m,Wed Mar 19 2025 16:36:23 GMT-0500 (Central Daylight Time),637651.6000000001,093_m_f_n_a.png,O,m,923,14,1,1946.0,635705.6000000001,7065,NNB,C,12
9,test,3,0.0,2-Back,0,m,Wed Mar 19 2025 16:36:23 GMT-0500 (Central Daylight Time),639501.3000000003,146_o_m_n_a.png,O,z,830,15,1,1845.7000000001863,637655.6000000001,7065,NNB,C,13
9,test,3,1.0,2-Back,0,z,Wed Mar 19 2025 16:36:23 GMT-0500 (Central Daylight Time),641417.3000000003,093_m_f_n_a.png,O,m,892,16,1,1912.1000000000931,639505.2000000002,7065,NNB,C,14
10,test,3,0.0,2-Back,1,m,Wed Mar 19 2025 16:36:23 GMT-0500 (Central Daylight Time),643050.1000000001,130_o_f_n_a.png,O,m,616,17,1,1629.0,641421.1000000001,7065,NNB,C,15
11,test,3,0.0,2-Back,1,m,Wed Mar 19 2025 16:36:23 GMT-0500 (Central Daylight Time),644566.2000000002,130_o_f_n_a.png,O,m,495,18,1,1512.3999999999069,643053.8000000003,7065,NNB,C,16
0,test,4,0.0,2-Back,,,Wed Mar 19 2025 16:36:23 GMT-0500 (Central Daylight Time),644566.2000000002,059_o_m_n_a.png,O,space,3539,1,1,1512.3999999999069,643053.8000000003,7065,NNB,C,0
0,test,4,0.0,2-Back,,,Wed Mar 19 2025 16:36:23 GMT-0500 (Central Daylight Time),644566.2000000002,098_y_f_n_a.png,O,space,3539,2,1,1512.3999999999069,643053.8000000003,7065,NNB,C,0
1,test,4,1.0,2-Back,1,z,Wed Mar 19 2025 16:36:23 GMT-0500 (Central Daylight Time),656312.7000000002,059_o_m_n_a.png,O,z,1834,3,1,2851.600000000093,653461.1000000001,7065,NNB,C,1
2,test,4,1.0,2-Back,1,z,Wed Mar 19 2025 16:36:23 GMT-0500 (Central Daylight Time),658778.5,098_y_f_n_a.png,O,z,1433,4,1,2461.600000000093,656316.8999999999,7065,NNB,C,2
2,test,4,0.0,2-Back,0,m,Wed Mar 19 2025 16:36:23 GMT-0500 (Central Daylight Time),661127.7000000002,030_o_f_n_a.png,O,z,1327,5,1,2345.5,658782.2000000002,7065,NNB,C,3
2,test,4,0.0,2-Back,0,m,Wed Mar 19 2025 16:36:23 GMT-0500 (Central Daylight Time),663943.5,030_o_f_n_a.png,O,z,1786,6,1,2812.399999999907,661131.1000000001,7065,NNB,C,4
3,test,4,0.0,2-Back,1,m,Wed Mar 19 2025 16:36:23 GMT-0500 (Central Daylight Time),666476.0,006_m_f_n_a.png,O,m,1506,7,1,2528.5,663947.5,7065,NNB,C,5
4,test,4,0.0,2-Back,1,m,Wed Mar 19 2025 16:36:23 GMT-0500 (Central Daylight Time),668608.8000000003,031_y_m_n_a.png,O,m,1108,8,1,2128.7000000001863,666480.1000000001,7065,NNB,C,6
4,test,4,1.0,2-Back,0,z,Wed Mar 19 2025 16:36:23 GMT-0500 (Central Daylight Time),670424.7000000002,006_m_f_n_a.png,O,m,784,9,1,1812.1000000000931,668612.6000000001,7065,NNB,C,7
4,test,4,0.0,2-Back,0,m,Wed Mar 19 2025 16:36:23 GMT-0500 (Central Daylight Time),672340.8000000003,092_m_m_n_a.png,O,z,888,10,1,1912.2000000001863,670428.6000000001,7065,NNB,C,8
5,test,4,0.0,2-Back,1,m,Wed Mar 19 2025 16:36:23 GMT-0500 (Central Daylight Time),674556.7000000002,031_y_m_n_a.png,O,m,1197,11,1,2211.8000000002794,672344.8999999999,7065,NNB,C,9
6,test,4,0.0,2-Back,1,m,Wed Mar 19 2025 16:36:23 GMT-0500 (Central Daylight Time),676672.6000000001,130_o_f_n_a.png,O,m,1092,12,1,2112.100000000093,674560.5,7065,NNB,C,10
7,test,4,0.0,2-Back,1,m,Wed Mar 19 2025 16:36:23 GMT-0500 (Central Daylight Time),678338.8999999999,057_y_m_n_a.png,O,m,641,13,1,1662.6999999997206,676676.2000000002,7065,NNB,C,11
7,test,4,1.0,2-Back,0,z,Wed Mar 19 2025 16:36:23 GMT-0500 (Central Daylight Time),680171.7000000002,130_o_f_n_a.png,O,m,806,14,1,1829.3000000002794,678342.3999999999,7065,NNB,C,12
8,test,4,1.0,2-Back,1,z,Wed Mar 19 2025 16:36:23 GMT-0500 (Central Daylight Time),681987.7000000002,057_y_m_n_a.png,O,z,789,15,1,1812.5,680175.2000000002,7065,NNB,C,13
9,test,4,0.0,2-Back,1,m,Wed Mar 19 2025 16:36:23 GMT-0500 (Central Daylight Time),683620.3999999999,082_m_m_n_a.png,O,m,605,16,1,1628.6999999997206,681991.7000000002,7065,NNB,C,14
10,test,4,0.0,2-Back,1,m,Wed Mar 19 2025 16:36:23 GMT-0500 (Central Daylight Time),685270.0,093_m_f_n_a.png,O,m,629,17,1,1645.6999999997206,683624.3000000003,7065,NNB,C,15
10,test,4,1.0,2-Back,0,z,Wed Mar 19 2025 16:36:23 GMT-0500 (Central Daylight Time),686886.1000000001,082_m_m_n_a.png,O,m,595,18,1,1612.2000000001863,685273.8999999999,7065,NNB,C,16
0,test,5,1.0,2-Back,,,Wed Mar 19 2025 16:36:23 GMT-0500 (Central Daylight Time),686886.1000000001,057_y_m_n_a.png,O,space,1675,1,1,1612.2000000001863,685273.8999999999,7065,NNB,C,0
0,test,5,1.0,2-Back,,,Wed Mar 19 2025 16:36:23 GMT-0500 (Central Daylight Time),686886.1000000001,093_m_f_n_a.png,O,space,1675,2,1,1612.2000000001863,685273.8999999999,7065,NNB,C,0
1,test,5,1.0,2-Back,1,z,Wed Mar 19 2025 16:36:23 GMT-0500 (Central Daylight Time),695833.3999999999,057_y_m_n_a.png,O,z,1184,3,1,2212.0999999996275,693621.3000000003,7065,NNB,C,1
2,test,5,1.0,2-Back,1,z,Wed Mar 19 2025 16:36:23 GMT-0500 (Central Daylight Time),698265.8999999999,093_m_f_n_a.png,O,z,1408,4,1,2429.0,695836.8999999999,7065,NNB,C,2
3,test,5,0.0,2-Back,1,m,Wed Mar 19 2025 16:36:23 GMT-0500 (Central Daylight Time),700568.3999999999,130_o_f_n_a.png,O,m,1279,5,1,2299.0,698269.3999999999,7065,NNB,C,3
4,test,5,0.0,2-Back,1,m,Wed Mar 19 2025 16:36:23 GMT-0500 (Central Daylight Time),703014.3999999999,057_y_m_n_a.png,O,m,1428,6,1,2442.0,700572.3999999999,7065,NNB,C,4
5,test,5,0.0,2-Back,1,m,Wed Mar 19 2025 16:36:23 GMT-0500 (Central Daylight Time),705613.7000000002,028_y_f_n_a.png,O,m,1571,7,1,2596.100000000093,703017.6000000001,7065,NNB,C,5
6,test,5,0.0,2-Back,1,m,Wed Mar 19 2025 16:36:23 GMT-0500 (Central Daylight Time),707796.2000000002,130_o_f_n_a.png,O,m,1163,8,1,2179.0,705617.2000000002,7065,NNB,C,6
7,test,5,1.0,2-Back,1,z,Wed Mar 19 2025 16:36:23 GMT-0500 (Central Daylight Time),709845.8999999999,028_y_f_n_a.png,O,z,1021,9,1,2045.3999999999069,707800.5,7065,NNB,C,7
8,test,5,0.0,2-Back,1,m,Wed Mar 19 2025 16:36:23 GMT-0500 (Central Daylight Time),711794.8000000003,146_o_m_n_a.png,O,m,931,10,1,1944.5,709850.3000000003,7065,NNB,C,8
9,test,5,0.0,2-Back,1,m,Wed Mar 19 2025 16:36:23 GMT-0500 (Central Daylight Time),713844.3000000003,006_m_f_n_a.png,O,m,1022,11,1,2045.0,711799.3000000003,7065,NNB,C,9
10,test,5,0.0,2-Back,1,m,Wed Mar 19 2025 16:36:23 GMT-0500 (Central Daylight Time),715927.1000000001,092_m_m_n_a.png,O,m,1053,12,1,2079.899999999907,713847.2000000002,7065,NNB,C,10
11,test,5,0.0,2-Back,1,m,Wed Mar 19 2025 16:36:23 GMT-0500 (Central Daylight Time),718076.5,146_o_m_n_a.png,O,m,1122,13,1,2145.1999999997206,715931.3000000003,7065,NNB,C,11
11,test,5,1.0,2-Back,0,z,Wed Mar 19 2025 16:36:23 GMT-0500 (Central Daylight Time),720192.3000000003,092_m_m_n_a.png,O,m,1093,14,1,2111.4000000003725,718080.8999999999,7065,NNB,C,12
12,test,5,0.0,2-Back,1,m,Wed Mar 19 2025 16:36:23 GMT-0500 (Central Daylight Time),721958.6000000001,098_y_f_n_a.png,O,m,737,15,1,1762.3999999999069,720196.2000000002,7065,NNB,C,13
13,test,5,0.0,2-Back,1,m,Wed Mar 19 2025 16:36:23 GMT-0500 (Central Daylight Time),724097.3000000003,059_o_m_n_a.png,O,m,1104,16,1,2134.9000000003725,721962.3999999999,7065,NNB,C,14
14,test,5,0.0,2-Back,1,m,Wed Mar 19 2025 16:36:23 GMT-0500 (Central Daylight Time),726540.6000000001,006_m_f_n_a.png,O,m,1422,17,1,2440.0,724100.6000000001,7065,NNB,C,15
14,test,5,1.0,2-Back,0,z,Wed Mar 19 2025 16:36:23 GMT-0500 (Central Daylight Time),728506.8000000003,059_o_m_n_a.png,O,m,933,18,1,1961.8000000002794,726545.0,7065,NNB,C,16
