acc_sum,block,block_c,block_cond,con_img,correct,correct_response,datetime,endtime,face,jitter,line,project,response,response_time,row_sel,session_number,start_end,starttime,subject_id,task,task_vers,trial
0,prac,1,A,haborder.png,0,m,Wed Apr 09 2025 11:57:16 GMT-0500 (Central Daylight Time),62928.90000000037,CFD-BM-020-024-HC.jpg,1500,solid,I,None,1515,3,1,3799.2999999998137,59129.60000000056,8023,ATS,B,1
1,prac,1,A,haborder.png,1,m,Wed Apr 09 2025 11:57:16 GMT-0500 (Central Daylight Time),66394.5,CFD-WM-012-007-HC.jpg,1700,solid,I,m,980,9,1,7264.899999999441,59129.60000000056,8023,ATS,B,2
2,prac,1,A,haborder.png,1,z,Wed Apr 09 2025 11:57:16 GMT-0500 (Central Daylight Time),69693.29999999981,CFD-WF-026-008-A.jpg,1600,solid,I,z,902,10,1,10563.699999999255,59129.60000000056,8023,ATS,B,3
3,prac,1,A,haborder.png,1,m,Wed Apr 09 2025 11:57:16 GMT-0500 (Central Daylight Time),72825.79999999981,CFD-WF-011-006-HC.jpg,1500,solid,I,m,839,11,1,13696.199999999255,59129.60000000056,8023,ATS,B,4
4,prac,1,A,haborder.png,1,m,Wed Apr 09 2025 11:57:16 GMT-0500 (Central Daylight Time),75974.70000000019,CFD-WM-011-006-HC.jpg,1400,solid,I,m,950,7,1,16845.099999999627,59129.60000000056,8023,ATS,B,5
5,prac,1,A,haborder.png,1,m,Wed Apr 09 2025 11:57:16 GMT-0500 (Central Daylight Time),79506.79999999981,CFD-BF-035-007-HC.jpg,2000,solid,I,m,747,5,1,20377.199999999255,59129.60000000056,8023,ATS,B,6
6,prac,1,A,haborder.png,1,z,Wed Apr 09 2025 11:57:16 GMT-0500 (Central Daylight Time),82106.0,CFD-BF-050-012-A.jpg,1200,solid,I,z,605,6,1,22976.39999999944,59129.60000000056,8023,ATS,B,7
7,prac,1,A,haborder.png,1,m,Wed Apr 09 2025 11:57:16 GMT-0500 (Central Daylight Time),85371.90000000037,CFD-BM-015-017-HC.jpg,1700,solid,I,m,770,1,1,26242.299999999814,59129.60000000056,8023,ATS,B,8
8,prac,1,A,haborder.png,1,z,Wed Apr 09 2025 11:57:16 GMT-0500 (Central Daylight Time),88071.0,CFD-WF-013-015-A.jpg,1000,solid,I,z,899,12,1,28941.39999999944,59129.60000000056,8023,ATS,B,9
9,prac,1,A,haborder.png,1,z,Wed Apr 09 2025 11:57:16 GMT-0500 (Central Daylight Time),91119.90000000037,CFD-BM-037-041-A.jpg,1600,solid,I,z,659,2,1,31990.299999999814,59129.60000000056,8023,ATS,B,10
10,prac,1,A,haborder.png,1,z,Wed Apr 09 2025 11:57:16 GMT-0500 (Central Daylight Time),93619.29999999981,CFD-BF-051-043-A.jpg,1000,solid,I,z,704,4,1,34489.699999999255,59129.60000000056,8023,ATS,B,11
11,prac,1,A,haborder.png,1,z,Wed Apr 09 2025 11:57:16 GMT-0500 (Central Daylight Time),97068.29999999981,CFD-WM-009-009-A.jpg,1900,solid,I,z,753,8,1,37938.699999999255,59129.60000000056,8023,ATS,B,12
1,prac,1,B,mfborder.png,1,m,Wed Apr 09 2025 11:57:16 GMT-0500 (Central Daylight Time),132208.0,CFD-BM-041-048-A.jpg,1600,dash,I,m,1008,2,1,3400.0,128808.0,8023,ATS,B,1
2,prac,1,B,mfborder.png,1,z,Wed Apr 09 2025 11:57:16 GMT-0500 (Central Daylight Time),134686.2000000002,CFD-WF-011-006-HC.jpg,1000,dash,I,z,617,12,1,5878.200000000186,128808.0,8023,ATS,B,2
2,prac,1,B,mfborder.png,0,m,Wed Apr 09 2025 11:57:16 GMT-0500 (Central Daylight Time),138588.40000000037,CFD-WM-012-007-HC.jpg,1600,dash,I,None,1516,10,1,9780.400000000373,128808.0,8023,ATS,B,3
3,prac,1,B,mfborder.png,1,z,Wed Apr 09 2025 11:57:16 GMT-0500 (Central Daylight Time),142487.2999999998,CFD-WF-027-007-HC.jpg,1900,dash,I,z,1200,8,1,13679.299999999814,128808.0,8023,ATS,B,4
3,prac,1,B,mfborder.png,0,z,Wed Apr 09 2025 11:57:16 GMT-0500 (Central Daylight Time),145819.7999999998,CFD-BF-035-007-HC.jpg,1400,dash,I,m,1146,7,1,17011.799999999814,128808.0,8023,ATS,B,5
3,prac,1,B,mfborder.png,0,m,Wed Apr 09 2025 11:57:16 GMT-0500 (Central Daylight Time),150118.2000000002,CFD-BM-037-041-A.jpg,2000,dash,I,None,1516,5,1,21310.200000000186,128808.0,8023,ATS,B,6
4,prac,1,B,mfborder.png,1,z,Wed Apr 09 2025 11:57:16 GMT-0500 (Central Daylight Time),152984.0,CFD-BF-051-043-A.jpg,1000,dash,I,z,1082,4,1,24176.0,128808.0,8023,ATS,B,7
5,prac,1,B,mfborder.png,1,m,Wed Apr 09 2025 11:57:16 GMT-0500 (Central Daylight Time),156283.10000000056,CFD-WM-009-009-A.jpg,1700,dash,I,m,805,9,1,27475.10000000056,128808.0,8023,ATS,B,8
6,prac,1,B,mfborder.png,1,z,Wed Apr 09 2025 11:57:16 GMT-0500 (Central Daylight Time),159215.5,CFD-BF-027-013-HC.jpg,1500,dash,I,z,641,3,1,30407.5,128808.0,8023,ATS,B,9
7,prac,1,B,mfborder.png,1,z,Wed Apr 09 2025 11:57:16 GMT-0500 (Central Daylight Time),162231.0,CFD-WF-026-008-A.jpg,1500,dash,I,z,726,11,1,33423.0,128808.0,8023,ATS,B,10
8,prac,1,B,mfborder.png,1,m,Wed Apr 09 2025 11:57:16 GMT-0500 (Central Daylight Time),165563.60000000056,CFD-BM-020-024-HC.jpg,1700,dash,I,m,847,1,1,36755.60000000056,128808.0,8023,ATS,B,11
9,prac,1,B,mfborder.png,1,m,Wed Apr 09 2025 11:57:16 GMT-0500 (Central Daylight Time),168746.7999999998,CFD-WM-037-060-A.jpg,1200,dash,I,m,1214,6,1,39938.799999999814,128808.0,8023,ATS,B,12
1,test,1,A,haborder.png,1,m,Wed Apr 09 2025 11:57:16 GMT-0500 (Central Daylight Time),188139.60000000056,CFD-BM-020-024-HC.jpg,1500,solid,I,m,823,3,1,2349.2000000001863,185790.40000000037,8023,ATS,B,1
2,test,1,A,haborder.png,1,z,Wed Apr 09 2025 11:57:16 GMT-0500 (Central Daylight Time),190605.60000000056,CFD-WF-026-008-A.jpg,1600,solid,I,z,841,10,1,4815.200000000186,185790.40000000037,8023,ATS,B,2
3,test,1,A,haborder.png,1,z,Wed Apr 09 2025 11:57:16 GMT-0500 (Central Daylight Time),192588.2999999998,CFD-BF-050-012-A.jpg,1200,solid,I,z,763,6,1,6797.899999999441,185790.40000000037,8023,ATS,B,3
4,test,1,A,haborder.png,1,z,Wed Apr 09 2025 11:57:16 GMT-0500 (Central Daylight Time),194404.2999999998,CFD-BF-051-043-A.jpg,1000,solid,I,z,796,4,1,8613.899999999441,185790.40000000037,8023,ATS,B,4
5,test,1,A,haborder.png,1,z,Wed Apr 09 2025 11:57:16 GMT-0500 (Central Daylight Time),196836.7999999998,CFD-WF-013-015-A.jpg,1000,solid,I,z,1404,12,1,11046.399999999441,185790.40000000037,8023,ATS,B,5
6,test,1,A,haborder.png,1,m,Wed Apr 09 2025 11:57:16 GMT-0500 (Central Daylight Time),198869.40000000037,CFD-WM-011-006-HC.jpg,1400,solid,I,m,614,7,1,13079.0,185790.40000000037,8023,ATS,B,6
7,test,1,A,haborder.png,1,m,Wed Apr 09 2025 11:57:16 GMT-0500 (Central Daylight Time),201135.40000000037,CFD-WF-011-006-HC.jpg,1500,solid,I,m,742,11,1,15345.0,185790.40000000037,8023,ATS,B,7
8,test,1,A,haborder.png,1,z,Wed Apr 09 2025 11:57:16 GMT-0500 (Central Daylight Time),203351.60000000056,CFD-WF-026-008-A.jpg,1600,solid,I,z,594,10,1,17561.200000000186,185790.40000000037,8023,ATS,B,8
9,test,1,A,haborder.png,1,z,Wed Apr 09 2025 11:57:16 GMT-0500 (Central Daylight Time),205717.40000000037,CFD-BM-037-041-A.jpg,1600,solid,I,z,745,2,1,19927.0,185790.40000000037,8023,ATS,B,9
10,test,1,A,haborder.png,1,m,Wed Apr 09 2025 11:57:16 GMT-0500 (Central Daylight Time),208116.60000000056,CFD-BM-020-024-HC.jpg,1500,solid,I,m,872,3,1,22326.200000000186,185790.40000000037,8023,ATS,B,10
11,test,1,A,haborder.png,1,z,Wed Apr 09 2025 11:57:16 GMT-0500 (Central Daylight Time),211099.2999999998,CFD-WM-009-009-A.jpg,1900,solid,I,z,1057,8,1,25308.89999999944,185790.40000000037,8023,ATS,B,11
12,test,1,A,haborder.png,1,m,Wed Apr 09 2025 11:57:16 GMT-0500 (Central Daylight Time),214048.2999999998,CFD-BF-035-007-HC.jpg,2000,solid,I,m,926,5,1,28257.89999999944,185790.40000000037,8023,ATS,B,12
13,test,1,A,haborder.png,1,m,Wed Apr 09 2025 11:57:16 GMT-0500 (Central Daylight Time),216430.60000000056,CFD-BM-015-017-HC.jpg,1700,solid,I,m,660,1,1,30640.200000000186,185790.40000000037,8023,ATS,B,13
14,test,1,A,haborder.png,1,z,Wed Apr 09 2025 11:57:16 GMT-0500 (Central Daylight Time),218097.0,CFD-WF-013-015-A.jpg,1000,solid,I,z,641,12,1,32306.599999999627,185790.40000000037,8023,ATS,B,14
15,test,1,A,haborder.png,1,m,Wed Apr 09 2025 11:57:16 GMT-0500 (Central Daylight Time),220329.7000000002,CFD-WM-011-006-HC.jpg,1400,solid,I,m,807,7,1,34539.299999999814,185790.40000000037,8023,ATS,B,15
16,test,1,A,haborder.png,1,z,Wed Apr 09 2025 11:57:16 GMT-0500 (Central Daylight Time),222545.5,CFD-BF-051-043-A.jpg,1000,solid,I,z,1188,4,1,36755.09999999963,185790.40000000037,8023,ATS,B,16
17,test,1,A,haborder.png,1,m,Wed Apr 09 2025 11:57:16 GMT-0500 (Central Daylight Time),225178.0,CFD-WM-012-007-HC.jpg,1700,solid,I,m,906,9,1,39387.59999999963,185790.40000000037,8023,ATS,B,17
18,test,1,A,haborder.png,1,m,Wed Apr 09 2025 11:57:16 GMT-0500 (Central Daylight Time),227511.7999999998,CFD-BM-015-017-HC.jpg,1700,solid,I,m,610,1,1,41721.39999999944,185790.40000000037,8023,ATS,B,18
19,test,1,A,haborder.png,1,m,Wed Apr 09 2025 11:57:16 GMT-0500 (Central Daylight Time),229643.5,CFD-WF-011-006-HC.jpg,1500,solid,I,m,607,11,1,43853.09999999963,185790.40000000037,8023,ATS,B,19
20,test,1,A,haborder.png,1,m,Wed Apr 09 2025 11:57:16 GMT-0500 (Central Daylight Time),232326.10000000056,CFD-BF-035-007-HC.jpg,2000,solid,I,m,653,5,1,46535.700000000186,185790.40000000037,8023,ATS,B,20
21,test,1,A,haborder.png,1,z,Wed Apr 09 2025 11:57:16 GMT-0500 (Central Daylight Time),235291.5,CFD-WM-009-009-A.jpg,1900,solid,I,z,1047,8,1,49501.09999999963,185790.40000000037,8023,ATS,B,21
22,test,1,A,haborder.png,1,z,Wed Apr 09 2025 11:57:16 GMT-0500 (Central Daylight Time),238107.40000000037,CFD-BM-037-041-A.jpg,1600,solid,I,z,1198,2,1,52317.0,185790.40000000037,8023,ATS,B,22
23,test,1,A,haborder.png,1,m,Wed Apr 09 2025 11:57:16 GMT-0500 (Central Daylight Time),240490.0,CFD-WM-012-007-HC.jpg,1700,solid,I,m,650,9,1,54699.59999999963,185790.40000000037,8023,ATS,B,23
24,test,1,A,haborder.png,1,z,Wed Apr 09 2025 11:57:16 GMT-0500 (Central Daylight Time),242339.5,CFD-BF-050-012-A.jpg,1200,solid,I,z,631,6,1,56549.09999999963,185790.40000000037,8023,ATS,B,24
1,test,1,B,mfborder.png,1,m,Wed Apr 09 2025 11:57:16 GMT-0500 (Central Daylight Time),258584.0,CFD-WM-009-009-A.jpg,1700,dash,I,m,973,9,1,2698.7000000001863,255885.2999999998,8023,ATS,B,1
2,test,1,B,mfborder.png,1,z,Wed Apr 09 2025 11:57:16 GMT-0500 (Central Daylight Time),261050.10000000056,CFD-WF-026-008-A.jpg,1500,dash,I,z,949,11,1,5164.800000000745,255885.2999999998,8023,ATS,B,2
3,test,1,B,mfborder.png,1,z,Wed Apr 09 2025 11:57:16 GMT-0500 (Central Daylight Time),264415.7000000002,CFD-WF-027-007-HC.jpg,1900,dash,I,z,1435,8,1,8530.400000000373,255885.2999999998,8023,ATS,B,3
4,test,1,B,mfborder.png,1,m,Wed Apr 09 2025 11:57:16 GMT-0500 (Central Daylight Time),266499.5,CFD-WM-037-060-A.jpg,1200,dash,I,m,864,6,1,10614.200000000186,255885.2999999998,8023,ATS,B,4
5,test,1,B,mfborder.png,1,m,Wed Apr 09 2025 11:57:16 GMT-0500 (Central Daylight Time),269597.5,CFD-BM-037-041-A.jpg,2000,dash,I,m,1069,5,1,13712.200000000186,255885.2999999998,8023,ATS,B,5
6,test,1,B,mfborder.png,1,m,Wed Apr 09 2025 11:57:16 GMT-0500 (Central Daylight Time),272030.10000000056,CFD-BM-041-048-A.jpg,1600,dash,I,m,804,2,1,16144.800000000745,255885.2999999998,8023,ATS,B,6
7,test,1,B,mfborder.png,1,z,Wed Apr 09 2025 11:57:16 GMT-0500 (Central Daylight Time),274129.5,CFD-BF-035-007-HC.jpg,1400,dash,I,z,674,7,1,18244.200000000186,255885.2999999998,8023,ATS,B,7
8,test,1,B,mfborder.png,1,z,Wed Apr 09 2025 11:57:16 GMT-0500 (Central Daylight Time),276262.0,CFD-WF-026-008-A.jpg,1500,dash,I,z,612,11,1,20376.700000000186,255885.2999999998,8023,ATS,B,8
9,test,1,B,mfborder.png,1,z,Wed Apr 09 2025 11:57:16 GMT-0500 (Central Daylight Time),278394.60000000056,CFD-BF-027-013-HC.jpg,1500,dash,I,z,607,3,1,22509.300000000745,255885.2999999998,8023,ATS,B,9
10,test,1,B,mfborder.png,1,z,Wed Apr 09 2025 11:57:16 GMT-0500 (Central Daylight Time),280877.2999999998,CFD-WF-027-007-HC.jpg,1900,dash,I,z,554,8,1,24992.0,255885.2999999998,8023,ATS,B,10
11,test,1,B,mfborder.png,1,z,Wed Apr 09 2025 11:57:16 GMT-0500 (Central Daylight Time),283110.0,CFD-BF-035-007-HC.jpg,1400,dash,I,z,804,7,1,27224.700000000186,255885.2999999998,8023,ATS,B,11
12,test,1,B,mfborder.png,1,m,Wed Apr 09 2025 11:57:16 GMT-0500 (Central Daylight Time),285226.0,CFD-WM-037-060-A.jpg,1200,dash,I,m,880,6,1,29340.700000000186,255885.2999999998,8023,ATS,B,12
13,test,1,B,mfborder.png,1,z,Wed Apr 09 2025 11:57:16 GMT-0500 (Central Daylight Time),287075.5,CFD-WF-011-006-HC.jpg,1000,dash,I,z,823,12,1,31190.200000000186,255885.2999999998,8023,ATS,B,13
14,test,1,B,mfborder.png,1,z,Wed Apr 09 2025 11:57:16 GMT-0500 (Central Daylight Time),288961.2999999998,CFD-BF-051-043-A.jpg,1000,dash,I,z,854,4,1,33076.0,255885.2999999998,8023,ATS,B,14
15,test,1,B,mfborder.png,1,z,Wed Apr 09 2025 11:57:16 GMT-0500 (Central Daylight Time),290591.0,CFD-BF-051-043-A.jpg,1000,dash,I,z,603,4,1,34705.700000000186,255885.2999999998,8023,ATS,B,15
16,test,1,B,mfborder.png,1,m,Wed Apr 09 2025 11:57:16 GMT-0500 (Central Daylight Time),293173.5,CFD-BM-020-024-HC.jpg,1700,dash,I,m,854,1,1,37288.200000000186,255885.2999999998,8023,ATS,B,16
17,test,1,B,mfborder.png,1,m,Wed Apr 09 2025 11:57:16 GMT-0500 (Central Daylight Time),295739.7999999998,CFD-WM-012-007-HC.jpg,1600,dash,I,m,946,10,1,39854.5,255885.2999999998,8023,ATS,B,17
18,test,1,B,mfborder.png,1,m,Wed Apr 09 2025 11:57:16 GMT-0500 (Central Daylight Time),297988.5,CFD-WM-009-009-A.jpg,1700,dash,I,m,529,9,1,42103.200000000186,255885.2999999998,8023,ATS,B,18
19,test,1,B,mfborder.png,1,m,Wed Apr 09 2025 11:57:16 GMT-0500 (Central Daylight Time),300204.5,CFD-BM-041-048-A.jpg,1600,dash,I,m,604,2,1,44319.200000000186,255885.2999999998,8023,ATS,B,19
20,test,1,B,mfborder.png,1,z,Wed Apr 09 2025 11:57:16 GMT-0500 (Central Daylight Time),302537.2000000002,CFD-BF-027-013-HC.jpg,1500,dash,I,z,799,3,1,46651.90000000037,255885.2999999998,8023,ATS,B,20
21,test,1,B,mfborder.png,1,z,Wed Apr 09 2025 11:57:16 GMT-0500 (Central Daylight Time),304236.7999999998,CFD-WF-011-006-HC.jpg,1000,dash,I,z,679,12,1,48351.5,255885.2999999998,8023,ATS,B,21
22,test,1,B,mfborder.png,1,m,Wed Apr 09 2025 11:57:16 GMT-0500 (Central Daylight Time),306919.2000000002,CFD-BM-037-041-A.jpg,2000,dash,I,m,660,5,1,51033.90000000037,255885.2999999998,8023,ATS,B,22
23,test,1,B,mfborder.png,1,m,Wed Apr 09 2025 11:57:16 GMT-0500 (Central Daylight Time),309618.2999999998,CFD-BM-020-024-HC.jpg,1700,dash,I,m,973,1,1,53733.0,255885.2999999998,8023,ATS,B,23
24,test,1,B,mfborder.png,1,m,Wed Apr 09 2025 11:57:16 GMT-0500 (Central Daylight Time),311784.4000000004,CFD-WM-012-007-HC.jpg,1600,dash,I,m,535,10,1,55899.10000000056,255885.2999999998,8023,ATS,B,24
1,4,1,C,mfborder.png,1,m,Wed Apr 09 2025 11:57:16 GMT-0500 (Central Daylight Time),374048.2000000002,CFD-BM-015-017-HC.jpg,2000,solid,I,m,1482,prac,1,4265.0999999996275,369783.10000000056,8023,ATS,B,1
2,2,1,C,mfborder.png,1,z,Wed Apr 09 2025 11:57:16 GMT-0500 (Central Daylight Time),377797.10000000056,CFD-WF-013-015-A.jpg,1500,solid,I,z,1461,prac,1,8014.0,369783.10000000056,8023,ATS,B,2
2,11,1,C,haborder.png,0,m,Wed Apr 09 2025 11:57:16 GMT-0500 (Central Daylight Time),381095.9000000004,CFD-WM-011-006-HC.jpg,1000,dash,I,None,1516,prac,1,11312.799999999814,369783.10000000056,8023,ATS,B,3
3,8,1,C,haborder.png,1,z,Wed Apr 09 2025 11:57:16 GMT-0500 (Central Daylight Time),384745.2999999998,CFD-BF-050-012-A.jpg,1700,solid,I,z,1164,prac,1,14962.199999999255,369783.10000000056,8023,ATS,B,4
3,6,1,C,mfborder.png,0,m,Wed Apr 09 2025 11:57:16 GMT-0500 (Central Daylight Time),388743.7999999998,CFD-WM-009-009-A.jpg,1700,solid,I,None,1515,prac,1,18960.699999999255,369783.10000000056,8023,ATS,B,5
3,5,1,C,mfborder.png,0,m,Wed Apr 09 2025 11:57:16 GMT-0500 (Central Daylight Time),391742.7000000002,CFD-BM-037-041-A.jpg,1200,dash,I,z,1002,prac,1,21959.599999999627,369783.10000000056,8023,ATS,B,6
4,10,1,C,haborder.png,1,m,Wed Apr 09 2025 11:57:16 GMT-0500 (Central Daylight Time),395525.0,CFD-BM-020-024-HC.jpg,1500,solid,I,m,1485,prac,1,25741.89999999944,369783.10000000056,8023,ATS,B,7
5,9,1,C,haborder.png,1,z,Wed Apr 09 2025 11:57:16 GMT-0500 (Central Daylight Time),398990.7999999998,CFD-WF-026-008-A.jpg,1600,dash,I,z,1077,prac,1,29207.699999999255,369783.10000000056,8023,ATS,B,8
5,7,1,C,haborder.png,0,z,Wed Apr 09 2025 11:57:16 GMT-0500 (Central Daylight Time),403106.0,CFD-BF-051-043-A.jpg,1900,dash,I,m,1431,prac,1,33322.89999999944,369783.10000000056,8023,ATS,B,9
6,1,1,C,mfborder.png,1,z,Wed Apr 09 2025 11:57:16 GMT-0500 (Central Daylight Time),406221.5,CFD-WF-011-006-HC.jpg,1600,dash,I,z,726,prac,1,36438.39999999944,369783.10000000056,8023,ATS,B,10
7,3,1,C,mfborder.png,1,z,Wed Apr 09 2025 11:57:16 GMT-0500 (Central Daylight Time),408887.5,CFD-BF-035-007-HC.jpg,1000,dash,I,z,875,prac,1,39104.39999999944,369783.10000000056,8023,ATS,B,11
8,12,1,C,haborder.png,1,m,Wed Apr 09 2025 11:57:16 GMT-0500 (Central Daylight Time),412121.10000000056,CFD-WM-011-006-HC.jpg,1400,solid,I,m,1042,prac,1,42338.0,369783.10000000056,8023,ATS,B,12
0,test,1,C,haborder.png,0,z,Wed Apr 09 2025 11:57:16 GMT-0500 (Central Daylight Time),444109.9000000004,CFD-WM-009-009-A.jpg,1400,solid,I,None,1512,7,1,2932.600000000559,441177.2999999998,8023,ATS,B,1
0,test,1,C,mfborder.png,0,z,Wed Apr 09 2025 11:57:16 GMT-0500 (Central Daylight Time),447142.10000000056,CFD-WF-026-008-A.jpg,1500,dash,I,None,1512,3,1,5964.800000000745,441177.2999999998,8023,ATS,B,2
0,test,1,C,mfborder.png,0,z,Wed Apr 09 2025 11:57:16 GMT-0500 (Central Daylight Time),450374.4000000004,CFD-BF-027-013-HC.jpg,1700,dash,I,None,1515,1,1,9197.100000000559,441177.2999999998,8023,ATS,B,3
1,test,1,C,haborder.png,1,m,Wed Apr 09 2025 11:57:16 GMT-0500 (Central Daylight Time),453223.60000000056,CFD-BF-035-007-HC.jpg,1600,solid,I,m,1227,10,1,12046.300000000745,441177.2999999998,8023,ATS,B,4
2,test,1,C,mfborder.png,1,m,Wed Apr 09 2025 11:57:16 GMT-0500 (Central Daylight Time),455439.5,CFD-BM-020-024-HC.jpg,1200,dash,I,m,986,6,1,14262.200000000186,441177.2999999998,8023,ATS,B,5
2,test,1,C,haborder.png,0,z,Wed Apr 09 2025 11:57:16 GMT-0500 (Central Daylight Time),458372.7999999998,CFD-WM-009-009-A.jpg,1400,solid,I,None,1517,7,1,17195.5,441177.2999999998,8023,ATS,B,6
3,test,1,C,haborder.png,1,z,Wed Apr 09 2025 11:57:16 GMT-0500 (Central Daylight Time),461354.2000000002,CFD-BM-037-041-A.jpg,1900,solid,I,z,1065,8,1,20176.900000000373,441177.2999999998,8023,ATS,B,7
3,test,1,C,haborder.png,0,m,Wed Apr 09 2025 11:57:16 GMT-0500 (Central Daylight Time),464386.5,CFD-WF-027-007-HC.jpg,1500,solid,I,None,1515,11,1,23209.200000000186,441177.2999999998,8023,ATS,B,8
3,test,1,C,haborder.png,0,z,Wed Apr 09 2025 11:57:16 GMT-0500 (Central Daylight Time),467619.0,CFD-BM-041-048-A.jpg,1700,solid,I,None,1515,9,1,26441.700000000186,441177.2999999998,8023,ATS,B,9
4,test,1,C,haborder.png,1,m,Wed Apr 09 2025 11:57:16 GMT-0500 (Central Daylight Time),469651.60000000056,CFD-WF-011-006-HC.jpg,1000,solid,I,m,1005,12,1,28474.300000000745,441177.2999999998,8023,ATS,B,10
4,test,1,C,mfborder.png,0,m,Wed Apr 09 2025 11:57:16 GMT-0500 (Central Daylight Time),472184.2000000002,CFD-WM-012-007-HC.jpg,1000,dash,I,None,1515,4,1,31006.900000000373,441177.2999999998,8023,ATS,B,11
5,test,1,C,mfborder.png,1,z,Wed Apr 09 2025 11:57:16 GMT-0500 (Central Daylight Time),475033.4000000004,CFD-BF-051-043-A.jpg,1600,dash,I,z,1225,2,1,33856.10000000056,441177.2999999998,8023,ATS,B,12
6,test,1,C,mfborder.png,1,m,Wed Apr 09 2025 11:57:16 GMT-0500 (Central Daylight Time),478248.9000000004,CFD-WM-037-060-A.jpg,2000,dash,I,m,1191,5,1,37071.60000000056,441177.2999999998,8023,ATS,B,13
7,test,1,C,haborder.png,1,z,Wed Apr 09 2025 11:57:16 GMT-0500 (Central Daylight Time),481464.7000000002,CFD-BM-041-048-A.jpg,1700,solid,I,z,1492,9,1,40287.40000000037,441177.2999999998,8023,ATS,B,14
7,test,1,C,mfborder.png,0,z,Wed Apr 09 2025 11:57:16 GMT-0500 (Central Daylight Time),484697.10000000056,CFD-BF-027-013-HC.jpg,1700,dash,I,None,1516,1,1,43519.800000000745,441177.2999999998,8023,ATS,B,15
7,test,1,C,haborder.png,0,m,Wed Apr 09 2025 11:57:16 GMT-0500 (Central Daylight Time),487229.4000000004,CFD-WF-011-006-HC.jpg,1000,solid,I,None,1511,12,1,46052.10000000056,441177.2999999998,8023,ATS,B,16
7,test,1,C,mfborder.png,0,z,Wed Apr 09 2025 11:57:16 GMT-0500 (Central Daylight Time),490262.10000000056,CFD-WF-026-008-A.jpg,1500,dash,I,None,1516,3,1,49084.800000000745,441177.2999999998,8023,ATS,B,17
7,test,1,C,mfborder.png,0,m,Wed Apr 09 2025 11:57:16 GMT-0500 (Central Daylight Time),493727.60000000056,CFD-WM-037-060-A.jpg,2000,dash,I,z,1444,5,1,52550.300000000745,441177.2999999998,8023,ATS,B,18
7,test,1,C,mfborder.png,0,z,Wed Apr 09 2025 11:57:16 GMT-0500 (Central Daylight Time),496859.9000000004,CFD-BF-051-043-A.jpg,1600,dash,I,None,1512,2,1,55682.60000000056,441177.2999999998,8023,ATS,B,19
7,test,1,C,haborder.png,0,m,Wed Apr 09 2025 11:57:16 GMT-0500 (Central Daylight Time),499992.0,CFD-BF-035-007-HC.jpg,1600,solid,I,None,1515,10,1,58814.700000000186,441177.2999999998,8023,ATS,B,20
7,test,1,C,mfborder.png,0,m,Wed Apr 09 2025 11:57:16 GMT-0500 (Central Daylight Time),502724.7000000002,CFD-BM-020-024-HC.jpg,1200,dash,I,None,1516,6,1,61547.40000000037,441177.2999999998,8023,ATS,B,21
8,test,1,C,mfborder.png,1,m,Wed Apr 09 2025 11:57:16 GMT-0500 (Central Daylight Time),504741.4000000004,CFD-WM-012-007-HC.jpg,1000,dash,I,m,997,4,1,63564.10000000056,441177.2999999998,8023,ATS,B,22
9,test,1,C,haborder.png,1,z,Wed Apr 09 2025 11:57:16 GMT-0500 (Central Daylight Time),507690.0,CFD-BM-037-041-A.jpg,1900,solid,I,z,1033,8,1,66512.70000000019,441177.2999999998,8023,ATS,B,23
9,test,1,C,haborder.png,0,m,Wed Apr 09 2025 11:57:16 GMT-0500 (Central Daylight Time),510705.4000000004,CFD-WF-027-007-HC.jpg,1500,solid,I,z,1483,11,1,69528.10000000056,441177.2999999998,8023,ATS,B,24
1,test,2,C,mfborder.png,1,z,Wed Apr 09 2025 11:57:16 GMT-0500 (Central Daylight Time),530299.5,CFD-WF-011-006-HC.jpg,1700,dash,I,z,1052,1,1,2782.5,527517.0,8023,ATS,B,1
2,test,2,C,mfborder.png,1,m,Wed Apr 09 2025 11:57:16 GMT-0500 (Central Daylight Time),533398.7000000002,CFD-BM-037-041-A.jpg,2000,dash,I,m,1070,5,1,5881.700000000186,527517.0,8023,ATS,B,2
3,test,2,C,haborder.png,1,z,Wed Apr 09 2025 11:57:16 GMT-0500 (Central Daylight Time),535947.7000000002,CFD-WF-026-008-A.jpg,1700,solid,I,z,822,9,1,8430.700000000186,527517.0,8023,ATS,B,3
4,test,2,C,haborder.png,1,m,Wed Apr 09 2025 11:57:16 GMT-0500 (Central Daylight Time),538830.0,CFD-BM-020-024-HC.jpg,1600,solid,I,m,1253,10,1,11313.0,527517.0,8023,ATS,B,4
4,test,2,C,mfborder.png,0,m,Wed Apr 09 2025 11:57:16 GMT-0500 (Central Daylight Time),541295.7999999998,CFD-WM-009-009-A.jpg,1200,dash,I,z,1235,6,1,13778.799999999814,527517.0,8023,ATS,B,5
4,test,2,C,mfborder.png,0,m,Wed Apr 09 2025 11:57:16 GMT-0500 (Central Daylight Time),543828.4000000004,CFD-BM-015-017-HC.jpg,1000,dash,I,None,1515,4,1,16311.400000000373,527517.0,8023,ATS,B,6
4,test,2,C,haborder.png,0,z,Wed Apr 09 2025 11:57:16 GMT-0500 (Central Daylight Time),547260.7999999998,CFD-BF-050-012-A.jpg,1900,solid,I,None,1516,8,1,19743.799999999814,527517.0,8023,ATS,B,7
4,test,2,C,mfborder.png,0,z,Wed Apr 09 2025 11:57:16 GMT-0500 (Central Daylight Time),550393.2000000002,CFD-WF-013-015-A.jpg,1600,dash,I,None,1515,2,1,22876.200000000186,527517.0,8023,ATS,B,8
5,test,2,C,haborder.png,1,m,Wed Apr 09 2025 11:57:16 GMT-0500 (Central Daylight Time),552842.4000000004,CFD-WM-011-006-HC.jpg,1500,solid,I,m,924,11,1,25325.400000000373,527517.0,8023,ATS,B,9
5,test,2,C,mfborder.png,0,m,Wed Apr 09 2025 11:57:16 GMT-0500 (Central Daylight Time),555025.2000000002,CFD-BM-015-017-HC.jpg,1000,dash,I,z,1159,4,1,27508.200000000186,527517.0,8023,ATS,B,10
5,test,2,C,haborder.png,0,z,Wed Apr 09 2025 11:57:16 GMT-0500 (Central Daylight Time),558337.2000000002,CFD-WF-026-008-A.jpg,1700,solid,I,None,1592,9,1,30820.200000000186,527517.0,8023,ATS,B,11
5,test,2,C,mfborder.png,0,m,Wed Apr 09 2025 11:57:16 GMT-0500 (Central Daylight Time),561073.1000000006,CFD-WM-009-009-A.jpg,1200,dash,I,None,1515,6,1,33556.10000000056,527517.0,8023,ATS,B,12
6,test,2,C,haborder.png,1,m,Wed Apr 09 2025 11:57:16 GMT-0500 (Central Daylight Time),563655.7000000002,CFD-BM-020-024-HC.jpg,1600,solid,I,m,960,10,1,36138.700000000186,527517.0,8023,ATS,B,13
7,test,2,C,mfborder.png,1,m,Wed Apr 09 2025 11:57:16 GMT-0500 (Central Daylight Time),566971.4000000004,CFD-BM-037-041-A.jpg,2000,dash,I,m,1298,5,1,39454.40000000037,527517.0,8023,ATS,B,14
7,test,2,C,mfborder.png,0,z,Wed Apr 09 2025 11:57:16 GMT-0500 (Central Daylight Time),570003.7999999998,CFD-BF-035-007-HC.jpg,1500,dash,I,None,1516,3,1,42486.799999999814,527517.0,8023,ATS,B,15
8,test,2,C,haborder.png,1,m,Wed Apr 09 2025 11:57:16 GMT-0500 (Central Daylight Time),571953.2000000002,CFD-WM-011-006-HC.jpg,1000,solid,I,m,926,12,1,44436.200000000186,527517.0,8023,ATS,B,16
9,test,2,C,haborder.png,1,m,Wed Apr 09 2025 11:57:16 GMT-0500 (Central Daylight Time),573952.5,CFD-WM-011-006-HC.jpg,1000,solid,I,m,972,12,1,46435.5,527517.0,8023,ATS,B,17
9,test,2,C,haborder.png,0,z,Wed Apr 09 2025 11:57:16 GMT-0500 (Central Daylight Time),577385.9000000004,CFD-BF-050-012-A.jpg,1900,solid,I,None,1517,8,1,49868.90000000037,527517.0,8023,ATS,B,18
9,test,2,C,mfborder.png,0,z,Wed Apr 09 2025 11:57:16 GMT-0500 (Central Daylight Time),580417.0,CFD-BF-035-007-HC.jpg,1500,dash,I,None,1516,3,1,52900.0,527517.0,8023,ATS,B,19
10,test,2,C,mfborder.png,1,z,Wed Apr 09 2025 11:57:16 GMT-0500 (Central Daylight Time),583382.9000000004,CFD-WF-013-015-A.jpg,1600,dash,I,z,1352,2,1,55865.90000000037,527517.0,8023,ATS,B,20
11,test,2,C,mfborder.png,1,z,Wed Apr 09 2025 11:57:16 GMT-0500 (Central Daylight Time),585882.2000000002,CFD-WF-011-006-HC.jpg,1700,dash,I,z,783,1,1,58365.200000000186,527517.0,8023,ATS,B,21
12,test,2,C,haborder.png,1,m,Wed Apr 09 2025 11:57:16 GMT-0500 (Central Daylight Time),588864.7000000002,CFD-WM-011-006-HC.jpg,1500,solid,I,m,1458,11,1,61347.700000000186,527517.0,8023,ATS,B,22
12,test,2,C,haborder.png,0,z,Wed Apr 09 2025 11:57:16 GMT-0500 (Central Daylight Time),591796.7999999998,CFD-BF-051-043-A.jpg,1400,solid,I,None,1516,7,1,64279.799999999814,527517.0,8023,ATS,B,23
13,test,2,C,haborder.png,1,z,Wed Apr 09 2025 11:57:16 GMT-0500 (Central Daylight Time),594362.5,CFD-BF-051-043-A.jpg,1400,solid,I,z,1149,7,1,66845.5,527517.0,8023,ATS,B,24
1,test,3,C,haborder.png,1,z,Wed Apr 09 2025 11:57:16 GMT-0500 (Central Daylight Time),607208.7000000002,CFD-BM-037-041-A.jpg,1900,solid,I,z,930,8,1,2865.9000000003725,604342.7999999998,8023,ATS,B,1
2,test,3,C,haborder.png,1,z,Wed Apr 09 2025 11:57:16 GMT-0500 (Central Daylight Time),610124.5,CFD-WM-009-009-A.jpg,1400,solid,I,z,1497,7,1,5781.700000000186,604342.7999999998,8023,ATS,B,2
2,test,3,C,mfborder.png,0,z,Wed Apr 09 2025 11:57:16 GMT-0500 (Central Daylight Time),613256.7000000002,CFD-BF-051-043-A.jpg,1600,dash,I,None,1516,2,1,8913.900000000373,604342.7999999998,8023,ATS,B,3
2,test,3,C,mfborder.png,0,m,Wed Apr 09 2025 11:57:16 GMT-0500 (Central Daylight Time),615622.6000000006,CFD-WM-012-007-HC.jpg,1000,dash,I,z,1343,4,1,11279.800000000745,604342.7999999998,8023,ATS,B,4
2,test,3,C,haborder.png,0,z,Wed Apr 09 2025 11:57:16 GMT-0500 (Central Daylight Time),618555.1000000006,CFD-WM-009-009-A.jpg,1400,solid,I,None,1516,7,1,14212.300000000745,604342.7999999998,8023,ATS,B,5
3,test,3,C,mfborder.png,1,m,Wed Apr 09 2025 11:57:16 GMT-0500 (Central Daylight Time),621803.9000000004,CFD-WM-037-060-A.jpg,2000,dash,I,m,1222,5,1,17461.10000000056,604342.7999999998,8023,ATS,B,6
3,test,3,C,haborder.png,0,m,Wed Apr 09 2025 11:57:16 GMT-0500 (Central Daylight Time),624836.5,CFD-WF-027-007-HC.jpg,1500,solid,I,None,1515,11,1,20493.700000000186,604342.7999999998,8023,ATS,B,7
4,test,3,C,mfborder.png,1,z,Wed Apr 09 2025 11:57:16 GMT-0500 (Central Daylight Time),627852.2999999998,CFD-WF-026-008-A.jpg,1500,dash,I,z,1496,3,1,23509.5,604342.7999999998,8023,ATS,B,8
5,test,3,C,mfborder.png,1,z,Wed Apr 09 2025 11:57:16 GMT-0500 (Central Daylight Time),630368.1000000006,CFD-WF-026-008-A.jpg,1500,dash,I,z,993,3,1,26025.300000000745,604342.7999999998,8023,ATS,B,9
5,test,3,C,haborder.png,0,z,Wed Apr 09 2025 11:57:16 GMT-0500 (Central Daylight Time),633800.5,CFD-BM-037-041-A.jpg,1900,solid,I,None,1515,8,1,29457.700000000186,604342.7999999998,8023,ATS,B,10
6,test,3,C,haborder.png,1,z,Wed Apr 09 2025 11:57:16 GMT-0500 (Central Daylight Time),636282.7999999998,CFD-BM-041-048-A.jpg,1700,solid,I,z,765,9,1,31940.0,604342.7999999998,8023,ATS,B,11
6,test,3,C,mfborder.png,0,z,Wed Apr 09 2025 11:57:16 GMT-0500 (Central Daylight Time),639515.2000000002,CFD-BF-027-013-HC.jpg,1700,dash,I,None,1515,1,1,35172.40000000037,604342.7999999998,8023,ATS,B,12
6,test,3,C,haborder.png,0,m,Wed Apr 09 2025 11:57:16 GMT-0500 (Central Daylight Time),641864.7000000002,CFD-WF-011-006-HC.jpg,1000,solid,I,z,1318,12,1,37521.90000000037,604342.7999999998,8023,ATS,B,13
6,test,3,C,mfborder.png,0,z,Wed Apr 09 2025 11:57:16 GMT-0500 (Central Daylight Time),645096.7999999998,CFD-BF-027-013-HC.jpg,1700,dash,I,None,1516,1,1,40754.0,604342.7999999998,8023,ATS,B,14
7,test,3,C,haborder.png,1,z,Wed Apr 09 2025 11:57:16 GMT-0500 (Central Daylight Time),648213.5,CFD-BM-041-048-A.jpg,1700,solid,I,z,1397,9,1,43870.700000000186,604342.7999999998,8023,ATS,B,15
7,test,3,C,mfborder.png,0,m,Wed Apr 09 2025 11:57:16 GMT-0500 (Central Daylight Time),650945.0,CFD-BM-020-024-HC.jpg,1200,dash,I,None,1516,6,1,46602.200000000186,604342.7999999998,8023,ATS,B,16
7,test,3,C,mfborder.png,0,m,Wed Apr 09 2025 11:57:16 GMT-0500 (Central Daylight Time),654110.7000000002,CFD-WM-037-060-A.jpg,2000,dash,I,z,1137,5,1,49767.90000000037,604342.7999999998,8023,ATS,B,17
8,test,3,C,mfborder.png,1,m,Wed Apr 09 2025 11:57:16 GMT-0500 (Central Daylight Time),656526.6000000006,CFD-BM-020-024-HC.jpg,1200,dash,I,m,1186,6,1,52183.800000000745,604342.7999999998,8023,ATS,B,18
8,test,3,C,haborder.png,0,m,Wed Apr 09 2025 11:57:16 GMT-0500 (Central Daylight Time),659059.2000000002,CFD-WF-011-006-HC.jpg,1000,solid,I,None,1515,12,1,54716.40000000037,604342.7999999998,8023,ATS,B,19
8,test,3,C,mfborder.png,0,m,Wed Apr 09 2025 11:57:16 GMT-0500 (Central Daylight Time),661591.7999999998,CFD-WM-012-007-HC.jpg,1000,dash,I,None,1516,4,1,57249.0,604342.7999999998,8023,ATS,B,20
8,test,3,C,haborder.png,0,m,Wed Apr 09 2025 11:57:16 GMT-0500 (Central Daylight Time),664624.2000000002,CFD-WF-027-007-HC.jpg,1500,solid,I,None,1512,11,1,60281.40000000037,604342.7999999998,8023,ATS,B,21
9,test,3,C,haborder.png,1,m,Wed Apr 09 2025 11:57:16 GMT-0500 (Central Daylight Time),667173.2000000002,CFD-BF-035-007-HC.jpg,1600,solid,I,m,921,10,1,62830.40000000037,604342.7999999998,8023,ATS,B,22
10,test,3,C,haborder.png,1,m,Wed Apr 09 2025 11:57:16 GMT-0500 (Central Daylight Time),669473.7999999998,CFD-BF-035-007-HC.jpg,1600,solid,I,m,667,10,1,65131.0,604342.7999999998,8023,ATS,B,23
10,test,3,C,mfborder.png,0,z,Wed Apr 09 2025 11:57:16 GMT-0500 (Central Daylight Time),672604.7999999998,CFD-BF-051-043-A.jpg,1600,dash,I,None,1512,2,1,68262.0,604342.7999999998,8023,ATS,B,24
0,test,4,C,haborder.png,0,z,Wed Apr 09 2025 11:57:16 GMT-0500 (Central Daylight Time),680302.7000000002,CFD-WF-026-008-A.jpg,1700,solid,I,None,1516,9,1,3232.5,677070.2000000002,8023,ATS,B,1
0,test,4,C,mfborder.png,0,m,Wed Apr 09 2025 11:57:16 GMT-0500 (Central Daylight Time),683035.2000000002,CFD-WM-009-009-A.jpg,1200,dash,I,None,1512,6,1,5965.0,677070.2000000002,8023,ATS,B,2
0,test,4,C,haborder.png,0,m,Wed Apr 09 2025 11:57:16 GMT-0500 (Central Daylight Time),686021.0000000009,CFD-WM-011-006-HC.jpg,1500,solid,I,z,1458,11,1,8950.800000000745,677070.2000000002,8023,ATS,B,3
0,test,4,C,haborder.png,0,z,Wed Apr 09 2025 11:57:16 GMT-0500 (Central Daylight Time),689249.7999999998,CFD-WF-026-008-A.jpg,1700,solid,I,None,1516,9,1,12179.599999999627,677070.2000000002,8023,ATS,B,4
1,test,4,C,haborder.png,1,m,Wed Apr 09 2025 11:57:16 GMT-0500 (Central Daylight Time),691133.7000000002,CFD-WM-011-006-HC.jpg,1000,solid,I,m,863,12,1,14063.5,677070.2000000002,8023,ATS,B,5
1,test,4,C,mfborder.png,0,m,Wed Apr 09 2025 11:57:16 GMT-0500 (Central Daylight Time),694664.7999999998,CFD-BM-037-041-A.jpg,2000,dash,I,None,1516,5,1,17594.599999999627,677070.2000000002,8023,ATS,B,6
1,test,4,C,mfborder.png,0,z,Wed Apr 09 2025 11:57:16 GMT-0500 (Central Daylight Time),697697.1000000006,CFD-BF-035-007-HC.jpg,1500,dash,I,None,1515,3,1,20626.900000000373,677070.2000000002,8023,ATS,B,7
1,test,4,C,haborder.png,0,m,Wed Apr 09 2025 11:57:16 GMT-0500 (Central Daylight Time),700829.3999999994,CFD-BM-020-024-HC.jpg,1600,solid,I,None,1515,10,1,23759.199999999255,677070.2000000002,8023,ATS,B,8
1,test,4,C,haborder.png,0,z,Wed Apr 09 2025 11:57:16 GMT-0500 (Central Daylight Time),703761.8999999994,CFD-BF-051-043-A.jpg,1400,solid,I,None,1516,7,1,26691.699999999255,677070.2000000002,8023,ATS,B,9
1,test,4,C,mfborder.png,0,m,Wed Apr 09 2025 11:57:16 GMT-0500 (Central Daylight Time),706994.2000000002,CFD-BM-037-041-A.jpg,2000,dash,I,z,1200,5,1,29924.0,677070.2000000002,8023,ATS,B,10
1,test,4,C,mfborder.png,0,z,Wed Apr 09 2025 11:57:16 GMT-0500 (Central Daylight Time),710126.6000000006,CFD-WF-013-015-A.jpg,1600,dash,I,None,1516,2,1,33056.40000000037,677070.2000000002,8023,ATS,B,11
1,test,4,C,mfborder.png,0,m,Wed Apr 09 2025 11:57:16 GMT-0500 (Central Daylight Time),712659.2000000002,CFD-BM-015-017-HC.jpg,1000,dash,I,None,1515,4,1,35589.0,677070.2000000002,8023,ATS,B,12
2,test,4,C,haborder.png,1,z,Wed Apr 09 2025 11:57:16 GMT-0500 (Central Daylight Time),714725.0000000009,CFD-BF-051-043-A.jpg,1400,solid,I,z,646,7,1,37654.800000000745,677070.2000000002,8023,ATS,B,13
3,test,4,C,haborder.png,1,m,Wed Apr 09 2025 11:57:16 GMT-0500 (Central Daylight Time),717207.6000000006,CFD-WM-011-006-HC.jpg,1500,solid,I,m,960,11,1,40137.40000000037,677070.2000000002,8023,ATS,B,14
4,test,4,C,haborder.png,1,m,Wed Apr 09 2025 11:57:16 GMT-0500 (Central Daylight Time),718874.2000000002,CFD-WM-011-006-HC.jpg,1000,solid,I,m,649,12,1,41804.0,677070.2000000002,8023,ATS,B,15
5,test,4,C,mfborder.png,1,z,Wed Apr 09 2025 11:57:16 GMT-0500 (Central Daylight Time),721706.2999999998,CFD-BF-035-007-HC.jpg,1500,dash,I,z,1316,3,1,44636.09999999963,677070.2000000002,8023,ATS,B,16
6,test,4,C,haborder.png,1,z,Wed Apr 09 2025 11:57:16 GMT-0500 (Central Daylight Time),724722.0000000009,CFD-BF-050-012-A.jpg,1900,solid,I,z,1083,8,1,47651.800000000745,677070.2000000002,8023,ATS,B,17
7,test,4,C,mfborder.png,1,z,Wed Apr 09 2025 11:57:16 GMT-0500 (Central Daylight Time),727604.5000000009,CFD-WF-011-006-HC.jpg,1700,dash,I,z,1155,1,1,50534.300000000745,677070.2000000002,8023,ATS,B,18
8,test,4,C,haborder.png,1,m,Wed Apr 09 2025 11:57:16 GMT-0500 (Central Daylight Time),730253.6000000006,CFD-BM-020-024-HC.jpg,1600,solid,I,m,1029,10,1,53183.40000000037,677070.2000000002,8023,ATS,B,19
8,test,4,C,mfborder.png,0,m,Wed Apr 09 2025 11:57:16 GMT-0500 (Central Daylight Time),732786.2999999998,CFD-BM-015-017-HC.jpg,1000,dash,I,None,1515,4,1,55716.09999999963,677070.2000000002,8023,ATS,B,20
8,test,4,C,mfborder.png,0,z,Wed Apr 09 2025 11:57:16 GMT-0500 (Central Daylight Time),736018.5000000009,CFD-WF-011-006-HC.jpg,1700,dash,I,None,1515,1,1,58948.300000000745,677070.2000000002,8023,ATS,B,21
9,test,4,C,haborder.png,1,z,Wed Apr 09 2025 11:57:16 GMT-0500 (Central Daylight Time),739067.5000000009,CFD-BF-050-012-A.jpg,1900,solid,I,z,1123,8,1,61997.300000000745,677070.2000000002,8023,ATS,B,22
9,test,4,C,mfborder.png,0,z,Wed Apr 09 2025 11:57:16 GMT-0500 (Central Daylight Time),742199.8999999994,CFD-WF-013-015-A.jpg,1600,dash,I,None,1512,2,1,65129.699999999255,677070.2000000002,8023,ATS,B,23
9,test,4,C,mfborder.png,0,m,Wed Apr 09 2025 11:57:16 GMT-0500 (Central Daylight Time),744932.5000000009,CFD-WM-009-009-A.jpg,1200,dash,I,None,1516,6,1,67862.30000000075,677070.2000000002,8023,ATS,B,24
