Number,acc_sum,block,block_c,block_cond,con_img,correct,correct_response,datetime,endtime,jitter,project,response,response_time,row_sel,session_number,start_end,starttime,subject_id,task,task_vers,trial
1,1,prac,1,A,circle.png,1,z,Thu Feb 20 2025 16:34:10 GMT-0600 (Central Standard Time),62115.300000000745,1000,O,z,963,1,1,2743.800000000745,59371.5,7050,NTS,A,1
9,2,prac,1,A,circle.png,1,m,Thu Feb 20 2025 16:34:10 GMT-0600 (Central Standard Time),65047.800000000745,1500,O,m,643,8,1,2926.300000000745,62121.5,7050,NTS,A,2
3,3,prac,1,A,circle.png,1,z,Thu Feb 20 2025 16:34:10 GMT-0600 (Central Standard Time),67646.80000000075,1200,O,z,602,3,1,2593.699999999255,65053.10000000149,7050,NTS,A,3
7,4,prac,1,A,circle.png,1,m,Thu Feb 20 2025 16:34:10 GMT-0600 (Central Standard Time),70712.5,1700,O,m,567,6,1,3060.199999999255,67652.30000000075,7050,NTS,A,4
1,5,prac,1,A,circle.png,1,z,Thu Feb 20 2025 16:34:10 GMT-0600 (Central Standard Time),73011.90000000224,1000,O,z,513,1,1,2293.7000000029802,70718.19999999925,7050,NTS,A,5
9,6,prac,1,A,circle.png,1,m,Thu Feb 20 2025 16:34:10 GMT-0600 (Central Standard Time),75760.80000000075,1500,O,m,459,8,1,2743.5,73017.30000000075,7050,NTS,A,6
2,7,prac,1,A,circle.png,1,z,Thu Feb 20 2025 16:34:10 GMT-0600 (Central Standard Time),79159.90000000224,2000,O,z,602,2,1,3393.300000000745,75766.60000000149,7050,NTS,A,7
4,8,prac,1,A,circle.png,1,z,Thu Feb 20 2025 16:34:10 GMT-0600 (Central Standard Time),81959.0,1400,O,z,602,4,1,2793.599999997765,79165.40000000224,7050,NTS,A,8
7,9,prac,1,A,circle.png,1,m,Thu Feb 20 2025 16:34:10 GMT-0600 (Central Standard Time),85108.0,1700,O,m,663,6,1,3143.699999999255,81964.30000000075,7050,NTS,A,9
8,10,prac,1,A,circle.png,1,m,Thu Feb 20 2025 16:34:10 GMT-0600 (Central Standard Time),88090.30000000075,1600,O,m,599,7,1,2976.5,85113.80000000075,7050,NTS,A,10
8,11,prac,1,A,circle.png,1,m,Thu Feb 20 2025 16:34:10 GMT-0600 (Central Standard Time),91139.80000000075,1600,O,m,656,7,1,3044.39999999851,88095.40000000224,7050,NTS,A,11
6,12,prac,1,A,circle.png,1,m,Thu Feb 20 2025 16:34:10 GMT-0600 (Central Standard Time),94754.90000000224,1900,O,m,932,5,1,3609.800000000745,91145.10000000149,7050,NTS,A,12
3,1,prac,1,B,triangle.png,1,z,Thu Feb 20 2025 16:34:10 GMT-0600 (Central Standard Time),122296.40000000224,1600,O,z,727,3,1,3111.7000000029802,119184.69999999925,7050,NTS,A,1
7,1,prac,1,B,triangle.png,0,z,Thu Feb 20 2025 16:34:10 GMT-0600 (Central Standard Time),126595.19999999925,2000,O,None,1516,6,1,4293.5,122301.69999999925,7050,NTS,A,2
1,2,prac,1,B,triangle.png,1,z,Thu Feb 20 2025 16:34:10 GMT-0600 (Central Standard Time),129910.69999999925,1900,O,z,620,1,1,3310.5,126600.19999999925,7050,NTS,A,3
4,3,prac,1,B,triangle.png,1,m,Thu Feb 20 2025 16:34:10 GMT-0600 (Central Standard Time),132809.69999999925,1500,O,m,608,4,1,2894.099999997765,129915.60000000149,7050,NTS,A,4
8,4,prac,1,B,triangle.png,1,m,Thu Feb 20 2025 16:34:10 GMT-0600 (Central Standard Time),135742.30000000075,1200,O,m,936,7,1,2926.10000000149,132816.19999999925,7050,NTS,A,5
6,5,prac,1,B,triangle.png,1,m,Thu Feb 20 2025 16:34:10 GMT-0600 (Central Standard Time),138108.19999999925,1000,O,m,581,5,1,2360.7999999970198,135747.40000000224,7050,NTS,A,6
3,6,prac,1,B,triangle.png,1,z,Thu Feb 20 2025 16:34:10 GMT-0600 (Central Standard Time),141140.69999999925,1600,O,z,639,3,1,3027.2999999970198,138113.40000000224,7050,NTS,A,7
9,7,prac,1,B,triangle.png,1,z,Thu Feb 20 2025 16:34:10 GMT-0600 (Central Standard Time),144256.30000000075,1400,O,z,918,8,1,3110.60000000149,141145.69999999925,7050,NTS,A,8
6,8,prac,1,B,triangle.png,1,m,Thu Feb 20 2025 16:34:10 GMT-0600 (Central Standard Time),146622.0,1000,O,m,571,5,1,2360.599999997765,144261.40000000224,7050,NTS,A,9
7,9,prac,1,B,triangle.png,1,z,Thu Feb 20 2025 16:34:10 GMT-0600 (Central Standard Time),150054.40000000224,2000,O,z,637,6,1,3427.300000000745,146627.1000000015,7050,NTS,A,10
1,9,prac,1,B,triangle.png,0,z,Thu Feb 20 2025 16:34:10 GMT-0600 (Central Standard Time),153819.90000000224,1900,O,m,1072,1,1,3760.300000000745,150059.6000000015,7050,NTS,A,11
2,10,prac,1,B,triangle.png,1,m,Thu Feb 20 2025 16:34:10 GMT-0600 (Central Standard Time),156985.19999999925,1700,O,m,667,2,1,3160.599999997765,153824.6000000015,7050,NTS,A,12
4,1,test,1,A,circle.png,1,z,Thu Feb 20 2025 16:34:10 GMT-0600 (Central Standard Time),181094.6000000015,1400,O,z,613,4,1,2028.4000000022352,179066.19999999925,7050,NTS,A,1
3,2,test,1,A,circle.png,1,z,Thu Feb 20 2025 16:34:10 GMT-0600 (Central Standard Time),182960.69999999925,1200,O,z,643,3,1,1862.0999999977648,181098.6000000015,7050,NTS,A,2
3,3,test,1,A,circle.png,1,z,Thu Feb 20 2025 16:34:10 GMT-0600 (Central Standard Time),184876.5,1200,O,z,698,3,1,1911.5999999977648,182964.90000000224,7050,NTS,A,3
6,4,test,1,A,circle.png,1,m,Thu Feb 20 2025 16:34:10 GMT-0600 (Central Standard Time),187392.69999999925,1900,O,m,585,5,1,2512.699999999255,184880.0,7050,NTS,A,4
3,5,test,1,A,circle.png,1,z,Thu Feb 20 2025 16:34:10 GMT-0600 (Central Standard Time),189125.5,1200,O,z,514,3,1,1728.8999999985099,187396.6000000015,7050,NTS,A,5
1,6,test,1,A,circle.png,1,z,Thu Feb 20 2025 16:34:10 GMT-0600 (Central Standard Time),190675.0,1000,O,z,516,1,1,1545.800000000745,189129.19999999925,7050,NTS,A,6
9,7,test,1,A,circle.png,1,m,Thu Feb 20 2025 16:34:10 GMT-0600 (Central Standard Time),192724.30000000075,1500,O,m,524,8,1,2045.6000000014901,190678.69999999925,7050,NTS,A,7
8,8,test,1,A,circle.png,1,m,Thu Feb 20 2025 16:34:10 GMT-0600 (Central Standard Time),194757.1000000015,1600,O,m,415,7,1,2029.1000000014901,192728.0,7050,NTS,A,8
3,9,test,1,A,circle.png,1,z,Thu Feb 20 2025 16:34:10 GMT-0600 (Central Standard Time),196539.80000000075,1200,O,z,549,3,1,1778.8999999985099,194760.90000000224,7050,NTS,A,9
4,10,test,1,A,circle.png,1,z,Thu Feb 20 2025 16:34:10 GMT-0600 (Central Standard Time),199272.0,1400,O,z,1302,4,1,2728.5,196543.5,7050,NTS,A,10
1,11,test,1,A,circle.png,1,z,Thu Feb 20 2025 16:34:10 GMT-0600 (Central Standard Time),200838.6000000015,1000,O,z,546,1,1,1562.0,199276.6000000015,7050,NTS,A,11
8,12,test,1,A,circle.png,1,m,Thu Feb 20 2025 16:34:10 GMT-0600 (Central Standard Time),203071.0,1600,O,m,605,7,1,2228.5,200842.5,7050,NTS,A,12
2,13,test,1,A,circle.png,1,z,Thu Feb 20 2025 16:34:10 GMT-0600 (Central Standard Time),205636.80000000075,2000,O,z,548,2,1,2562.0,203074.80000000075,7050,NTS,A,13
2,14,test,1,A,circle.png,1,z,Thu Feb 20 2025 16:34:10 GMT-0600 (Central Standard Time),208186.30000000075,2000,O,z,518,2,1,2545.699999999255,205640.6000000015,7050,NTS,A,14
9,15,test,1,A,circle.png,1,m,Thu Feb 20 2025 16:34:10 GMT-0600 (Central Standard Time),210152.30000000075,1500,O,m,436,8,1,1962.1000000014901,208190.19999999925,7050,NTS,A,15
6,16,test,1,A,circle.png,1,m,Thu Feb 20 2025 16:34:10 GMT-0600 (Central Standard Time),212851.40000000224,1900,O,m,774,5,1,2695.300000000745,210156.1000000015,7050,NTS,A,16
6,17,test,1,A,circle.png,1,m,Thu Feb 20 2025 16:34:10 GMT-0600 (Central Standard Time),215367.40000000224,1900,O,m,587,5,1,2512.300000000745,212855.1000000015,7050,NTS,A,17
7,18,test,1,A,circle.png,1,m,Thu Feb 20 2025 16:34:10 GMT-0600 (Central Standard Time),217633.5,1700,O,m,544,6,1,2262.5,215371.0,7050,NTS,A,18
2,19,test,1,A,circle.png,1,z,Thu Feb 20 2025 16:34:10 GMT-0600 (Central Standard Time),220199.0,2000,O,z,538,2,1,2561.599999997765,217637.40000000224,7050,NTS,A,19
4,20,test,1,A,circle.png,1,z,Thu Feb 20 2025 16:34:10 GMT-0600 (Central Standard Time),222248.5,1400,O,z,620,4,1,2046.0,220202.5,7050,NTS,A,20
6,21,test,1,A,circle.png,1,m,Thu Feb 20 2025 16:34:10 GMT-0600 (Central Standard Time),224764.40000000224,1900,O,m,591,5,1,2512.0,222252.40000000224,7050,NTS,A,21
1,22,test,1,A,circle.png,1,z,Thu Feb 20 2025 16:34:10 GMT-0600 (Central Standard Time),226347.19999999925,1000,O,z,559,1,1,1579.0999999977648,224768.1000000015,7050,NTS,A,22
8,23,test,1,A,circle.png,1,m,Thu Feb 20 2025 16:34:10 GMT-0600 (Central Standard Time),228530.1000000015,1600,O,m,559,7,1,2179.300000000745,226350.80000000075,7050,NTS,A,23
7,24,test,1,A,circle.png,1,m,Thu Feb 20 2025 16:34:10 GMT-0600 (Central Standard Time),230746.0,1700,O,m,493,6,1,2212.099999997765,228533.90000000224,7050,NTS,A,24
9,1,test,1,B,triangle.png,1,z,Thu Feb 20 2025 16:34:10 GMT-0600 (Central Standard Time),254321.80000000075,1400,O,z,869,8,1,2296.10000000149,252025.69999999925,7050,NTS,A,1
4,2,test,1,B,triangle.png,1,m,Thu Feb 20 2025 16:34:10 GMT-0600 (Central Standard Time),255971.19999999925,1000,O,m,625,12,1,1645.2999999970198,254325.90000000224,7050,NTS,A,2
2,3,test,1,B,triangle.png,1,m,Thu Feb 20 2025 16:34:10 GMT-0600 (Central Standard Time),257737.40000000224,1200,O,m,544,10,1,1762.6000000014901,255974.80000000075,7050,NTS,A,3
3,4,test,1,B,triangle.png,1,z,Thu Feb 20 2025 16:34:10 GMT-0600 (Central Standard Time),260303.40000000224,2000,O,z,546,11,1,2561.800000000745,257741.6000000015,7050,NTS,A,4
1,5,test,1,B,triangle.png,1,z,Thu Feb 20 2025 16:34:10 GMT-0600 (Central Standard Time),262286.1000000015,1400,O,z,564,9,1,1978.9000000022352,260307.19999999925,7050,NTS,A,5
4,6,test,1,B,triangle.png,1,m,Thu Feb 20 2025 16:34:10 GMT-0600 (Central Standard Time),264285.5,1500,O,m,481,4,1,1996.0,262289.5,7050,NTS,A,6
7,7,test,1,B,triangle.png,1,z,Thu Feb 20 2025 16:34:10 GMT-0600 (Central Standard Time),266534.69999999925,1600,O,z,622,14,1,2245.699999999255,264289.0,7050,NTS,A,7
7,8,test,1,B,triangle.png,1,z,Thu Feb 20 2025 16:34:10 GMT-0600 (Central Standard Time),269133.80000000075,2000,O,z,573,6,1,2595.0,266538.80000000075,7050,NTS,A,8
8,9,test,1,B,triangle.png,1,m,Thu Feb 20 2025 16:34:10 GMT-0600 (Central Standard Time),271449.69999999925,1700,O,m,585,15,1,2312.199999999255,269137.5,7050,NTS,A,9
3,10,test,1,B,triangle.png,1,z,Thu Feb 20 2025 16:34:10 GMT-0600 (Central Standard Time),273699.30000000075,1600,O,z,625,3,1,2245.60000000149,271453.69999999925,7050,NTS,A,10
8,11,test,1,B,triangle.png,1,m,Thu Feb 20 2025 16:34:10 GMT-0600 (Central Standard Time),276048.40000000224,1700,O,m,620,15,1,2345.300000000745,273703.1000000015,7050,NTS,A,11
6,12,test,1,B,triangle.png,1,m,Thu Feb 20 2025 16:34:10 GMT-0600 (Central Standard Time),277748.0,1000,O,m,667,5,1,1695.800000000745,276052.19999999925,7050,NTS,A,12
9,13,test,1,B,triangle.png,1,z,Thu Feb 20 2025 16:34:10 GMT-0600 (Central Standard Time),280247.0,1900,O,z,579,16,1,2495.199999999255,277751.80000000075,7050,NTS,A,13
7,14,test,1,B,triangle.png,1,z,Thu Feb 20 2025 16:34:10 GMT-0600 (Central Standard Time),282863.1000000015,2000,O,z,588,6,1,2612.60000000149,280250.5,7050,NTS,A,14
6,15,test,1,B,triangle.png,1,m,Thu Feb 20 2025 16:34:10 GMT-0600 (Central Standard Time),284445.80000000075,1000,O,m,564,5,1,1578.8999999985099,282866.90000000224,7050,NTS,A,15
2,16,test,1,B,triangle.png,1,m,Thu Feb 20 2025 16:34:10 GMT-0600 (Central Standard Time),286261.69999999925,1200,O,m,596,10,1,1812.0,284449.69999999925,7050,NTS,A,16
4,17,test,1,B,triangle.png,1,m,Thu Feb 20 2025 16:34:10 GMT-0600 (Central Standard Time),288278.0,1500,O,m,490,4,1,2012.300000000745,286265.69999999925,7050,NTS,A,17
6,18,test,1,B,triangle.png,1,m,Thu Feb 20 2025 16:34:10 GMT-0600 (Central Standard Time),290427.1000000015,1500,O,m,616,13,1,2145.400000002235,288281.69999999925,7050,NTS,A,18
8,19,test,1,B,triangle.png,1,m,Thu Feb 20 2025 16:34:10 GMT-0600 (Central Standard Time),292126.69999999925,1200,O,m,472,7,1,1695.8999999985099,290430.80000000075,7050,NTS,A,19
6,20,test,1,B,triangle.png,1,m,Thu Feb 20 2025 16:34:10 GMT-0600 (Central Standard Time),294142.69999999925,1500,O,m,497,13,1,2012.199999999255,292130.5,7050,NTS,A,20
1,21,test,1,B,triangle.png,1,z,Thu Feb 20 2025 16:34:10 GMT-0600 (Central Standard Time),296692.0,1900,O,z,633,1,1,2545.39999999851,294146.6000000015,7050,NTS,A,21
8,22,test,1,B,triangle.png,1,m,Thu Feb 20 2025 16:34:10 GMT-0600 (Central Standard Time),298591.40000000224,1200,O,m,671,7,1,1896.0,296695.40000000224,7050,NTS,A,22
2,23,test,1,B,triangle.png,1,m,Thu Feb 20 2025 16:34:10 GMT-0600 (Central Standard Time),301190.40000000224,1700,O,m,880,2,1,2595.0,298595.40000000224,7050,NTS,A,23
2,24,test,1,B,triangle.png,1,m,Thu Feb 20 2025 16:34:10 GMT-0600 (Central Standard Time),303656.5,1700,O,m,744,2,1,2462.39999999851,301194.1000000015,7050,NTS,A,24
3,1,prac,1,C,triangle.png,1,z,Thu Feb 20 2025 16:34:10 GMT-0600 (Central Standard Time),346626.40000000224,1500,O,z,1133,3,1,3427.60000000149,343198.80000000075,7050,NTS,A,1
8,1,prac,1,C,triangle.png,0,m,Thu Feb 20 2025 16:34:10 GMT-0600 (Central Standard Time),350309.6000000015,1400,O,None,1516,7,1,3677.10000000149,346632.5,7050,NTS,A,2
7,2,prac,1,C,triangle.png,1,z,Thu Feb 20 2025 16:34:10 GMT-0600 (Central Standard Time),353207.80000000075,1200,O,z,911,6,1,2893.199999999255,350314.6000000015,7050,NTS,A,3
1,2,prac,1,C,circle.png,0,z,Thu Feb 20 2025 16:34:10 GMT-0600 (Central Standard Time),357006.40000000224,1700,O,m,1304,1,1,3792.400000002235,353214.0,7050,NTS,A,4
7,2,prac,1,C,triangle.png,0,z,Thu Feb 20 2025 16:34:10 GMT-0600 (Central Standard Time),360505.80000000075,1200,O,None,1516,6,1,3494.0,357011.80000000075,7050,NTS,A,5
1,2,prac,1,C,circle.png,0,z,Thu Feb 20 2025 16:34:10 GMT-0600 (Central Standard Time),364504.30000000075,1700,O,None,1516,1,1,3993.300000000745,360511.0,7050,NTS,A,6
9,3,prac,1,C,circle.png,1,m,Thu Feb 20 2025 16:34:10 GMT-0600 (Central Standard Time),368236.5,1900,O,m,1039,8,1,3727.5,364509.0,7050,NTS,A,7
2,3,prac,1,C,triangle.png,0,m,Thu Feb 20 2025 16:34:10 GMT-0600 (Central Standard Time),371368.80000000075,1600,O,z,743,2,1,3127.10000000149,368241.69999999925,7050,NTS,A,8
9,4,prac,1,C,circle.png,1,m,Thu Feb 20 2025 16:34:10 GMT-0600 (Central Standard Time),375134.1000000015,1900,O,m,1079,8,1,3760.699999999255,371373.40000000224,7050,NTS,A,9
4,4,prac,1,C,circle.png,0,z,Thu Feb 20 2025 16:34:10 GMT-0600 (Central Standard Time),377933.19999999925,1000,O,m,1005,4,1,2794.199999999255,375139.0,7050,NTS,A,10
6,5,prac,1,C,circle.png,1,m,Thu Feb 20 2025 16:34:10 GMT-0600 (Central Standard Time),381598.90000000224,2000,O,m,878,5,1,3660.5,377938.40000000224,7050,NTS,A,11
6,6,prac,1,C,circle.png,1,m,Thu Feb 20 2025 16:34:10 GMT-0600 (Central Standard Time),385197.69999999925,2000,O,m,805,5,1,3593.7999999970198,381603.90000000224,7050,NTS,A,12
3,1,prac,2,C,triangle.png,1,z,Thu Feb 20 2025 16:34:10 GMT-0600 (Central Standard Time),394594.69999999925,1500,O,z,933,3,1,3227.7999999970198,391366.90000000224,7050,NTS,A,1
6,2,prac,2,C,circle.png,1,m,Thu Feb 20 2025 16:34:10 GMT-0600 (Central Standard Time),398060.30000000075,2000,O,m,673,5,1,3460.0,394600.30000000075,7050,NTS,A,2
8,2,prac,2,C,triangle.png,0,m,Thu Feb 20 2025 16:34:10 GMT-0600 (Central Standard Time),401442.90000000224,1400,O,z,1183,7,1,3377.60000000149,398065.30000000075,7050,NTS,A,3
2,2,prac,2,C,triangle.png,0,m,Thu Feb 20 2025 16:34:10 GMT-0600 (Central Standard Time),405341.30000000075,1600,O,None,1516,2,1,3893.800000000745,401447.5,7050,NTS,A,4
9,3,prac,2,C,circle.png,1,m,Thu Feb 20 2025 16:34:10 GMT-0600 (Central Standard Time),409190.1000000015,1900,O,m,1161,8,1,3843.60000000149,405346.5,7050,NTS,A,5
8,3,prac,2,C,triangle.png,0,m,Thu Feb 20 2025 16:34:10 GMT-0600 (Central Standard Time),412888.90000000224,1400,O,None,1515,7,1,3694.10000000149,409194.80000000075,7050,NTS,A,6
3,4,prac,2,C,triangle.png,1,z,Thu Feb 20 2025 16:34:10 GMT-0600 (Central Standard Time),416054.6000000015,1500,O,z,870,3,1,3160.800000000745,412893.80000000075,7050,NTS,A,7
4,5,prac,2,C,circle.png,1,z,Thu Feb 20 2025 16:34:10 GMT-0600 (Central Standard Time),418787.30000000075,1000,O,z,949,4,1,2727.5,416059.80000000075,7050,NTS,A,8
7,5,prac,2,C,triangle.png,0,z,Thu Feb 20 2025 16:34:10 GMT-0600 (Central Standard Time),421602.80000000075,1200,O,m,816,6,1,2810.699999999255,418792.1000000015,7050,NTS,A,9
6,6,prac,2,C,circle.png,1,m,Thu Feb 20 2025 16:34:10 GMT-0600 (Central Standard Time),425385.30000000075,2000,O,m,985,5,1,3777.699999999255,421607.6000000015,7050,NTS,A,10
9,7,prac,2,C,circle.png,1,m,Thu Feb 20 2025 16:34:10 GMT-0600 (Central Standard Time),429434.0,1900,O,m,1350,8,1,4043.599999997765,425390.40000000224,7050,NTS,A,11
1,7,prac,2,C,circle.png,0,z,Thu Feb 20 2025 16:34:10 GMT-0600 (Central Standard Time),433432.69999999925,1700,O,None,1515,1,1,3994.0,429438.69999999925,7050,NTS,A,12
7,1,test,1,C,triangle.png,1,z,Thu Feb 20 2025 16:34:10 GMT-0600 (Central Standard Time),476369.1000000015,1700,O,z,1411,22,1,3128.0,473241.1000000015,7050,NTS,A,1
8,2,test,1,C,triangle.png,1,m,Thu Feb 20 2025 16:34:10 GMT-0600 (Central Standard Time),479184.69999999925,1600,O,m,1194,23,1,2810.89999999851,476373.80000000075,7050,NTS,A,2
3,2,test,1,C,circle.png,0,z,Thu Feb 20 2025 16:34:10 GMT-0600 (Central Standard Time),482317.19999999925,1600,O,None,1516,11,1,3127.099999997765,479190.1000000015,7050,NTS,A,3
1,3,test,1,C,triangle.png,1,z,Thu Feb 20 2025 16:34:10 GMT-0600 (Central Standard Time),485383.0,1900,O,z,1146,9,1,3061.699999999255,482321.30000000075,7050,NTS,A,4
6,4,test,1,C,circle.png,1,m,Thu Feb 20 2025 16:34:10 GMT-0600 (Central Standard Time),488065.5,1900,O,m,752,5,1,2678.800000000745,485386.69999999925,7050,NTS,A,5
3,5,test,1,C,triangle.png,1,z,Thu Feb 20 2025 16:34:10 GMT-0600 (Central Standard Time),490331.30000000075,1200,O,z,1042,3,1,2261.89999999851,488069.40000000224,7050,NTS,A,6
8,6,test,1,C,triangle.png,1,m,Thu Feb 20 2025 16:34:10 GMT-0600 (Central Standard Time),493297.1000000015,1600,O,m,1336,7,1,2962.10000000149,490335.0,7050,NTS,A,7
6,7,test,1,C,triangle.png,1,m,Thu Feb 20 2025 16:34:10 GMT-0600 (Central Standard Time),495496.5,1000,O,m,1178,13,1,2195.5,493301.0,7050,NTS,A,8
9,8,test,1,C,triangle.png,1,z,Thu Feb 20 2025 16:34:10 GMT-0600 (Central Standard Time),498028.80000000075,1400,O,z,1107,16,1,2527.89999999851,495500.90000000224,7050,NTS,A,9
1,9,test,1,C,triangle.png,1,z,Thu Feb 20 2025 16:34:10 GMT-0600 (Central Standard Time),501444.6000000015,1900,O,z,1490,17,1,3412.199999999255,498032.40000000224,7050,NTS,A,10
4,9,test,1,C,triangle.png,0,m,Thu Feb 20 2025 16:34:10 GMT-0600 (Central Standard Time),504310.6000000015,1500,O,z,1339,12,1,2862.0,501448.6000000015,7050,NTS,A,11
2,10,test,1,C,triangle.png,1,m,Thu Feb 20 2025 16:34:10 GMT-0600 (Central Standard Time),507642.69999999925,2000,O,m,1309,2,1,3328.199999999255,504314.5,7050,NTS,A,12
3,11,test,1,C,circle.png,1,z,Thu Feb 20 2025 16:34:10 GMT-0600 (Central Standard Time),510275.1000000015,1600,O,z,1009,19,1,2628.60000000149,507646.5,7050,NTS,A,13
1,12,test,1,C,circle.png,1,z,Thu Feb 20 2025 16:34:10 GMT-0600 (Central Standard Time),512424.30000000075,1000,O,z,1128,1,1,2145.300000000745,510279.0,7050,NTS,A,14
7,12,test,1,C,circle.png,0,m,Thu Feb 20 2025 16:34:10 GMT-0600 (Central Standard Time),515656.90000000224,2000,O,z,1211,14,1,3228.60000000149,512428.30000000075,7050,NTS,A,15
4,13,test,1,C,triangle.png,1,m,Thu Feb 20 2025 16:34:10 GMT-0600 (Central Standard Time),518472.69999999925,1500,O,m,1286,20,1,2811.89999999851,515660.80000000075,7050,NTS,A,16
4,13,test,1,C,circle.png,0,z,Thu Feb 20 2025 16:34:10 GMT-0600 (Central Standard Time),521405.0,1400,O,None,1516,4,1,2928.39999999851,518476.6000000015,7050,NTS,A,17
7,13,test,1,C,triangle.png,0,z,Thu Feb 20 2025 16:34:10 GMT-0600 (Central Standard Time),524037.5,1700,O,m,906,6,1,2628.5,521409.0,7050,NTS,A,18
8,14,test,1,C,circle.png,1,m,Thu Feb 20 2025 16:34:10 GMT-0600 (Central Standard Time),526186.8000000007,1200,O,m,917,15,1,2143.800000000745,524043.0,7050,NTS,A,19
9,14,test,1,C,circle.png,0,m,Thu Feb 20 2025 16:34:10 GMT-0600 (Central Standard Time),529019.3000000007,1500,O,z,1300,24,1,2828.699999999255,526190.6000000015,7050,NTS,A,20
6,15,test,1,C,circle.png,1,m,Thu Feb 20 2025 16:34:10 GMT-0600 (Central Standard Time),531984.9000000022,1900,O,m,1036,21,1,2961.7000000029802,529023.1999999993,7050,NTS,A,21
9,16,test,1,C,circle.png,1,m,Thu Feb 20 2025 16:34:10 GMT-0600 (Central Standard Time),534517.8000000007,1500,O,m,1014,8,1,2529.300000000745,531988.5,7050,NTS,A,22
2,16,test,1,C,circle.png,0,z,Thu Feb 20 2025 16:34:10 GMT-0600 (Central Standard Time),537749.9000000022,1700,O,None,1516,10,1,3228.5,534521.4000000022,7050,NTS,A,23
2,16,test,1,C,circle.png,0,z,Thu Feb 20 2025 16:34:10 GMT-0600 (Central Standard Time),540482.3000000007,1700,O,m,1001,18,1,2728.699999999255,537753.6000000015,7050,NTS,A,24
3,0,test,2,C,circle.png,0,z,Thu Feb 20 2025 16:34:10 GMT-0600 (Central Standard Time),603629.5,1600,O,None,1515,19,1,3129.0,600500.5,7050,NTS,A,1
8,0,test,2,C,circle.png,0,m,Thu Feb 20 2025 16:34:10 GMT-0600 (Central Standard Time),606362.1000000015,1200,O,None,1516,15,1,2728.800000000745,603633.3000000007,7050,NTS,A,2
7,0,test,2,C,circle.png,0,m,Thu Feb 20 2025 16:34:10 GMT-0600 (Central Standard Time),609894.1000000015,2000,O,None,1516,14,1,3528.60000000149,606365.5,7050,NTS,A,3
6,0,test,2,C,triangle.png,0,m,Thu Feb 20 2025 16:34:10 GMT-0600 (Central Standard Time),612426.6999999993,1000,O,None,1516,21,1,2528.7999999970198,609897.9000000022,7050,NTS,A,4
8,1,test,2,C,triangle.png,1,m,Thu Feb 20 2025 16:34:10 GMT-0600 (Central Standard Time),615226.0,1600,O,m,1177,7,1,2795.39999999851,612430.6000000015,7050,NTS,A,5
3,2,test,2,C,circle.png,1,z,Thu Feb 20 2025 16:34:10 GMT-0600 (Central Standard Time),618124.9000000022,1600,O,z,1274,11,1,2895.300000000745,615229.6000000015,7050,NTS,A,6
6,3,test,2,C,triangle.png,1,m,Thu Feb 20 2025 16:34:10 GMT-0600 (Central Standard Time),620325.1000000015,1000,O,m,1166,13,1,2196.400000002235,618128.6999999993,7050,NTS,A,7
9,3,test,2,C,circle.png,0,m,Thu Feb 20 2025 16:34:10 GMT-0600 (Central Standard Time),623356.5,1500,O,None,1515,8,1,3028.0,620328.5,7050,NTS,A,8
8,4,test,2,C,circle.png,1,m,Thu Feb 20 2025 16:34:10 GMT-0600 (Central Standard Time),625705.9000000022,1200,O,m,1119,23,1,2345.60000000149,623360.3000000007,7050,NTS,A,9
4,4,test,2,C,circle.png,0,z,Thu Feb 20 2025 16:34:10 GMT-0600 (Central Standard Time),628638.1999999993,1400,O,None,1515,4,1,2928.599999997765,625709.6000000015,7050,NTS,A,10
1,5,test,2,C,circle.png,1,z,Thu Feb 20 2025 16:34:10 GMT-0600 (Central Standard Time),630704.1999999993,1000,O,z,1045,1,1,2062.199999999255,628642.0,7050,NTS,A,11
9,6,test,2,C,triangle.png,1,z,Thu Feb 20 2025 16:34:10 GMT-0600 (Central Standard Time),633519.9000000022,1400,O,z,1395,16,1,2811.7000000029802,630708.1999999993,7050,NTS,A,12
2,7,test,2,C,circle.png,1,z,Thu Feb 20 2025 16:34:10 GMT-0600 (Central Standard Time),636635.8000000007,1700,O,z,1383,10,1,3112.10000000149,633523.6999999993,7050,NTS,A,13
4,8,test,2,C,triangle.png,1,m,Thu Feb 20 2025 16:34:10 GMT-0600 (Central Standard Time),638784.9000000022,1500,O,m,620,12,1,2145.5,636639.4000000022,7050,NTS,A,14
4,9,test,2,C,triangle.png,1,m,Thu Feb 20 2025 16:34:10 GMT-0600 (Central Standard Time),641017.6000000015,1500,O,m,710,20,1,2228.5,638789.1000000015,7050,NTS,A,15
1,10,test,2,C,triangle.png,1,z,Thu Feb 20 2025 16:34:10 GMT-0600 (Central Standard Time),644283.3000000007,1900,O,z,1334,17,1,3261.89999999851,641021.4000000022,7050,NTS,A,16
3,11,test,2,C,triangle.png,1,z,Thu Feb 20 2025 16:34:10 GMT-0600 (Central Standard Time),646833.6999999993,1200,O,z,1328,3,1,2546.39999999851,644287.3000000007,7050,NTS,A,17
7,11,test,2,C,circle.png,0,m,Thu Feb 20 2025 16:34:10 GMT-0600 (Central Standard Time),650364.6000000015,2000,O,None,1516,22,1,3527.400000002235,646837.1999999993,7050,NTS,A,18
2,12,test,2,C,circle.png,1,z,Thu Feb 20 2025 16:34:10 GMT-0600 (Central Standard Time),653530.6000000015,1700,O,z,1443,18,1,3162.10000000149,650368.5,7050,NTS,A,19
1,13,test,2,C,triangle.png,1,z,Thu Feb 20 2025 16:34:10 GMT-0600 (Central Standard Time),656732.3000000007,1900,O,z,1285,9,1,3197.800000000745,653534.5,7050,NTS,A,20
2,14,test,2,C,triangle.png,1,m,Thu Feb 20 2025 16:34:10 GMT-0600 (Central Standard Time),660244.8000000007,2000,O,m,1498,2,1,3508.300000000745,656736.5,7050,NTS,A,21
9,14,test,2,C,triangle.png,0,z,Thu Feb 20 2025 16:34:10 GMT-0600 (Central Standard Time),663177.1999999993,1400,O,None,1515,24,1,2928.599999997765,660248.6000000015,7050,NTS,A,22
6,15,test,2,C,circle.png,1,m,Thu Feb 20 2025 16:34:10 GMT-0600 (Central Standard Time),666126.5,1900,O,m,1022,5,1,2945.89999999851,663180.6000000015,7050,NTS,A,23
7,16,test,2,C,triangle.png,1,z,Thu Feb 20 2025 16:34:10 GMT-0600 (Central Standard Time),669258.9000000022,1700,O,z,1409,6,1,3128.5,666130.4000000022,7050,NTS,A,24
1,0,test,3,C,triangle.png,0,z,Thu Feb 20 2025 16:34:10 GMT-0600 (Central Standard Time),700032.6999999993,1900,O,None,1516,9,1,3429.2999999970198,696603.4000000022,7050,NTS,A,1
8,1,test,3,C,triangle.png,1,m,Thu Feb 20 2025 16:34:10 GMT-0600 (Central Standard Time),702798.3000000007,1600,O,m,1146,7,1,2761.300000000745,700037.0,7050,NTS,A,2
4,1,test,3,C,circle.png,0,z,Thu Feb 20 2025 16:34:10 GMT-0600 (Central Standard Time),705730.9000000022,1400,O,None,1516,4,1,2928.900000002235,702802.0,7050,NTS,A,3
2,1,test,3,C,circle.png,0,z,Thu Feb 20 2025 16:34:10 GMT-0600 (Central Standard Time),708962.9000000022,1700,O,None,1515,10,1,3228.300000000745,705734.6000000015,7050,NTS,A,4
6,2,test,3,C,circle.png,1,m,Thu Feb 20 2025 16:34:10 GMT-0600 (Central Standard Time),712146.5,1900,O,m,1252,5,1,3179.800000000745,708966.6999999993,7050,NTS,A,5
3,2,test,3,C,triangle.png,0,z,Thu Feb 20 2025 16:34:10 GMT-0600 (Central Standard Time),714878.0,1200,O,None,1516,19,1,2727.5,712150.5,7050,NTS,A,6
3,2,test,3,C,triangle.png,0,z,Thu Feb 20 2025 16:34:10 GMT-0600 (Central Standard Time),717610.6000000015,1200,O,None,1516,3,1,2728.60000000149,714882.0,7050,NTS,A,7
9,2,test,3,C,triangle.png,0,z,Thu Feb 20 2025 16:34:10 GMT-0600 (Central Standard Time),720493.0,1400,O,m,1457,16,1,2878.5,717614.5,7050,NTS,A,8
1,2,test,3,C,circle.png,0,z,Thu Feb 20 2025 16:34:10 GMT-0600 (Central Standard Time),723025.5,1000,O,None,1516,17,1,2528.5,720497.0,7050,NTS,A,9
6,2,test,3,C,triangle.png,0,m,Thu Feb 20 2025 16:34:10 GMT-0600 (Central Standard Time),725558.1000000015,1000,O,None,1516,13,1,2528.800000000745,723029.3000000007,7050,NTS,A,10
8,3,test,3,C,triangle.png,1,m,Thu Feb 20 2025 16:34:10 GMT-0600 (Central Standard Time),728307.0,1600,O,m,1084,23,1,2745.39999999851,725561.6000000015,7050,NTS,A,11
3,3,test,3,C,circle.png,0,z,Thu Feb 20 2025 16:34:10 GMT-0600 (Central Standard Time),731439.5,1600,O,None,1515,11,1,3128.699999999255,728310.8000000007,7050,NTS,A,12
2,3,test,3,C,triangle.png,0,m,Thu Feb 20 2025 16:34:10 GMT-0600 (Central Standard Time),734971.8000000007,2000,O,None,1516,18,1,3528.60000000149,731443.1999999993,7050,NTS,A,13
4,3,test,3,C,triangle.png,0,m,Thu Feb 20 2025 16:34:10 GMT-0600 (Central Standard Time),738004.0,1500,O,None,1516,12,1,3027.300000000745,734976.6999999993,7050,NTS,A,14
7,3,test,3,C,circle.png,0,m,Thu Feb 20 2025 16:34:10 GMT-0600 (Central Standard Time),741536.4000000022,2000,O,None,1515,14,1,3528.2000000029802,738008.1999999993,7050,NTS,A,15
1,3,test,3,C,circle.png,0,z,Thu Feb 20 2025 16:34:10 GMT-0600 (Central Standard Time),744068.8000000007,1000,O,None,1516,1,1,2528.300000000745,741540.5,7050,NTS,A,16
7,3,test,3,C,triangle.png,0,z,Thu Feb 20 2025 16:34:10 GMT-0600 (Central Standard Time),746684.6999999993,1700,O,m,890,6,1,2612.0,744072.6999999993,7050,NTS,A,17
8,4,test,3,C,circle.png,1,m,Thu Feb 20 2025 16:34:10 GMT-0600 (Central Standard Time),749167.1999999993,1200,O,m,1254,15,1,2478.39999999851,746688.8000000007,7050,NTS,A,18
4,4,test,3,C,circle.png,0,z,Thu Feb 20 2025 16:34:10 GMT-0600 (Central Standard Time),751883.1999999993,1400,O,m,1284,20,1,2711.0,749172.1999999993,7050,NTS,A,19
6,5,test,3,C,circle.png,1,m,Thu Feb 20 2025 16:34:10 GMT-0600 (Central Standard Time),754732.0,1900,O,m,916,21,1,2845.099999997765,751886.9000000022,7050,NTS,A,20
7,5,test,3,C,triangle.png,0,z,Thu Feb 20 2025 16:34:10 GMT-0600 (Central Standard Time),757964.4000000022,1700,O,None,1515,22,1,3228.400000002235,754736.0,7050,NTS,A,21
2,5,test,3,C,triangle.png,0,m,Thu Feb 20 2025 16:34:10 GMT-0600 (Central Standard Time),761497.9000000022,2000,O,None,1517,2,1,3529.7000000029802,757968.1999999993,7050,NTS,A,22
9,5,test,3,C,circle.png,0,m,Thu Feb 20 2025 16:34:10 GMT-0600 (Central Standard Time),764529.0,1500,O,None,1516,8,1,3027.300000000745,761501.6999999993,7050,NTS,A,23
9,5,test,3,C,circle.png,0,m,Thu Feb 20 2025 16:34:10 GMT-0600 (Central Standard Time),767561.5,1500,O,None,1515,24,1,3028.699999999255,764532.8000000007,7050,NTS,A,24
3,0,test,4,C,triangle.png,0,z,Thu Feb 20 2025 16:34:10 GMT-0600 (Central Standard Time),793903.1999999993,1200,O,None,1516,19,1,2729.099999997765,791174.1000000015,7050,NTS,A,1
1,0,test,4,C,circle.png,0,z,Thu Feb 20 2025 16:34:10 GMT-0600 (Central Standard Time),796436.0,1000,O,None,1516,1,1,2527.0,793909.0,7050,NTS,A,2
7,0,test,4,C,circle.png,0,m,Thu Feb 20 2025 16:34:10 GMT-0600 (Central Standard Time),799968.1999999993,2000,O,None,1516,14,1,3528.5,796439.6999999993,7050,NTS,A,3
2,0,test,4,C,circle.png,0,z,Thu Feb 20 2025 16:34:10 GMT-0600 (Central Standard Time),803200.1999999993,1700,O,None,1516,10,1,3227.699999999255,799972.5,7050,NTS,A,4
6,1,test,4,C,circle.png,1,m,Thu Feb 20 2025 16:34:10 GMT-0600 (Central Standard Time),805932.5,1900,O,m,815,5,1,2728.599999997765,803203.9000000022,7050,NTS,A,5
7,1,test,4,C,triangle.png,0,z,Thu Feb 20 2025 16:34:10 GMT-0600 (Central Standard Time),809165.1999999993,1700,O,None,1516,6,1,3228.7999999970198,805936.4000000022,7050,NTS,A,6
9,2,test,4,C,circle.png,1,m,Thu Feb 20 2025 16:34:10 GMT-0600 (Central Standard Time),811780.8000000007,1500,O,m,1090,8,1,2611.60000000149,809169.1999999993,7050,NTS,A,7
1,2,test,4,C,circle.png,0,z,Thu Feb 20 2025 16:34:10 GMT-0600 (Central Standard Time),814313.4000000022,1000,O,None,1515,17,1,2529.10000000149,811784.3000000007,7050,NTS,A,8
6,3,test,4,C,circle.png,1,m,Thu Feb 20 2025 16:34:10 GMT-0600 (Central Standard Time),817096.0,1900,O,m,862,21,1,2779.099999997765,814316.9000000022,7050,NTS,A,9
2,3,test,4,C,triangle.png,0,m,Thu Feb 20 2025 16:34:10 GMT-0600 (Central Standard Time),820628.1999999993,2000,O,None,1515,2,1,3528.2999999970198,817099.9000000022,7050,NTS,A,10
4,3,test,4,C,circle.png,0,z,Thu Feb 20 2025 16:34:10 GMT-0600 (Central Standard Time),823560.8000000007,1400,O,None,1516,4,1,2928.800000000745,820632.0,7050,NTS,A,11
6,4,test,4,C,triangle.png,1,m,Thu Feb 20 2025 16:34:10 GMT-0600 (Central Standard Time),825626.5,1000,O,m,1042,13,1,2061.89999999851,823564.6000000015,7050,NTS,A,12
8,4,test,4,C,triangle.png,0,m,Thu Feb 20 2025 16:34:10 GMT-0600 (Central Standard Time),828759.1000000015,1600,O,None,1516,7,1,3128.800000000745,825630.3000000007,7050,NTS,A,13
1,4,test,4,C,triangle.png,0,z,Thu Feb 20 2025 16:34:10 GMT-0600 (Central Standard Time),832191.3000000007,1900,O,None,1515,9,1,3428.60000000149,828762.6999999993,7050,NTS,A,14
3,4,test,4,C,triangle.png,0,z,Thu Feb 20 2025 16:34:10 GMT-0600 (Central Standard Time),834923.9000000022,1200,O,None,1516,3,1,2729.0,832194.9000000022,7050,NTS,A,15
8,5,test,4,C,triangle.png,1,m,Thu Feb 20 2025 16:34:10 GMT-0600 (Central Standard Time),837806.1000000015,1600,O,m,1264,23,1,2878.699999999255,834927.4000000022,7050,NTS,A,16
3,5,test,4,C,circle.png,0,z,Thu Feb 20 2025 16:34:10 GMT-0600 (Central Standard Time),840938.4000000022,1600,O,None,1515,11,1,3128.300000000745,837810.1000000015,7050,NTS,A,17
4,5,test,4,C,triangle.png,0,m,Thu Feb 20 2025 16:34:10 GMT-0600 (Central Standard Time),843970.9000000022,1500,O,None,1516,12,1,3028.60000000149,840942.3000000007,7050,NTS,A,18
7,5,test,4,C,triangle.png,0,z,Thu Feb 20 2025 16:34:10 GMT-0600 (Central Standard Time),847203.3000000007,1700,O,None,1515,22,1,3228.89999999851,843974.4000000022,7050,NTS,A,19
2,6,test,4,C,triangle.png,1,m,Thu Feb 20 2025 16:34:10 GMT-0600 (Central Standard Time),850435.6000000015,2000,O,m,1208,18,1,3228.300000000745,847207.3000000007,7050,NTS,A,20
4,6,test,4,C,circle.png,0,z,Thu Feb 20 2025 16:34:10 GMT-0600 (Central Standard Time),853368.3000000007,1400,O,None,1516,20,1,2929.0,850439.3000000007,7050,NTS,A,21
9,6,test,4,C,triangle.png,0,z,Thu Feb 20 2025 16:34:10 GMT-0600 (Central Standard Time),856183.8000000007,1400,O,m,1395,16,1,2811.800000000745,853372.0,7050,NTS,A,22
9,6,test,4,C,circle.png,0,m,Thu Feb 20 2025 16:34:10 GMT-0600 (Central Standard Time),859216.0,1500,O,None,1515,24,1,3028.300000000745,856187.6999999993,7050,NTS,A,23
8,7,test,4,C,circle.png,1,m,Thu Feb 20 2025 16:34:10 GMT-0600 (Central Standard Time),861615.4000000022,1200,O,m,1179,15,1,2395.60000000149,859219.8000000007,7050,NTS,A,24
