acc_sum,block,block_c,condition,correct,correct_response,datetime,endtime,flanker,jitter,project,response,response_test_buffer_response,response_test_target_response,response_time,response_time_test_buffer_response,response_time_test_target_response,row_sel,session_number,start_end,starttime,subject_id,target,task,task_vers,time_test_buffer,time_test_buffer_response,time_test_constants,time_test_flanker,time_test_jitter,time_test_logger,time_test_target,time_test_target_response,time_test_variables,trial
1,prac,1,con,1,z,Mon Feb 03 2025 13:15:24 GMT-0600 (Central Standard Time),158792.5,orange,1000,I,z,,,316,,,3,1,2628.100000000093,156164.3999999999,8026,orange,NF,C,,,,,,,,,,1
1,prac,1,inc,0,z,Mon Feb 03 2025 13:15:24 GMT-0600 (Central Standard Time),161125.3999999999,copper,900,I,m,,,128,,,2,1,2328.100000000093,158797.2999999998,8026,cherry,NF,C,,,,,,,,,,2
2,prac,1,inc,1,m,Mon Feb 03 2025 13:15:24 GMT-0600 (Central Standard Time),164240.7999999998,plum,1100,I,m,,,715,,,16,1,3110.600000000093,161130.19999999972,8026,lead,NF,C,,,,,,,,,,3
3,prac,1,con,1,z,Mon Feb 03 2025 13:15:24 GMT-0600 (Central Standard Time),166890.19999999972,lime,800,I,z,,,547,,,5,1,2644.7999999998137,164245.3999999999,8026,lime,NF,C,,,,,,,,,,4
4,prac,1,con,1,z,Mon Feb 03 2025 13:15:24 GMT-0600 (Central Standard Time),169472.5,banana,800,I,z,,,474,,,1,1,2577.600000000093,166894.8999999999,8026,banana,NF,C,,,,,,,,,,5
5,prac,1,con,1,z,Mon Feb 03 2025 13:15:24 GMT-0600 (Central Standard Time),171838.5,kiwi,1000,I,z,,,51,,,7,1,2361.5,169477.0,8026,kiwi,NF,C,,,,,,,,,,6
6,prac,1,inc,1,m,Mon Feb 03 2025 13:15:24 GMT-0600 (Central Standard Time),174421.2999999998,pear,900,I,m,,,369,,,14,1,2578.7999999998137,171842.5,8026,iron,NF,C,,,,,,,,,,7
7,prac,1,inc,1,m,Mon Feb 03 2025 13:15:24 GMT-0600 (Central Standard Time),177186.7999999998,cherry,900,I,m,,,563,,,10,1,2760.600000000093,174426.19999999972,8026,copper,NF,C,,,,,,,,,,8
8,prac,1,inc,1,m,Mon Feb 03 2025 13:15:24 GMT-0600 (Central Standard Time),180169.2999999998,raisin,1100,I,m,,,573,,,12,1,2978.2999999998137,177191.0,8026,cobalt,NF,C,,,,,,,,,,9
9,prac,1,inc,1,z,Mon Feb 03 2025 13:15:24 GMT-0600 (Central Standard Time),183118.5,cobalt,1100,I,z,,,543,,,4,1,2944.7000000001863,180173.7999999998,8026,raisin,NF,C,,,,,,,,,,10
10,prac,1,con,1,m,Mon Feb 03 2025 13:15:24 GMT-0600 (Central Standard Time),185634.3999999999,bronze,800,I,m,,,413,,,9,1,2511.3000000002794,183123.09999999963,8026,bronze,NF,C,,,,,,,,,,11
11,prac,1,con,1,m,Mon Feb 03 2025 13:15:24 GMT-0600 (Central Standard Time),188433.3999999999,silver,1000,I,m,,,490,,,11,1,2794.8000000002794,185638.59999999963,8026,silver,NF,C,,,,,,,,,,12
12,prac,1,con,1,m,Mon Feb 03 2025 13:15:24 GMT-0600 (Central Standard Time),190982.5,gold,800,I,m,,,434,,,13,1,2545.0,188437.5,8026,gold,NF,C,,,,,,,,,,13
13,prac,1,con,1,m,Mon Feb 03 2025 13:15:24 GMT-0600 (Central Standard Time),193748.19999999972,zinc,1000,I,m,,,453,,,15,1,2761.899999999907,190986.2999999998,8026,zinc,NF,C,,,,,,,,,,14
14,prac,1,inc,1,z,Mon Feb 03 2025 13:15:24 GMT-0600 (Central Standard Time),196597.5,lead,1100,I,z,,,444,,,8,1,2844.9000000003725,193752.59999999963,8026,plum,NF,C,,,,,,,,,,15
15,prac,1,inc,1,z,Mon Feb 03 2025 13:15:24 GMT-0600 (Central Standard Time),199330.09999999963,iron,900,I,z,,,522,,,6,1,2728.5999999996275,196601.5,8026,pear,NF,C,,,,,,,,,,16
1,test,1,inc,1,z,Mon Feb 03 2025 13:15:24 GMT-0600 (Central Standard Time),224538.69999999972,iron,900,I,z,z,None,607,408.0,199.0,38,1,2046.0,222492.69999999972,8026,lime,NF,C,215822,215822,214193,215107,214194,216239,215623,215623,216239,1
2,test,1,con,1,z,Mon Feb 03 2025 13:15:24 GMT-0600 (Central Standard Time),226321.3999999999,banana,800,I,z,z,None,433,234.0,199.0,1,1,1778.1000000000931,224543.2999999998,8026,banana,NF,C,217772,217772,216243,217056,216245,218021,217573,217573,218021,2
3,test,1,con,1,z,Mon Feb 03 2025 13:15:24 GMT-0600 (Central Standard Time),228287.3999999999,pear,1000,I,z,z,None,417,218.0,199.0,43,1,1961.8000000002794,226325.59999999963,8026,pear,NF,C,219756,219756,218026,219039,218027,219987,219556,219556,219987,3
4,test,1,con,1,z,Mon Feb 03 2025 13:15:24 GMT-0600 (Central Standard Time),230237.0,kiwi,1000,I,z,z,None,404,189.0,215.0,51,1,1945.8000000002794,228291.19999999972,8026,kiwi,NF,C,221737,221737,219991,221005,219993,221937,221522,221522,221937,4
5,test,1,inc,1,z,Mon Feb 03 2025 13:15:24 GMT-0600 (Central Standard Time),232186.3999999999,iron,900,I,z,z,None,499,300.0,199.0,62,1,1945.3000000002794,230241.09999999963,8026,plum,NF,C,223570,223570,221941,222854,221943,223887,223371,223371,223886,5
6,test,1,inc,1,m,Mon Feb 03 2025 13:15:24 GMT-0600 (Central Standard Time),234135.69999999972,pear,900,I,m,m,None,510,311.0,199.0,102,1,1945.3999999999069,232190.2999999998,8026,gold,NF,C,225519,225519,223890,224803,223892,225836,225320,225320,225836,6
7,test,1,inc,1,z,Mon Feb 03 2025 13:15:24 GMT-0600 (Central Standard Time),236068.2999999998,copper,900,I,z,z,None,488,289.0,199.0,14,1,1928.7999999998137,234139.5,8026,cherry,NF,C,227469,227469,225840,226753,225841,227768,227270,227270,227768,7
8,test,1,con,1,m,Mon Feb 03 2025 13:15:24 GMT-0600 (Central Standard Time),238201.0,copper,1100,I,m,m,None,483,268.0,215.0,76,1,2128.5,236072.5,8026,copper,NF,C,229618,229618,227773,228886,227774,229901,229402,229403,229901,8
9,test,1,inc,1,z,Mon Feb 03 2025 13:15:24 GMT-0600 (Central Standard Time),240383.69999999972,cobalt,1100,I,z,z,None,504,294.0,210.0,24,1,2178.600000000093,238205.09999999963,8026,orange,NF,C,231784,231784,229905,231019,229907,232084,231574,231574,232084,9
10,test,1,inc,1,z,Mon Feb 03 2025 13:15:24 GMT-0600 (Central Standard Time),242449.69999999972,lead,1100,I,z,z,None,416,217.0,199.0,56,1,2062.1999999997206,240387.5,8026,kiwi,NF,C,233917,233917,232088,233201,232089,234150,233718,233718,234150,10
11,test,1,con,1,z,Mon Feb 03 2025 13:15:24 GMT-0600 (Central Standard Time),244232.3999999999,lime,900,I,z,z,None,342,127.0,215.0,34,1,1778.3999999999069,242454.0,8026,lime,NF,C,235799,235799,234154,235067,234156,235932,235584,235584,235932,11
12,test,1,inc,1,m,Mon Feb 03 2025 13:15:24 GMT-0600 (Central Standard Time),246215.09999999963,kiwi,1000,I,m,m,None,443,228.0,215.0,103,1,1978.5999999996275,244236.5,8026,gold,NF,C,237682,237682,235937,236950,235938,237915,237467,237467,237915,12
13,test,1,inc,1,z,Mon Feb 03 2025 13:15:24 GMT-0600 (Central Standard Time),248014.69999999972,gold,800,I,z,z,None,452,237.0,215.0,37,1,1795.3999999999069,246219.2999999998,8026,lime,NF,C,239465,239465,237919,238733,237921,239715,239250,239250,239715,13
14,test,1,con,1,z,Mon Feb 03 2025 13:15:24 GMT-0600 (Central Standard Time),249964.0,kiwi,900,I,z,z,None,513,298.0,215.0,50,1,1945.2000000001863,248018.7999999998,8026,kiwi,NF,C,241364,241364,239719,240632,239720,241664,241149,241149,241664,14
15,test,1,inc,1,m,Mon Feb 03 2025 13:15:24 GMT-0600 (Central Standard Time),251846.59999999963,lime,800,I,m,m,None,544,345.0,199.0,117,1,1878.6999999997206,249967.8999999999,8026,zinc,NF,C,243197,243197,241668,242481,241669,243547,242998,242998,243547,15
16,test,1,con,1,m,Mon Feb 03 2025 13:15:24 GMT-0600 (Central Standard Time),253612.8999999999,silver,800,I,m,m,None,428,213.0,215.0,81,1,1762.7000000001863,251850.19999999972,8026,silver,NF,C,245097,245097,243550,244364,243552,245313,244881,244881,245313,16
17,test,1,inc,1,z,Mon Feb 03 2025 13:15:24 GMT-0600 (Central Standard Time),255645.69999999972,zinc,1000,I,z,z,None,487,288.0,199.0,63,1,2028.6000000000931,253617.09999999963,8026,plum,NF,C,247046,247046,245317,246330,245318,247346,246847,246847,247346,17
18,test,1,con,1,z,Mon Feb 03 2025 13:15:24 GMT-0600 (Central Standard Time),257794.8999999999,banana,1000,I,z,z,None,605,406.0,199.0,3,1,2145.100000000093,255649.7999999998,8026,banana,NF,C,249080,249080,247350,248363,247351,249495,248880,248880,249495,18
19,test,1,con,1,m,Mon Feb 03 2025 13:15:24 GMT-0600 (Central Standard Time),259594.19999999972,bronze,900,I,m,m,None,350,151.0,199.0,66,1,1795.2999999998137,257798.8999999999,8026,bronze,NF,C,251128,251128,249499,250413,249500,251294,250929,250929,251294,19
20,test,1,inc,1,z,Mon Feb 03 2025 13:15:24 GMT-0600 (Central Standard Time),261560.2999999998,copper,900,I,z,z,None,517,302.0,215.0,6,1,1961.6000000000931,259598.69999999972,8026,banana,NF,C,252944,252944,251299,252212,251300,253260,252728,252729,253260,20
21,test,1,con,1,z,Mon Feb 03 2025 13:15:24 GMT-0600 (Central Standard Time),263429.7999999998,lime,800,I,z,z,None,388,173.0,215.0,33,1,1865.3999999999069,261564.3999999999,8026,lime,NF,C,254810,254810,253264,254078,253266,255130,254595,254595,255130,21
22,test,1,inc,1,m,Mon Feb 03 2025 13:15:24 GMT-0600 (Central Standard Time),265575.6999999997,raisin,1100,I,m,m,None,501,286.0,215.0,72,1,2140.100000000093,263435.5999999996,8026,bronze,NF,C,256976,256976,255136,256244,255139,257276,256761,256761,257276,22
23,test,1,con,1,m,Mon Feb 03 2025 13:15:24 GMT-0600 (Central Standard Time),267425.5,lead,900,I,m,m,None,400,201.0,199.0,122,1,1845.7000000001863,265579.7999999998,8026,lead,NF,C,258909,258909,257280,258193,257281,259126,258710,258710,259125,23
24,test,1,con,1,z,Mon Feb 03 2025 13:15:24 GMT-0600 (Central Standard Time),269508.0,kiwi,1100,I,z,z,None,447,248.0,199.0,52,1,2078.600000000093,267429.3999999999,8026,kiwi,NF,C,260958,260958,259129,260242,259131,261208,260759,260759,261208,24
25,test,1,con,1,z,Mon Feb 03 2025 13:15:24 GMT-0600 (Central Standard Time),271340.7999999998,banana,900,I,z,z,None,396,197.0,199.0,2,1,1828.8999999999069,269511.8999999999,8026,banana,NF,C,262841,262841,261212,262127,261213,263041,262642,262642,263041,25
26,test,1,con,1,z,Mon Feb 03 2025 13:15:24 GMT-0600 (Central Standard Time),273141.0999999996,plum,900,I,z,z,None,362,147.0,215.0,58,1,1796.5,271344.5999999996,8026,plum,NF,C,264691,264691,263045,263958,263046,264841,264475,264475,264841,26
27,test,1,inc,1,m,Mon Feb 03 2025 13:15:24 GMT-0600 (Central Standard Time),275072.7999999998,pear,900,I,m,m,None,493,293.0,200.0,126,1,1927.7999999998137,273145.0,8026,lead,NF,C,266473,266473,264845,265757,264846,266773,266273,266273,266773,27
28,test,1,inc,1,z,Mon Feb 03 2025 13:15:24 GMT-0600 (Central Standard Time),277138.6999999997,zinc,1000,I,z,z,None,531,332.0,199.0,39,1,2061.899999999907,275076.7999999998,8026,lime,NF,C,268506,268506,266777,267790,266778,268839,268307,268307,268839,28
29,test,1,con,1,z,Mon Feb 03 2025 13:15:24 GMT-0600 (Central Standard Time),278988.1999999997,pear,800,I,z,z,None,513,314.0,199.0,41,1,1845.8999999999069,277142.2999999998,8026,pear,NF,C,270372,270372,268842,269656,268844,270688,270173,270173,270688,29
30,test,1,con,1,z,Mon Feb 03 2025 13:15:24 GMT-0600 (Central Standard Time),280971.0,cherry,1000,I,z,z,None,438,224.0,214.0,11,1,1978.9000000003725,278992.0999999996,8026,cherry,NF,C,272438,272438,270692,271706,270694,272671,272224,272224,272671,30
31,test,1,con,1,m,Mon Feb 03 2025 13:15:24 GMT-0600 (Central Standard Time),282986.8999999999,gold,1100,I,m,m,None,381,182.0,199.0,100,1,2012.0,280974.8999999999,8026,gold,NF,C,274504,274504,272675,273788,272676,274687,274305,274305,274687,31
32,test,1,con,1,m,Mon Feb 03 2025 13:15:24 GMT-0600 (Central Standard Time),284836.2999999998,silver,900,I,m,m,None,413,214.0,199.0,82,1,1845.7000000001863,282990.5999999996,8026,silver,NF,C,276320,276320,274691,275604,274692,276537,276121,276121,276536,32
33,test,1,inc,1,m,Mon Feb 03 2025 13:15:24 GMT-0600 (Central Standard Time),286947.1999999997,cherry,900,I,m,m,None,676,461.0,215.0,78,1,2107.1999999997206,284840.0,8026,copper,NF,C,278186,278186,276540,277454,276541,278647,277971,277971,278647,33
34,test,1,con,1,m,Mon Feb 03 2025 13:15:24 GMT-0600 (Central Standard Time),288918.5,gold,800,I,m,m,None,619,404.0,215.0,97,1,1966.8000000002794,286951.6999999997,8026,gold,NF,C,280202,280202,278652,279470,278653,280619,279987,279987,280618,34
35,test,1,inc,1,z,Mon Feb 03 2025 13:15:24 GMT-0600 (Central Standard Time),290984.5,cobalt,1100,I,z,z,None,417,202.0,215.0,16,1,2062.3000000002794,288922.1999999997,8026,cherry,NF,C,282468,282468,280622,281736,280624,282685,282253,282253,282685,35
36,test,1,inc,1,m,Mon Feb 03 2025 13:15:24 GMT-0600 (Central Standard Time),292967.1999999997,kiwi,1000,I,m,m,None,443,228.0,215.0,119,1,1978.6000000000931,290988.5999999996,8026,zinc,NF,C,284434,284434,282689,283702,282690,284667,284219,284219,284667,36
37,test,1,con,1,m,Mon Feb 03 2025 13:15:24 GMT-0600 (Central Standard Time),295166.5,bronze,1000,I,m,m,None,661,462.0,199.0,67,1,2195.7000000001863,292970.7999999998,8026,bronze,NF,C,286400,286400,284671,285685,284672,286867,286201,286201,286867,37
38,test,1,inc,1,m,Mon Feb 03 2025 13:15:24 GMT-0600 (Central Standard Time),297216.0,kiwi,1000,I,m,m,None,509,294.0,215.0,127,1,2045.6000000000931,295170.3999999999,8026,lead,NF,C,288616,288616,286870,287884,286872,288916,288401,288401,288916,38
39,test,1,con,1,m,Mon Feb 03 2025 13:15:24 GMT-0600 (Central Standard Time),298932.0999999996,copper,800,I,m,m,None,372,173.0,199.0,73,1,1712.0999999996275,297220.0,8026,copper,NF,C,290449,290449,288920,289733,288921,290632,290250,290250,290632,39
40,test,1,inc,1,z,Mon Feb 03 2025 13:15:24 GMT-0600 (Central Standard Time),301114.6999999997,lead,1100,I,z,z,None,540,341.0,199.0,64,1,2178.2999999998137,298936.3999999999,8026,plum,NF,C,292465,292465,290636,291749,290638,292815,292266,292266,292815,40
41,test,1,con,1,z,Mon Feb 03 2025 13:15:24 GMT-0600 (Central Standard Time),302964.0999999996,orange,800,I,z,z,None,505,306.0,199.0,17,1,1845.5,301118.5999999996,8026,orange,NF,C,294348,294348,292819,293632,292820,294664,294149,294149,294664,41
42,test,1,inc,1,z,Mon Feb 03 2025 13:15:24 GMT-0600 (Central Standard Time),305063.3999999999,silver,1000,I,z,z,None,552,353.0,199.0,15,1,2095.5,302967.8999999999,8026,cherry,NF,C,296397,296397,294668,295681,294669,296764,296198,296198,296763,42
43,test,1,inc,1,z,Mon Feb 03 2025 13:15:24 GMT-0600 (Central Standard Time),307262.7999999998,cobalt,1100,I,z,z,None,560,345.0,215.0,8,1,2195.600000000093,305067.1999999997,8026,banana,NF,C,298613,298613,296767,297881,296769,298963,298397,298398,298963,43
44,test,1,con,1,z,Mon Feb 03 2025 13:15:24 GMT-0600 (Central Standard Time),309712.0,lime,1000,I,z,z,None,909,709.0,200.0,35,1,2445.2000000001863,307266.7999999998,8026,lime,NF,C,300697,300697,298967,299980,298968,301412,300497,300497,301412,44
45,test,1,con,1,m,Mon Feb 03 2025 13:15:24 GMT-0600 (Central Standard Time),311794.6999999997,cobalt,1100,I,m,m,None,440,241.0,199.0,92,1,2078.899999999907,309715.7999999998,8026,cobalt,NF,C,303245,303245,301416,302529,301417,303495,303046,303046,303495,45
46,test,1,inc,1,z,Mon Feb 03 2025 13:15:24 GMT-0600 (Central Standard Time),313560.7999999998,bronze,800,I,z,z,None,417,218.0,199.0,13,1,1762.2999999998137,311798.5,8026,cherry,NF,C,305028,305028,303499,304312,303500,305261,304829,304829,305261,46
47,test,1,inc,1,z,Mon Feb 03 2025 13:15:24 GMT-0600 (Central Standard Time),315426.6999999997,bronze,800,I,z,z,None,531,332.0,199.0,29,1,1862.0,313564.6999999997,8026,raisin,NF,C,306794,306794,305265,306078,305266,307127,306595,306595,307127,47
48,test,1,inc,1,z,Mon Feb 03 2025 13:15:24 GMT-0600 (Central Standard Time),317494.0999999996,silver,1000,I,z,z,None,521,322.0,199.0,23,1,2063.6999999997206,315430.3999999999,8026,orange,NF,C,308860,308860,307130,308144,307132,309194,308661,308661,309194,48
49,test,1,inc,1,z,Mon Feb 03 2025 13:15:24 GMT-0600 (Central Standard Time),319409.0,copper,900,I,z,z,None,475,276.0,199.0,22,1,1911.0,317498.0,8026,orange,NF,C,310826,310826,309198,310110,309199,311109,310627,310627,311109,49
50,test,1,inc,1,m,Mon Feb 03 2025 13:15:24 GMT-0600 (Central Standard Time),321474.7999999998,orange,1000,I,m,m,None,531,332.0,199.0,71,1,2062.100000000093,319412.6999999997,8026,bronze,NF,C,312842,312842,311113,312126,311114,313175,312643,312643,313175,50
51,test,1,con,1,m,Mon Feb 03 2025 13:15:24 GMT-0600 (Central Standard Time),323474.0999999996,iron,1100,I,m,m,None,365,166.0,199.0,108,1,1995.6999999997206,321478.3999999999,8026,iron,NF,C,315008,315008,313178,314292,313180,315174,314809,314809,315174,51
52,test,1,con,1,z,Mon Feb 03 2025 13:15:24 GMT-0600 (Central Standard Time),325740.5,plum,1100,I,z,z,None,629,414.0,215.0,60,1,2262.5,323478.0,8026,plum,NF,C,317024,317024,315178,316292,315179,317441,316809,316809,317441,52
53,test,1,inc,1,m,Mon Feb 03 2025 13:15:24 GMT-0600 (Central Standard Time),327823.0,orange,1000,I,m,m,None,535,320.0,215.0,95,1,2078.8000000002794,325744.1999999997,8026,cobalt,NF,C,319190,319190,317444,318458,317446,319523,318975,318975,319523,53
54,test,1,con,1,z,Mon Feb 03 2025 13:15:24 GMT-0600 (Central Standard Time),329889.1999999997,pear,1100,I,z,z,None,425,226.0,199.0,44,1,2062.5,327826.6999999997,8026,pear,NF,C,321356,321356,319527,320640,319528,321589,321157,321157,321589,54
55,test,1,inc,1,m,Mon Feb 03 2025 13:15:24 GMT-0600 (Central Standard Time),331788.2999999998,banana,800,I,m,m,None,555,356.0,199.0,69,1,1895.2000000001863,329893.0999999996,8026,bronze,NF,C,323122,323122,321593,322406,321595,323488,322923,322923,323488,55
56,test,1,con,1,m,Mon Feb 03 2025 13:15:24 GMT-0600 (Central Standard Time),333787.6999999997,lead,1000,I,m,m,None,455,240.0,215.0,123,1,1995.8999999999069,331791.7999999998,8026,lead,NF,C,325238,325238,323492,324506,323493,325488,325023,325023,325488,56
57,test,1,con,1,m,Mon Feb 03 2025 13:15:24 GMT-0600 (Central Standard Time),335754.0,copper,1000,I,m,m,None,416,217.0,199.0,75,1,1962.5,333791.5,8026,copper,NF,C,327221,327221,325492,326505,325493,327454,327022,327022,327454,57
58,test,1,con,1,z,Mon Feb 03 2025 13:15:24 GMT-0600 (Central Standard Time),337719.8999999999,orange,900,I,z,z,None,526,327.0,199.0,18,1,1962.2000000001863,335757.6999999997,8026,orange,NF,C,329087,329087,327458,328371,327459,329420,328888,328888,329420,58
59,test,1,inc,1,m,Mon Feb 03 2025 13:15:24 GMT-0600 (Central Standard Time),339685.8999999999,cherry,900,I,m,m,None,528,329.0,199.0,70,1,1962.2000000001863,337723.6999999997,8026,bronze,NF,C,331053,331053,329424,330337,329425,331386,330854,330854,331386,59
60,test,1,con,1,z,Mon Feb 03 2025 13:15:24 GMT-0600 (Central Standard Time),341718.6999999997,orange,1100,I,z,z,None,386,187.0,199.0,20,1,2029.1999999997206,339689.5,8026,orange,NF,C,333219,333219,331390,332503,331391,333419,333020,333020,333419,60
61,test,1,con,1,m,Mon Feb 03 2025 13:15:24 GMT-0600 (Central Standard Time),343784.3999999999,lead,1100,I,m,m,None,417,218.0,199.0,124,1,2062.0,341722.3999999999,8026,lead,NF,C,335252,335252,333422,334536,333424,335485,335052,335052,335484,61
62,test,1,inc,1,m,Mon Feb 03 2025 13:15:24 GMT-0600 (Central Standard Time),345900.5999999996,raisin,1100,I,m,m,None,478,264.0,214.0,88,1,2112.1999999997206,343788.3999999999,8026,silver,NF,C,337334,337334,335488,336602,335490,337601,337120,337120,337601,62
63,test,1,con,1,m,Mon Feb 03 2025 13:15:24 GMT-0600 (Central Standard Time),347800.2999999998,cobalt,900,I,m,m,None,459,244.0,215.0,90,1,1895.6000000000931,345904.6999999997,8026,cobalt,NF,C,339250,339250,337605,338518,337606,339500,339035,339035,339500,63
64,test,1,inc,1,m,Mon Feb 03 2025 13:15:24 GMT-0600 (Central Standard Time),349666.0999999996,lime,800,I,m,m,None,547,333.0,214.0,125,1,1862.0999999996275,347804.0,8026,lead,NF,C,341033,341033,339504,340317,339505,341366,340819,340819,341366,64
65,test,1,inc,1,z,Mon Feb 03 2025 13:15:24 GMT-0600 (Central Standard Time),351649.0999999996,iron,900,I,z,z,None,542,343.0,199.0,54,1,1979.3999999999069,349669.6999999997,8026,kiwi,NF,C,342999,342999,341370,342284,341371,343349,342800,342800,343349,65
66,test,1,inc,1,m,Mon Feb 03 2025 13:15:24 GMT-0600 (Central Standard Time),353531.5999999996,banana,800,I,m,m,None,547,348.0,199.0,85,1,1879.0,351652.5999999996,8026,silver,NF,C,344882,344882,343353,344166,343354,345232,344683,344683,345232,66
67,test,1,con,1,z,Mon Feb 03 2025 13:15:24 GMT-0600 (Central Standard Time),355730.7999999998,raisin,1100,I,z,z,None,556,357.0,199.0,28,1,2194.899999999907,353535.8999999999,8026,raisin,NF,C,347065,347065,345236,346349,345237,347431,346865,346865,347431,67
68,test,1,con,1,m,Mon Feb 03 2025 13:15:24 GMT-0600 (Central Standard Time),357680.0999999996,cobalt,1000,I,m,m,None,403,192.0,211.0,91,1,1945.7999999998137,355734.2999999998,8026,cobalt,NF,C,349176,349176,347434,348448,347436,349380,348965,348965,349380,68
69,test,1,inc,1,m,Mon Feb 03 2025 13:15:24 GMT-0600 (Central Standard Time),359696.1999999997,cherry,900,I,m,m,None,575,360.0,215.0,94,1,2012.2999999998137,357683.8999999999,8026,cobalt,NF,C,351030,351030,349384,350298,349385,351396,350815,350815,351396,69
70,test,1,con,1,z,Mon Feb 03 2025 13:15:24 GMT-0600 (Central Standard Time),362079.1999999997,cherry,1100,I,z,z,None,744,545.0,199.0,12,1,2379.5,359699.6999999997,8026,cherry,NF,C,353229,353229,351400,352514,351401,353779,353030,353030,353779,70
71,test,1,con,1,z,Mon Feb 03 2025 13:15:24 GMT-0600 (Central Standard Time),363878.2999999998,cherry,800,I,z,z,None,453,254.0,199.0,9,1,1795.3999999999069,362082.8999999999,8026,cherry,NF,C,355312,355312,353783,354597,353784,355578,355113,355113,355578,71
72,test,1,con,1,m,Mon Feb 03 2025 13:15:24 GMT-0600 (Central Standard Time),365844.5999999996,silver,1000,I,m,m,None,421,206.0,215.0,83,1,1962.6999999997206,363881.8999999999,8026,silver,NF,C,357328,357328,355582,356596,355583,357545,357113,357113,357545,72
73,test,1,inc,1,z,Mon Feb 03 2025 13:15:24 GMT-0600 (Central Standard Time),367760.5,iron,900,I,z,z,None,467,252.0,215.0,46,1,1912.4000000003725,365848.0999999996,8026,pear,NF,C,359194,359194,357548,358462,357550,359461,358979,358979,359461,73
74,test,1,inc,1,m,Mon Feb 03 2025 13:15:24 GMT-0600 (Central Standard Time),369626.5,lime,800,I,m,m,None,514,299.0,215.0,109,1,1861.9000000003725,367764.5999999996,8026,iron,NF,C,361011,361011,359465,360278,359466,361327,360795,360795,361326,74
75,test,1,inc,1,z,Mon Feb 03 2025 13:15:24 GMT-0600 (Central Standard Time),371692.6999999997,zinc,1000,I,z,z,None,521,321.0,200.0,47,1,2062.399999999907,369630.2999999998,8026,pear,NF,C,363061,363061,361330,362344,361332,363393,362861,362861,363393,75
76,test,1,con,1,m,Mon Feb 03 2025 13:15:24 GMT-0600 (Central Standard Time),373858.5999999996,iron,1000,I,m,m,None,623,408.0,215.0,107,1,2162.399999999907,371696.1999999997,8026,iron,NF,C,365142,365142,363396,364410,363398,365559,364927,364927,365559,76
77,test,1,con,1,m,Mon Feb 03 2025 13:15:24 GMT-0600 (Central Standard Time),375791.2999999998,bronze,800,I,m,m,None,593,394.0,199.0,65,1,1928.7999999998137,373862.5,8026,bronze,NF,C,367092,367092,365562,366376,365564,367491,366893,366893,367491,77
78,test,1,inc,1,m,Mon Feb 03 2025 13:15:24 GMT-0600 (Central Standard Time),377607.2999999998,banana,800,I,m,m,None,468,253.0,215.0,77,1,1812.1000000000931,375795.1999999997,8026,copper,NF,C,369041,369041,367495,368309,367497,369307,368826,368826,369307,78
79,test,1,con,1,z,Mon Feb 03 2025 13:15:24 GMT-0600 (Central Standard Time),379457.0,raisin,800,I,z,z,None,500,285.0,215.0,25,1,1846.0,377611.0,8026,raisin,NF,C,370857,370857,369311,370125,369313,371157,370642,370642,371157,79
80,test,1,con,1,m,Mon Feb 03 2025 13:15:24 GMT-0600 (Central Standard Time),381524.0,copper,900,I,m,m,None,495,286.0,209.0,74,1,2063.100000000093,379460.8999999999,8026,copper,NF,C,372928,372928,371161,372074,371163,373224,372718,372718,373224,80
81,test,1,inc,1,m,Mon Feb 03 2025 13:15:24 GMT-0600 (Central Standard Time),383523.5,pear,900,I,m,m,None,555,341.0,214.0,110,1,1995.6000000000931,381527.8999999999,8026,iron,NF,C,374873,374873,373228,374140,373230,375224,374658,374658,375223,81
82,test,1,con,1,m,Mon Feb 03 2025 13:15:24 GMT-0600 (Central Standard Time),385671.5,gold,900,I,m,m,None,710,511.0,199.0,98,1,2144.0,383527.5,8026,gold,NF,C,376855,376855,375228,376139,375229,377372,376656,376656,377372,82
83,test,1,con,1,z,Mon Feb 03 2025 13:15:24 GMT-0600 (Central Standard Time),387704.5,plum,1000,I,z,z,None,491,292.0,199.0,59,1,2029.3000000002794,385675.1999999997,8026,plum,NF,C,379106,379106,377375,378389,377377,379405,378906,378906,379405,83
84,test,1,con,1,m,Mon Feb 03 2025 13:15:24 GMT-0600 (Central Standard Time),389537.0999999996,zinc,900,I,m,m,None,383,184.0,199.0,114,1,1829.0,387708.0999999996,8026,zinc,NF,C,381037,381038,379408,380322,379410,381237,380838,380838,381237,84
84,test,1,inc,0,z,Mon Feb 03 2025 13:15:24 GMT-0600 (Central Standard Time),393069.2999999998,zinc,1000,I,None,None,None,1799,1799.0,199.0,55,1,3528.2999999998137,389541.0,8026,kiwi,NF,C,382970,382970,381241,382254,381242,384769,382771,382771,384769,85
85,test,1,con,1,z,Mon Feb 03 2025 13:15:24 GMT-0600 (Central Standard Time),395068.2999999998,raisin,1000,I,z,z,None,455,256.0,199.0,27,1,1995.3999999999069,393072.8999999999,8026,raisin,NF,C,386502,386502,384773,385787,384774,386768,386303,386303,386768,86
86,test,1,inc,1,m,Mon Feb 03 2025 13:15:24 GMT-0600 (Central Standard Time),397251.0,plum,1100,I,m,m,None,547,332.0,215.0,120,1,2178.5,395072.5,8026,zinc,NF,C,388618,388618,386773,387886,386774,388951,388403,388403,388951,87
87,test,1,inc,1,m,Mon Feb 03 2025 13:15:24 GMT-0600 (Central Standard Time),399350.5,cherry,900,I,m,m,None,660,445.0,215.0,86,1,2096.0,397254.5,8026,silver,NF,C,390601,390601,388955,389869,388956,391051,390386,390386,391051,88
88,test,1,inc,1,m,Mon Feb 03 2025 13:15:24 GMT-0600 (Central Standard Time),401366.5999999996,lime,800,I,m,m,None,669,454.0,215.0,101,1,2012.5,399354.0999999996,8026,gold,NF,C,392600,392600,391054,391869,391056,393067,392385,392385,393067,89
89,test,1,con,1,m,Mon Feb 03 2025 13:15:24 GMT-0600 (Central Standard Time),403449.2999999998,gold,1000,I,m,m,None,533,318.0,215.0,99,1,2078.7999999998137,401370.5,8026,gold,NF,C,394816,394816,393071,394084,393072,395149,394601,394601,395149,90
90,test,1,inc,1,z,Mon Feb 03 2025 13:15:24 GMT-0600 (Central Standard Time),405581.8999999999,cobalt,1100,I,z,z,None,461,246.0,215.0,32,1,2128.899999999907,403453.0,8026,raisin,NF,C,397032,397032,395153,396309,395154,397282,396817,396817,397282,91
90,test,1,con,0,z,Mon Feb 03 2025 13:15:24 GMT-0600 (Central Standard Time),407448.0,cherry,900,I,m,m,None,418,219.0,199.0,10,1,1862.3000000002794,405585.6999999997,8026,cherry,NF,C,398915,398915,397286,398199,397287,399148,398716,398716,399148,92
91,test,1,con,1,z,Mon Feb 03 2025 13:15:24 GMT-0600 (Central Standard Time),409497.3999999999,orange,1000,I,z,z,None,500,301.0,199.0,19,1,2045.6000000000931,407451.7999999998,8026,orange,NF,C,400881,400881,399152,400165,399153,401198,400682,400682,401197,93
92,test,1,inc,1,m,Mon Feb 03 2025 13:15:24 GMT-0600 (Central Standard Time),411546.5,kiwi,1000,I,m,m,None,514,299.0,215.0,111,1,2045.4000000003725,409501.0999999996,8026,iron,NF,C,402947,402947,401201,402215,401202,403247,402731,402732,403247,94
93,test,1,con,1,z,Mon Feb 03 2025 13:15:24 GMT-0600 (Central Standard Time),413962.7999999998,lime,1100,I,z,z,None,773,574.0,199.0,36,1,2412.7999999998137,411550.0,8026,lime,NF,C,405080,405080,403250,404364,403252,405663,404881,404881,405663,95
94,test,1,inc,1,z,Mon Feb 03 2025 13:15:24 GMT-0600 (Central Standard Time),416062.0999999996,silver,1000,I,z,z,None,552,337.0,215.0,31,1,2095.5,413966.5999999996,8026,raisin,NF,C,407413,407413,405667,406680,405668,407762,407197,407197,407762,96
95,test,1,inc,1,z,Mon Feb 03 2025 13:15:24 GMT-0600 (Central Standard Time),417861.3999999999,bronze,800,I,z,z,None,462,263.0,199.0,21,1,1795.7000000001863,416065.6999999997,8026,orange,NF,C,409295,409295,407766,408579,407767,409562,409096,409096,409561,97
96,test,1,con,1,m,Mon Feb 03 2025 13:15:24 GMT-0600 (Central Standard Time),419944.0999999996,zinc,1000,I,m,m,None,543,344.0,199.0,115,1,2078.6999999997206,417865.3999999999,8026,zinc,NF,C,411294,411294,409565,410579,409567,411644,411095,411095,411644,98
97,test,1,inc,1,z,Mon Feb 03 2025 13:15:24 GMT-0600 (Central Standard Time),421893.3999999999,gold,800,I,z,z,None,603,404.0,199.0,61,1,1945.5,419947.8999999999,8026,plum,NF,C,413178,413178,411648,412461,411650,413593,412978,412978,413593,99
98,test,1,con,1,m,Mon Feb 03 2025 13:15:24 GMT-0600 (Central Standard Time),423693.0999999996,cobalt,800,I,m,m,None,462,247.0,215.0,89,1,1795.7999999998137,421897.2999999998,8026,cobalt,NF,C,415143,415143,413597,414412,413599,415393,414928,414928,415393,100
99,test,1,inc,1,z,Mon Feb 03 2025 13:15:24 GMT-0600 (Central Standard Time),425492.5999999996,bronze,800,I,z,z,None,455,256.0,199.0,5,1,1795.7999999998137,423696.7999999998,8026,banana,NF,C,416926,416926,415397,416212,415398,417193,416727,416727,417193,101
100,test,1,inc,1,m,Mon Feb 03 2025 13:15:24 GMT-0600 (Central Standard Time),427425.1999999997,pear,900,I,m,m,None,483,268.0,215.0,118,1,1928.8999999999069,425496.2999999998,8026,zinc,NF,C,418842,418842,417196,418110,417198,419125,418627,418627,419125,102
101,test,1,inc,1,m,Mon Feb 03 2025 13:15:24 GMT-0600 (Central Standard Time),429624.3999999999,plum,1100,I,m,m,None,559,360.0,199.0,112,1,2195.399999999907,427429.0,8026,iron,NF,C,420958,420958,419129,420243,419130,421324,420759,420759,421324,103
102,test,1,inc,1,m,Mon Feb 03 2025 13:15:24 GMT-0600 (Central Standard Time),431907.5,plum,1100,I,m,m,None,639,424.0,215.0,104,1,2279.5,429628.0,8026,gold,NF,C,423174,423174,421328,422442,421329,423608,422959,422959,423608,104
103,test,1,con,1,m,Mon Feb 03 2025 13:15:24 GMT-0600 (Central Standard Time),433839.7999999998,lead,800,I,m,m,None,593,394.0,199.0,121,1,1928.6000000000931,431911.1999999997,8026,lead,NF,C,425140,425140,423611,424424,423613,425540,424941,424941,425540,105
104,test,1,con,1,z,Mon Feb 03 2025 13:15:24 GMT-0600 (Central Standard Time),436088.8999999999,banana,1100,I,z,z,None,608,393.0,215.0,4,1,2245.399999999907,433843.5,8026,banana,NF,C,427389,427389,425544,426657,425545,427789,427174,427174,427789,106
105,test,1,con,1,z,Mon Feb 03 2025 13:15:24 GMT-0600 (Central Standard Time),438071.8999999999,raisin,900,I,z,z,None,541,327.0,214.0,26,1,1979.1000000000931,436092.7999999998,8026,raisin,NF,C,429439,429439,427793,428708,427794,429772,429224,429224,429772,107
106,test,1,inc,1,z,Mon Feb 03 2025 13:15:24 GMT-0600 (Central Standard Time),440304.3999999999,lead,1100,I,z,z,None,584,385.0,199.0,40,1,2228.8000000002794,438075.5999999996,8026,lime,NF,C,431605,431605,429776,430889,429777,432004,431406,431406,432004,108
107,test,1,inc,1,m,Mon Feb 03 2025 13:15:24 GMT-0600 (Central Standard Time),442386.8999999999,orange,1000,I,m,m,None,547,332.0,215.0,79,1,2078.399999999907,440308.5,8026,copper,NF,C,433754,433754,432009,433022,432010,434087,433539,433539,434087,109
108,test,1,inc,1,z,Mon Feb 03 2025 13:15:24 GMT-0600 (Central Standard Time),444370.7999999998,copper,900,I,z,z,None,540,325.0,215.0,30,1,1980.0,442390.7999999998,8026,raisin,NF,C,435737,435737,434091,435005,434092,436071,435522,435522,436071,110
109,test,1,inc,1,m,Mon Feb 03 2025 13:15:24 GMT-0600 (Central Standard Time),446485.8999999999,orange,1000,I,m,m,None,578,379.0,199.0,87,1,2111.3000000002794,444374.5999999996,8026,silver,NF,C,437803,437803,436075,437087,436076,438186,437604,437604,438186,111
110,test,1,con,1,m,Mon Feb 03 2025 13:15:24 GMT-0600 (Central Standard Time),448551.8999999999,iron,900,I,m,m,None,626,427.0,199.0,106,1,2062.3000000002794,446489.5999999996,8026,iron,NF,C,439819,439819,438190,439103,438191,440252,439620,439620,440252,112
111,test,1,con,1,m,Mon Feb 03 2025 13:15:24 GMT-0600 (Central Standard Time),450734.3999999999,zinc,1100,I,m,m,None,536,320.0,216.0,116,1,2178.5,448555.8999999999,8026,zinc,NF,C,442102,442102,440256,441369,440257,442435,441886,441886,442434,113
112,test,1,con,1,z,Mon Feb 03 2025 13:15:24 GMT-0600 (Central Standard Time),452717.2999999998,pear,900,I,z,z,None,554,355.0,199.0,42,1,1979.1000000000931,450738.1999999997,8026,pear,NF,C,444051,444051,442438,443346,442440,444418,443852,443852,444417,114
113,test,1,con,1,z,Mon Feb 03 2025 13:15:24 GMT-0600 (Central Standard Time),454683.3999999999,plum,800,I,z,z,None,622,407.0,215.0,57,1,1962.3000000002794,452721.0999999996,8026,plum,NF,C,445967,445967,444421,445234,444423,446384,445752,445752,446383,115
114,test,1,con,1,z,Mon Feb 03 2025 13:15:24 GMT-0600 (Central Standard Time),456566.2999999998,kiwi,800,I,z,z,None,536,321.0,215.0,49,1,1879.2999999998137,454687.0,8026,kiwi,NF,C,447933,447933,446387,447201,446389,448266,447718,447718,448266,116
115,test,1,inc,1,z,Mon Feb 03 2025 13:15:24 GMT-0600 (Central Standard Time),458332.0,gold,800,I,z,z,None,422,223.0,199.0,53,1,1762.0,456570.0,8026,kiwi,NF,C,449799,449799,448270,449083,448271,450032,449600,449600,450032,117
116,test,1,con,1,m,Mon Feb 03 2025 13:15:24 GMT-0600 (Central Standard Time),460448.0999999996,bronze,1100,I,m,m,None,468,269.0,199.0,68,1,2112.399999999907,458335.6999999997,8026,bronze,NF,C,451865,451865,450036,451150,450037,452148,451666,451666,452148,118
117,test,1,inc,1,m,Mon Feb 03 2025 13:15:24 GMT-0600 (Central Standard Time),462364.2999999998,banana,800,I,m,m,None,580,381.0,199.0,93,1,1912.5,460451.7999999998,8026,cobalt,NF,C,453681,453681,452152,452966,452153,454064,453482,453482,454064,119
118,test,1,inc,1,z,Mon Feb 03 2025 13:15:24 GMT-0600 (Central Standard Time),464513.3999999999,lead,1100,I,z,z,None,498,284.0,214.0,48,1,2145.399999999907,462368.0,8026,pear,NF,C,455914,455914,454068,455182,454069,456213,455700,455700,456213,120
119,test,1,con,1,m,Mon Feb 03 2025 13:15:24 GMT-0600 (Central Standard Time),466279.6999999997,zinc,800,I,m,m,None,418,203.0,215.0,113,1,1762.1000000000931,464517.5999999996,8026,zinc,NF,C,457763,457763,456218,457031,456219,457980,457548,457548,457980,121
120,test,1,inc,1,z,Mon Feb 03 2025 13:15:24 GMT-0600 (Central Standard Time),468045.7999999998,gold,800,I,z,z,None,428,229.0,199.0,45,1,1762.2999999998137,466283.5,8026,pear,NF,C,459513,459513,457983,458797,457985,459746,459314,459314,459746,122
121,test,1,con,1,m,Mon Feb 03 2025 13:15:24 GMT-0600 (Central Standard Time),469962.0999999996,iron,800,I,m,m,None,573,374.0,199.0,105,1,1912.7999999998137,468049.2999999998,8026,iron,NF,C,461280,461280,459749,460563,459751,461662,461081,461081,461662,123
122,test,1,inc,1,m,Mon Feb 03 2025 13:15:24 GMT-0600 (Central Standard Time),472194.3999999999,raisin,1100,I,m,m,None,598,399.0,199.0,96,1,2228.399999999907,469966.0,8026,cobalt,NF,C,463495,463495,461666,462779,461667,463894,463296,463296,463894,124
123,test,1,inc,1,m,Mon Feb 03 2025 13:15:24 GMT-0600 (Central Standard Time),474393.8999999999,raisin,1100,I,m,m,None,549,334.0,215.0,80,1,2195.8000000002794,472198.0999999996,8026,copper,NF,C,465744,465744,463898,465012,463899,466094,465529,465529,466094,125
124,test,1,con,1,m,Mon Feb 03 2025 13:15:24 GMT-0600 (Central Standard Time),476677.5,silver,1100,I,m,m,None,646,447.0,199.0,84,1,2279.9000000003725,474397.5999999996,8026,silver,NF,C,467927,467927,466098,467211,466099,468378,467728,467728,468378,126
125,test,1,inc,1,m,Mon Feb 03 2025 13:15:24 GMT-0600 (Central Standard Time),478892.5999999996,plum,1100,I,m,m,None,571,356.0,215.0,128,1,2211.0,476681.5999999996,8026,lead,NF,C,470226,470226,468382,469494,468383,470593,470011,470011,470593,127
126,test,1,inc,1,z,Mon Feb 03 2025 13:15:24 GMT-0600 (Central Standard Time),480925.1999999997,silver,1000,I,z,z,None,495,279.0,216.0,7,1,2029.0,478896.1999999997,8026,banana,NF,C,472343,472343,470596,471610,470598,472625,472127,472127,472625,128
