block_c,block_dur,condition,countdown,datetime,endtime,list,multichar_response,project,response,response_time,session_number,start_end,starttime,subject_id,task,task_vers,trial
,,,,Tue Feb 18 2025 14:51:30 GMT-0600 (Central Standard Time),,,,I,space,722,1,,,8016,WL,C,
prac,,0,,Tue Feb 18 2025 14:51:30 GMT-0600 (Central Standard Time),,NA,b,I,b,12699,1,,,8016,WL,C,1.0
prac,,0,,Tue Feb 18 2025 14:51:30 GMT-0600 (Central Standard Time),,NA,bo,I,o,563,1,,,8016,WL,C,1.0
prac,,0,,Tue Feb 18 2025 14:51:30 GMT-0600 (Central Standard Time),,NA,boa,I,a,382,1,,,8016,WL,C,1.0
prac,,0,,Tue Feb 18 2025 14:51:30 GMT-0600 (Central Standard Time),,NA,bo,I,backspace,495,1,,,8016,WL,C,1.0
prac,,0,,Tue Feb 18 2025 14:51:30 GMT-0600 (Central Standard Time),,NA,boo,I,o,299,1,,,8016,WL,C,1.0
prac,,0,,Tue Feb 18 2025 14:51:30 GMT-0600 (Central Standard Time),,NA,boos,I,s,214,1,,,8016,WL,C,1.0
prac,,0,,Tue Feb 18 2025 14:51:30 GMT-0600 (Central Standard Time),,NA,boost,I,t,173,1,,,8016,WL,C,1.0
prac,,0,,Tue Feb 18 2025 14:51:30 GMT-0600 (Central Standard Time),,NA,boostenter,I,enter,406,1,,,8016,WL,C,1.0
1,1.5329999923706055,learn,58467.000007629395,Tue Feb 18 2025 14:51:30 GMT-0600 (Central Standard Time),172491.20000000298,A,t,I,t,1520,1,1532.6000000089407,170958.59999999404,8016,WL,C,1.0
1,1.683000087738037,learn,58316.99991226196,Tue Feb 18 2025 14:51:30 GMT-0600 (Central Standard Time),172641.09999999404,A,to,I,o,138,1,1682.5,170958.59999999404,8016,WL,C,1.0
1,1.8329999446868896,learn,58167.00005531311,Tue Feb 18 2025 14:51:30 GMT-0600 (Central Standard Time),172790.89999999106,A,tow,I,w,140,1,1832.2999999970198,170958.59999999404,8016,WL,C,1.0
1,2.0160000324249268,learn,57983.99996757507,Tue Feb 18 2025 14:51:30 GMT-0600 (Central Standard Time),172974.09999999404,A,towe,I,e,175,1,2015.5,170958.59999999404,8016,WL,C,1.0
1,2.0829999446868896,learn,57917.00005531311,Tue Feb 18 2025 14:51:30 GMT-0600 (Central Standard Time),173040.79999999702,A,tower,I,r,56,1,2082.2000000029802,170958.59999999404,8016,WL,C,1.0
1,2.4489998817443848,learn,57551.000118255615,Tue Feb 18 2025 14:51:30 GMT-0600 (Central Standard Time),173407.29999999702,A,towerenter,I,enter,349,1,2448.7000000029802,170958.59999999404,8016,WL,C,1.0
1,2.9489998817443848,learn,57051.000118255615,Tue Feb 18 2025 14:51:30 GMT-0600 (Central Standard Time),173907.29999999702,A,q,I,q,494,1,499.29999999701977,173408.0,8016,WL,C,2.0
1,3.0820000171661377,learn,56917.99998283386,Tue Feb 18 2025 14:51:30 GMT-0600 (Central Standard Time),174040.29999999702,A,qu,I,u,115,1,632.2999999970198,173408.0,8016,WL,C,2.0
1,3.2160000801086426,learn,56783.99991989136,Tue Feb 18 2025 14:51:30 GMT-0600 (Central Standard Time),174173.89999999106,A,que,I,e,117,1,765.8999999910593,173408.0,8016,WL,C,2.0
1,3.681999921798706,learn,56318.000078201294,Tue Feb 18 2025 14:51:30 GMT-0600 (Central Standard Time),174640.09999999404,A,quee,I,e,447,1,1232.0999999940395,173408.0,8016,WL,C,2.0
1,3.865999937057495,learn,56134.000062942505,Tue Feb 18 2025 14:51:30 GMT-0600 (Central Standard Time),174823.59999999404,A,queen,I,n,165,1,1415.5999999940395,173408.0,8016,WL,C,2.0
1,4.997999906539917,learn,55002.00009346008,Tue Feb 18 2025 14:51:30 GMT-0600 (Central Standard Time),175956.5,A,quee,I,backspace,1118,1,2548.5,173408.0,8016,WL,C,2.0
1,5.29800009727478,learn,54701.99990272522,Tue Feb 18 2025 14:51:30 GMT-0600 (Central Standard Time),176256.20000000298,A,queeenter,I,enter,281,1,2848.2000000029802,173408.0,8016,WL,C,2.0
1,7.796999931335449,learn,52203.00006866455,Tue Feb 18 2025 14:51:30 GMT-0600 (Central Standard Time),178755.5,A,h,I,h,2493,1,2498.7999999970198,176256.70000000298,8016,WL,C,3.0
1,7.930999994277954,learn,52069.000005722046,Tue Feb 18 2025 14:51:30 GMT-0600 (Central Standard Time),178889.0,A,ho,I,o,121,1,2632.2999999970198,176256.70000000298,8016,WL,C,3.0
1,8.130000114440918,learn,51869.99988555908,Tue Feb 18 2025 14:51:30 GMT-0600 (Central Standard Time),179088.89999999106,A,hom,I,m,189,1,2832.199999988079,176256.70000000298,8016,WL,C,3.0
1,8.246999979019165,learn,51753.000020980835,Tue Feb 18 2025 14:51:30 GMT-0600 (Central Standard Time),179205.29999999702,A,home,I,e,109,1,2948.5999999940395,176256.70000000298,8016,WL,C,3.0
1,8.980000019073486,learn,51019.999980926514,Tue Feb 18 2025 14:51:30 GMT-0600 (Central Standard Time),179938.59999999404,A,hom,I,backspace,713,1,3681.8999999910593,176256.70000000298,8016,WL,C,3.0
1,9.329999923706055,learn,50670.000076293945,Tue Feb 18 2025 14:51:30 GMT-0600 (Central Standard Time),180288.5,A,homenter,I,enter,339,1,4031.7999999970198,176256.70000000298,8016,WL,C,3.0
1,9.746999979019165,learn,50253.000020980835,Tue Feb 18 2025 14:51:30 GMT-0600 (Central Standard Time),180705.0,A,b,I,b,397,1,416.0,180289.0,8016,WL,C,4.0
1,9.812999963760376,learn,50187.000036239624,Tue Feb 18 2025 14:51:30 GMT-0600 (Central Standard Time),180771.59999999404,A,bo,I,o,53,1,482.59999999403954,180289.0,8016,WL,C,4.0
1,10.013000011444092,learn,49986.99998855591,Tue Feb 18 2025 14:51:30 GMT-0600 (Central Standard Time),180971.70000000298,A,boy,I,y,186,1,682.7000000029802,180289.0,8016,WL,C,4.0
1,10.546000003814697,learn,49453.9999961853,Tue Feb 18 2025 14:51:30 GMT-0600 (Central Standard Time),181504.79999999702,A,boyenter,I,enter,522,1,1215.7999999970198,180289.0,8016,WL,C,4.0
1,10.980000019073486,learn,49019.999980926514,Tue Feb 18 2025 14:51:30 GMT-0600 (Central Standard Time),181938.09999999404,A,c,I,c,421,1,432.8999999910593,181505.20000000298,8016,WL,C,5.0
1,11.145999908447266,learn,48854.000091552734,Tue Feb 18 2025 14:51:30 GMT-0600 (Central Standard Time),182104.5,A,ca,I,a,155,1,599.2999999970198,181505.20000000298,8016,WL,C,5.0
1,11.496000051498413,learn,48503.99994850159,Tue Feb 18 2025 14:51:30 GMT-0600 (Central Standard Time),182454.39999999106,A,cat,I,t,333,1,949.1999999880791,181505.20000000298,8016,WL,C,5.0
1,11.628999948501587,learn,48371.00005149841,Tue Feb 18 2025 14:51:30 GMT-0600 (Central Standard Time),182587.79999999702,A,catt,I,t,120,1,1082.5999999940395,181505.20000000298,8016,WL,C,5.0
1,11.779000043869019,learn,48220.99995613098,Tue Feb 18 2025 14:51:30 GMT-0600 (Central Standard Time),182737.79999999702,A,cattl,I,l,130,1,1232.5999999940395,181505.20000000298,8016,WL,C,5.0
1,11.895999908447266,learn,48104.000091552734,Tue Feb 18 2025 14:51:30 GMT-0600 (Central Standard Time),182854.20000000298,A,cattle,I,e,108,1,1349.0,181505.20000000298,8016,WL,C,5.0
1,12.178999900817871,learn,47821.00009918213,Tue Feb 18 2025 14:51:30 GMT-0600 (Central Standard Time),183137.59999999404,A,cattleenter,I,enter,272,1,1632.3999999910593,181505.20000000298,8016,WL,C,5.0
1,12.546000003814697,learn,47453.9999961853,Tue Feb 18 2025 14:51:30 GMT-0600 (Central Standard Time),183504.39999999106,A,n,I,n,356,1,366.29999999701977,183138.09999999404,8016,WL,C,6.0
1,12.711999893188477,learn,47288.00010681152,Tue Feb 18 2025 14:51:30 GMT-0600 (Central Standard Time),183670.79999999702,A,na,I,a,150,1,532.7000000029802,183138.09999999404,8016,WL,C,6.0
1,12.864000082015991,learn,47135.99991798401,Tue Feb 18 2025 14:51:30 GMT-0600 (Central Standard Time),183822.70000000298,A,nai,I,i,146,1,684.6000000089407,183138.09999999404,8016,WL,C,6.0
1,13.010999917984009,learn,46989.00008201599,Tue Feb 18 2025 14:51:30 GMT-0600 (Central Standard Time),183969.70000000298,A,nail,I,l,140,1,831.6000000089407,183138.09999999404,8016,WL,C,6.0
1,13.461999893188477,learn,46538.00010681152,Tue Feb 18 2025 14:51:30 GMT-0600 (Central Standard Time),184420.5,A,nailenter,I,enter,444,1,1282.4000000059605,183138.09999999404,8016,WL,C,6.0
1,17.210999965667725,learn,42789.000034332275,Tue Feb 18 2025 14:51:30 GMT-0600 (Central Standard Time),188169.20000000298,A,h,I,h,3730,1,3748.4000000059605,184420.79999999702,8016,WL,C,7.0
1,17.293999910354614,learn,42706.000089645386,Tue Feb 18 2025 14:51:30 GMT-0600 (Central Standard Time),188252.70000000298,A,ho,I,o,77,1,3831.9000000059605,184420.79999999702,8016,WL,C,7.0
1,17.49399995803833,learn,42506.00004196167,Tue Feb 18 2025 14:51:30 GMT-0600 (Central Standard Time),188452.5,A,hom,I,m,185,1,4031.7000000029802,184420.79999999702,8016,WL,C,7.0
1,18.41000008583069,learn,41589.99991416931,Tue Feb 18 2025 14:51:30 GMT-0600 (Central Standard Time),189369.0,A,home,I,e,905,1,4948.20000000298,184420.79999999702,8016,WL,C,7.0
1,18.611000061035156,learn,41388.999938964844,Tue Feb 18 2025 14:51:30 GMT-0600 (Central Standard Time),189569.09999999404,A,homeenter,I,enter,189,1,5148.29999999702,184420.79999999702,8016,WL,C,7.0
1,19.993000030517578,learn,40006.99996948242,Tue Feb 18 2025 14:51:30 GMT-0600 (Central Standard Time),190951.89999999106,A,q,I,q,1373,1,1382.5,189569.39999999106,8016,WL,C,8.0
1,20.16000008583069,learn,39839.99991416931,Tue Feb 18 2025 14:51:30 GMT-0600 (Central Standard Time),191118.39999999106,A,qu,I,u,158,1,1549.0,189569.39999999106,8016,WL,C,8.0
1,20.30999994277954,learn,39690.00005722046,Tue Feb 18 2025 14:51:30 GMT-0600 (Central Standard Time),191268.59999999404,A,que,I,e,136,1,1699.2000000029802,189569.39999999106,8016,WL,C,8.0
1,20.592999935150146,learn,39407.00006484985,Tue Feb 18 2025 14:51:30 GMT-0600 (Central Standard Time),191551.39999999106,A,quee,I,e,265,1,1982.0,189569.39999999106,8016,WL,C,8.0
1,21.342999935150146,learn,38657.00006484985,Tue Feb 18 2025 14:51:30 GMT-0600 (Central Standard Time),192301.59999999404,A,queen,I,n,743,1,2732.2000000029802,189569.39999999106,8016,WL,C,8.0
1,21.625999927520752,learn,38374.00007247925,Tue Feb 18 2025 14:51:30 GMT-0600 (Central Standard Time),192584.59999999404,A,queenenter,I,enter,265,1,3015.2000000029802,189569.39999999106,8016,WL,C,8.0
1,35.204999923706055,learn,24795.000076293945,Tue Feb 18 2025 14:51:30 GMT-0600 (Central Standard Time),206163.5,A,c,I,c,13573,1,13578.40000000596,192585.09999999404,8016,WL,C,9.0
1,35.32200002670288,learn,24677.99997329712,Tue Feb 18 2025 14:51:30 GMT-0600 (Central Standard Time),206280.29999999702,A,co,I,o,98,1,13695.20000000298,192585.09999999404,8016,WL,C,9.0
1,35.50500011444092,learn,24494.999885559082,Tue Feb 18 2025 14:51:30 GMT-0600 (Central Standard Time),206463.70000000298,A,cor,I,r,174,1,13878.60000000894,192585.09999999404,8016,WL,C,9.0
1,35.62100005149841,learn,24378.999948501587,Tue Feb 18 2025 14:51:30 GMT-0600 (Central Standard Time),206580.0,A,corn,I,n,102,1,13994.90000000596,192585.09999999404,8016,WL,C,9.0
1,35.83800005912781,learn,24161.999940872192,Tue Feb 18 2025 14:51:30 GMT-0600 (Central Standard Time),206796.59999999404,A,cornenter,I,enter,210,1,14211.5,192585.09999999404,8016,WL,C,9.0
1,42.668999910354614,learn,17331.000089645386,Tue Feb 18 2025 14:51:30 GMT-0600 (Central Standard Time),213627.89999999106,A,b,I,b,6818,1,6831.0999999940395,206796.79999999702,8016,WL,C,10.0
1,42.78600001335144,learn,17213.99998664856,Tue Feb 18 2025 14:51:30 GMT-0600 (Central Standard Time),213744.5,A,bo,I,o,98,1,6947.70000000298,206796.79999999702,8016,WL,C,10.0
1,43.03600001335144,learn,16963.99998664856,Tue Feb 18 2025 14:51:30 GMT-0600 (Central Standard Time),213994.59999999404,A,boc,I,c,238,1,7197.79999999702,206796.79999999702,8016,WL,C,10.0
1,43.15299987792969,learn,16847.000122070312,Tue Feb 18 2025 14:51:30 GMT-0600 (Central Standard Time),214111.09999999404,A,bocy,I,y,108,1,7314.29999999702,206796.79999999702,8016,WL,C,10.0
1,43.43600010871887,learn,16563.999891281128,Tue Feb 18 2025 14:51:30 GMT-0600 (Central Standard Time),214394.59999999404,A,bocyenter,I,enter,263,1,7597.79999999702,206796.79999999702,8016,WL,C,10.0
1,44.319000005722046,learn,15680.999994277954,Tue Feb 18 2025 14:51:30 GMT-0600 (Central Standard Time),215277.59999999404,A,b,I,b,876,1,882.5999999940395,214395.0,8016,WL,C,11.0
1,44.45300006866455,learn,15546.99993133545,Tue Feb 18 2025 14:51:30 GMT-0600 (Central Standard Time),215411.29999999702,A,bo,I,o,121,1,1016.2999999970198,214395.0,8016,WL,C,11.0
1,45.01900005340576,learn,14980.999946594238,Tue Feb 18 2025 14:51:30 GMT-0600 (Central Standard Time),215977.09999999404,A,bod,I,d,545,1,1582.0999999940395,214395.0,8016,WL,C,11.0
1,45.11899995803833,learn,14881.00004196167,Tue Feb 18 2025 14:51:30 GMT-0600 (Central Standard Time),216077.29999999702,A,body,I,y,93,1,1682.2999999970198,214395.0,8016,WL,C,11.0
1,45.45199990272522,learn,14548.00009727478,Tue Feb 18 2025 14:51:30 GMT-0600 (Central Standard Time),216410.39999999106,A,bodyenter,I,enter,321,1,2015.3999999910593,214395.0,8016,WL,C,11.0
1,60.00999999046326,learn,-9.999990463256836,Tue Feb 18 2025 14:51:30 GMT-0600 (Central Standard Time),230968.59999999404,A,None,I,None,14553,1,14557.79999999702,216410.79999999702,8016,WL,C,12.0
2,1.25,learn,58750.0,Tue Feb 18 2025 14:51:30 GMT-0600 (Central Standard Time),313813.59999999404,A,w,I,w,1235,1,1249.3999999910593,312564.200000003,8016,WL,C,1.0
2,1.4159998893737793,learn,58584.00011062622,Tue Feb 18 2025 14:51:30 GMT-0600 (Central Standard Time),313979.799999997,A,wh,I,h,160,1,1415.5999999940395,312564.200000003,8016,WL,C,1.0
2,1.5,learn,58500.0,Tue Feb 18 2025 14:51:30 GMT-0600 (Central Standard Time),314063.200000003,A,whe,I,e,67,1,1499.0,312564.200000003,8016,WL,C,1.0
2,1.5829999446868896,learn,58417.00005531311,Tue Feb 18 2025 14:51:30 GMT-0600 (Central Standard Time),314146.799999997,A,whea,I,a,63,1,1582.5999999940395,312564.200000003,8016,WL,C,1.0
2,1.7659997940063477,learn,58234.00020599365,Tue Feb 18 2025 14:51:30 GMT-0600 (Central Standard Time),314330.0,A,wheat,I,t,171,1,1765.7999999970198,312564.200000003,8016,WL,C,1.0
2,2.498999834060669,learn,57501.00016593933,Tue Feb 18 2025 14:51:30 GMT-0600 (Central Standard Time),315063.0,A,wheatenter,I,enter,717,1,2498.7999999970198,312564.200000003,8016,WL,C,1.0
2,2.865999937057495,learn,57134.000062942505,Tue Feb 18 2025 14:51:30 GMT-0600 (Central Standard Time),315429.5,A,s,I,s,351,1,366.20000000298023,315063.299999997,8016,WL,C,2.0
2,2.982999801635742,learn,57017.00019836426,Tue Feb 18 2025 14:51:30 GMT-0600 (Central Standard Time),315546.200000003,A,su,I,u,105,1,482.90000000596046,315063.299999997,8016,WL,C,2.0
2,3.181999921798706,learn,56818.000078201294,Tue Feb 18 2025 14:51:30 GMT-0600 (Central Standard Time),315746.09999999404,A,sug,I,g,188,1,682.7999999970198,315063.299999997,8016,WL,C,2.0
2,3.431999921798706,learn,56568.000078201294,Tue Feb 18 2025 14:51:30 GMT-0600 (Central Standard Time),315996.0,A,suga,I,a,236,1,932.7000000029802,315063.299999997,8016,WL,C,2.0
2,3.615999937057495,learn,56384.000062942505,Tue Feb 18 2025 14:51:30 GMT-0600 (Central Standard Time),316179.09999999404,A,sugar,I,r,178,1,1115.7999999970198,315063.299999997,8016,WL,C,2.0
2,3.9819998741149902,learn,56018.00012588501,Tue Feb 18 2025 14:51:30 GMT-0600 (Central Standard Time),316545.799999997,A,sugarenter,I,enter,347,1,1482.5,315063.299999997,8016,WL,C,2.0
2,4.298999786376953,learn,55701.00021362305,Tue Feb 18 2025 14:51:30 GMT-0600 (Central Standard Time),316862.39999999106,A,t,I,t,301,1,316.29999999701977,316546.09999999404,8016,WL,C,3.0
2,4.365999937057495,learn,55634.000062942505,Tue Feb 18 2025 14:51:30 GMT-0600 (Central Standard Time),316929.09999999404,A,to,I,o,56,1,383.0,316546.09999999404,8016,WL,C,3.0
2,4.615000009536743,learn,55384.99999046326,Tue Feb 18 2025 14:51:30 GMT-0600 (Central Standard Time),317179.0,A,tow,I,w,237,1,632.9000000059605,316546.09999999404,8016,WL,C,3.0
2,4.765999794006348,learn,55234.00020599365,Tue Feb 18 2025 14:51:30 GMT-0600 (Central Standard Time),317329.200000003,A,towe,I,e,139,1,783.1000000089407,316546.09999999404,8016,WL,C,3.0
2,4.849999904632568,learn,55150.00009536743,Tue Feb 18 2025 14:51:30 GMT-0600 (Central Standard Time),317413.299999997,A,tower,I,r,77,1,867.2000000029802,316546.09999999404,8016,WL,C,3.0
2,5.265999794006348,learn,54734.00020599365,Tue Feb 18 2025 14:51:30 GMT-0600 (Central Standard Time),317829.39999999106,A,towerenter,I,enter,409,1,1283.2999999970198,316546.09999999404,8016,WL,C,3.0
2,5.7149999141693115,learn,54285.00008583069,Tue Feb 18 2025 14:51:30 GMT-0600 (Central Standard Time),318278.5,A,q,I,q,441,1,448.6000000089407,317829.89999999106,8016,WL,C,4.0
2,5.832000017166138,learn,54167.99998283386,Tue Feb 18 2025 14:51:30 GMT-0600 (Central Standard Time),318395.39999999106,A,qu,I,u,96,1,565.5,317829.89999999106,8016,WL,C,4.0
2,5.98199987411499,learn,54018.00012588501,Tue Feb 18 2025 14:51:30 GMT-0600 (Central Standard Time),318545.5,A,que,I,e,139,1,715.6000000089407,317829.89999999106,8016,WL,C,4.0
2,6.130999803543091,learn,53869.00019645691,Tue Feb 18 2025 14:51:30 GMT-0600 (Central Standard Time),318695.09999999404,A,quee,I,e,141,1,865.2000000029802,317829.89999999106,8016,WL,C,4.0
2,6.2809998989105225,learn,53719.00010108948,Tue Feb 18 2025 14:51:30 GMT-0600 (Central Standard Time),318845.0,A,queen,I,n,143,1,1015.1000000089407,317829.89999999106,8016,WL,C,4.0
2,6.5309998989105225,learn,53469.00010108948,Tue Feb 18 2025 14:51:30 GMT-0600 (Central Standard Time),319095.09999999404,A,queenenter,I,enter,241,1,1265.2000000029802,317829.89999999106,8016,WL,C,4.0
2,8.148000001907349,learn,51851.99999809265,Tue Feb 18 2025 14:51:30 GMT-0600 (Central Standard Time),320711.200000003,A,s,I,s,1599,1,1615.800000011921,319095.39999999106,8016,WL,C,5.0
2,8.21399998664856,learn,51786.00001335144,Tue Feb 18 2025 14:51:30 GMT-0600 (Central Standard Time),320777.89999999106,A,sh,I,h,55,1,1682.5,319095.39999999106,8016,WL,C,5.0
2,8.313999891281128,learn,51686.00010871887,Tue Feb 18 2025 14:51:30 GMT-0600 (Central Standard Time),320877.89999999106,A,sho,I,o,92,1,1782.5,319095.39999999106,8016,WL,C,5.0
2,8.446999788284302,learn,51553.0002117157,Tue Feb 18 2025 14:51:30 GMT-0600 (Central Standard Time),321011.0,A,shor,I,r,112,1,1915.6000000089407,319095.39999999106,8016,WL,C,5.0
2,8.648000001907349,learn,51351.99999809265,Tue Feb 18 2025 14:51:30 GMT-0600 (Central Standard Time),321211.200000003,A,shore,I,e,187,1,2115.800000011921,319095.39999999106,8016,WL,C,5.0
2,8.813999891281128,learn,51186.00010871887,Tue Feb 18 2025 14:51:30 GMT-0600 (Central Standard Time),321377.5,A,shoreenter,I,enter,147,1,2282.1000000089407,319095.39999999106,8016,WL,C,5.0
2,9.613999843597412,learn,50386.00015640259,Tue Feb 18 2025 14:51:30 GMT-0600 (Central Standard Time),322177.5,A,d,I,d,781,1,799.7000000029802,321377.799999997,8016,WL,C,6.0
2,9.913999795913696,learn,50086.000204086304,Tue Feb 18 2025 14:51:30 GMT-0600 (Central Standard Time),322477.09999999404,A,do,I,o,293,1,1099.2999999970198,321377.799999997,8016,WL,C,6.0
2,10.129999876022339,learn,49870.00012397766,Tue Feb 18 2025 14:51:30 GMT-0600 (Central Standard Time),322693.89999999106,A,doc,I,c,201,1,1316.0999999940395,321377.799999997,8016,WL,C,6.0
2,10.379999876022339,learn,49620.00012397766,Tue Feb 18 2025 14:51:30 GMT-0600 (Central Standard Time),322944.0,A,doct,I,t,241,1,1566.2000000029802,321377.799999997,8016,WL,C,6.0
2,10.446999788284302,learn,49553.0002117157,Tue Feb 18 2025 14:51:30 GMT-0600 (Central Standard Time),323010.700000003,A,docto,I,o,55,1,1632.9000000059605,321377.799999997,8016,WL,C,6.0
2,10.679999828338623,learn,49320.00017166138,Tue Feb 18 2025 14:51:30 GMT-0600 (Central Standard Time),323243.39999999106,A,doctor,I,r,228,1,1865.5999999940395,321377.799999997,8016,WL,C,6.0
2,11.04699993133545,learn,48953.00006866455,Tue Feb 18 2025 14:51:30 GMT-0600 (Central Standard Time),323610.39999999106,A,doctorenter,I,enter,355,1,2232.5999999940395,321377.799999997,8016,WL,C,6.0
2,12.412999868392944,learn,47587.000131607056,Tue Feb 18 2025 14:51:30 GMT-0600 (Central Standard Time),324976.59999999404,A,s,I,s,1356,1,1365.7999999970198,323610.799999997,8016,WL,C,7.0
2,12.744999885559082,learn,47255.00011444092,Tue Feb 18 2025 14:51:30 GMT-0600 (Central Standard Time),325308.09999999404,A,sh,I,h,179,1,1697.2999999970198,323610.799999997,8016,WL,C,7.0
2,12.832000017166138,learn,47167.99998283386,Tue Feb 18 2025 14:51:30 GMT-0600 (Central Standard Time),325395.5,A,sho,I,o,66,1,1784.7000000029802,323610.799999997,8016,WL,C,7.0
2,12.962999820709229,learn,47037.00017929077,Tue Feb 18 2025 14:51:30 GMT-0600 (Central Standard Time),325526.200000003,A,shor,I,r,123,1,1915.4000000059605,323610.799999997,8016,WL,C,7.0
2,13.263000011444092,learn,46736.99998855591,Tue Feb 18 2025 14:51:30 GMT-0600 (Central Standard Time),325826.299999997,A,shore,I,e,288,1,2215.5,323610.799999997,8016,WL,C,7.0
2,14.128999948501587,learn,45871.00005149841,Tue Feb 18 2025 14:51:30 GMT-0600 (Central Standard Time),326692.5,A,shoreenter,I,enter,860,1,3081.7000000029802,323610.799999997,8016,WL,C,7.0
2,15.361999988555908,learn,44638.00001144409,Tue Feb 18 2025 14:51:30 GMT-0600 (Central Standard Time),327925.5,A,b,I,b,1226,1,1232.7999999970198,326692.700000003,8016,WL,C,8.0
2,15.444999933242798,learn,44555.0000667572,Tue Feb 18 2025 14:51:30 GMT-0600 (Central Standard Time),328009.09999999404,A,bo,I,o,65,1,1316.3999999910593,326692.700000003,8016,WL,C,8.0
2,15.544999837875366,learn,44455.000162124634,Tue Feb 18 2025 14:51:30 GMT-0600 (Central Standard Time),328109.0,A,boy,I,y,93,1,1416.2999999970198,326692.700000003,8016,WL,C,8.0
2,16.061999797821045,learn,43938.000202178955,Tue Feb 18 2025 14:51:30 GMT-0600 (Central Standard Time),328625.299999997,A,boyenter,I,enter,497,1,1932.5999999940395,326692.700000003,8016,WL,C,8.0
2,17.494999885559082,learn,42505.00011444092,Tue Feb 18 2025 14:51:30 GMT-0600 (Central Standard Time),330058.200000003,A,n,I,n,1421,1,1432.5,328625.700000003,8016,WL,C,9.0
2,17.66100001335144,learn,42338.99998664856,Tue Feb 18 2025 14:51:30 GMT-0600 (Central Standard Time),330224.89999999106,A,na,I,a,156,1,1599.199999988079,328625.700000003,8016,WL,C,9.0
2,17.878000020980835,learn,42121.999979019165,Tue Feb 18 2025 14:51:30 GMT-0600 (Central Standard Time),330441.39999999106,A,nai,I,i,206,1,1815.699999988079,328625.700000003,8016,WL,C,9.0
2,18.060999870300293,learn,41939.00012969971,Tue Feb 18 2025 14:51:30 GMT-0600 (Central Standard Time),330624.89999999106,A,nail,I,l,165,1,1999.199999988079,328625.700000003,8016,WL,C,9.0
2,18.3439998626709,learn,41656.0001373291,Tue Feb 18 2025 14:51:30 GMT-0600 (Central Standard Time),330907.799999997,A,nailenter,I,enter,278,1,2282.0999999940395,328625.700000003,8016,WL,C,9.0
2,18.710999965667725,learn,41289.000034332275,Tue Feb 18 2025 14:51:30 GMT-0600 (Central Standard Time),331274.39999999106,A,c,I,c,355,1,366.29999999701977,330908.09999999404,8016,WL,C,10.0
2,18.810999870300293,learn,41189.00012969971,Tue Feb 18 2025 14:51:30 GMT-0600 (Central Standard Time),331374.5,A,co,I,o,84,1,466.40000000596046,330908.09999999404,8016,WL,C,10.0
2,18.960999965667725,learn,41039.000034332275,Tue Feb 18 2025 14:51:30 GMT-0600 (Central Standard Time),331524.5,A,cor,I,r,144,1,616.4000000059605,330908.09999999404,8016,WL,C,10.0
2,19.0939998626709,learn,40906.0001373291,Tue Feb 18 2025 14:51:30 GMT-0600 (Central Standard Time),331657.799999997,A,corn,I,n,122,1,749.7000000029802,330908.09999999404,8016,WL,C,10.0
2,19.3439998626709,learn,40656.0001373291,Tue Feb 18 2025 14:51:30 GMT-0600 (Central Standard Time),331907.299999997,A,cornenter,I,enter,245,1,999.2000000029802,330908.09999999404,8016,WL,C,10.0
2,19.72699999809265,learn,40273.00000190735,Tue Feb 18 2025 14:51:30 GMT-0600 (Central Standard Time),332291.0,A,c,I,c,371,1,383.40000000596046,331907.59999999404,8016,WL,C,11.0
2,19.876999855041504,learn,40123.000144958496,Tue Feb 18 2025 14:51:30 GMT-0600 (Central Standard Time),332440.89999999106,A,ca,I,a,139,1,533.2999999970198,331907.59999999404,8016,WL,C,11.0
2,20.07699990272522,learn,39923.00009727478,Tue Feb 18 2025 14:51:30 GMT-0600 (Central Standard Time),332640.700000003,A,cat,I,t,181,1,733.1000000089407,331907.59999999404,8016,WL,C,11.0
2,20.210999965667725,learn,39789.000034332275,Tue Feb 18 2025 14:51:30 GMT-0600 (Central Standard Time),332774.200000003,A,catt,I,t,126,1,866.6000000089407,331907.59999999404,8016,WL,C,11.0
2,20.40999984741211,learn,39590.00015258789,Tue Feb 18 2025 14:51:30 GMT-0600 (Central Standard Time),332974.0,A,cattl,I,l,184,1,1066.4000000059605,331907.59999999404,8016,WL,C,11.0
2,20.543999910354614,learn,39456.000089645386,Tue Feb 18 2025 14:51:30 GMT-0600 (Central Standard Time),333107.299999997,A,cattle,I,e,128,1,1199.7000000029802,331907.59999999404,8016,WL,C,11.0
2,20.74399995803833,learn,39256.00004196167,Tue Feb 18 2025 14:51:30 GMT-0600 (Central Standard Time),333307.200000003,A,cattleenter,I,enter,187,1,1399.6000000089407,331907.59999999404,8016,WL,C,11.0
2,23.325999975204468,learn,36674.00002479553,Tue Feb 18 2025 14:51:30 GMT-0600 (Central Standard Time),335889.5,A,b,I,b,2563,1,2581.9000000059605,333307.59999999404,8016,WL,C,12.0
2,23.408999919891357,learn,36591.00008010864,Tue Feb 18 2025 14:51:30 GMT-0600 (Central Standard Time),335972.89999999106,A,bo,I,o,68,1,2665.2999999970198,333307.59999999404,8016,WL,C,12.0
2,23.608999967575073,learn,36391.00003242493,Tue Feb 18 2025 14:51:30 GMT-0600 (Central Standard Time),336172.89999999106,A,boc,I,c,184,1,2865.2999999970198,333307.59999999404,8016,WL,C,12.0
2,23.70899987220764,learn,36291.00012779236,Tue Feb 18 2025 14:51:30 GMT-0600 (Central Standard Time),336272.89999999106,A,bocy,I,y,89,1,2965.2999999970198,333307.59999999404,8016,WL,C,12.0
2,24.14299988746643,learn,35857.00011253357,Tue Feb 18 2025 14:51:30 GMT-0600 (Central Standard Time),336706.200000003,A,boc,I,backspace,421,1,3398.6000000089407,333307.59999999404,8016,WL,C,12.0
2,24.274999856948853,learn,35725.00014305115,Tue Feb 18 2025 14:51:30 GMT-0600 (Central Standard Time),336839.0,A,bo,I,backspace,115,1,3531.4000000059605,333307.59999999404,8016,WL,C,12.0
2,24.408999919891357,learn,35591.00008010864,Tue Feb 18 2025 14:51:30 GMT-0600 (Central Standard Time),336973.0,A,bod,I,d,119,1,3665.4000000059605,333307.59999999404,8016,WL,C,12.0
2,24.575999975204468,learn,35424.00002479553,Tue Feb 18 2025 14:51:30 GMT-0600 (Central Standard Time),337139.39999999106,A,body,I,y,161,1,3831.7999999970198,333307.59999999404,8016,WL,C,12.0
2,25.158999919891357,learn,34841.00008010864,Tue Feb 18 2025 14:51:30 GMT-0600 (Central Standard Time),337722.59999999404,A,bodyenter,I,enter,571,1,4415.0,333307.59999999404,8016,WL,C,12.0
2,31.972999811172485,learn,28027.000188827515,Tue Feb 18 2025 14:51:30 GMT-0600 (Central Standard Time),344537.09999999404,A,s,I,s,6802,1,6814.0999999940395,337723.0,8016,WL,C,13.0
2,32.073999881744385,learn,27926.000118255615,Tue Feb 18 2025 14:51:30 GMT-0600 (Central Standard Time),344637.09999999404,A,su,I,u,85,1,6914.0999999940395,337723.0,8016,WL,C,13.0
2,32.27300000190735,learn,27726.99999809265,Tue Feb 18 2025 14:51:30 GMT-0600 (Central Standard Time),344837.0,A,sug,I,g,185,1,7114.0,337723.0,8016,WL,C,13.0
2,32.37299990653992,learn,27627.000093460083,Tue Feb 18 2025 14:51:30 GMT-0600 (Central Standard Time),344936.89999999106,A,suga,I,a,90,1,7213.899999991059,337723.0,8016,WL,C,13.0
2,32.58999991416931,learn,27410.00008583069,Tue Feb 18 2025 14:51:30 GMT-0600 (Central Standard Time),345153.799999997,A,sugar,I,r,197,1,7430.79999999702,337723.0,8016,WL,C,13.0
2,32.722999811172485,learn,27277.000188827515,Tue Feb 18 2025 14:51:30 GMT-0600 (Central Standard Time),345286.799999997,A,sugarenter,I,enter,117,1,7563.79999999702,337723.0,8016,WL,C,13.0
2,38.48799991607666,learn,21512.00008392334,Tue Feb 18 2025 14:51:30 GMT-0600 (Central Standard Time),351051.39999999106,A,n,I,n,5760,1,5764.199999988079,345287.200000003,8016,WL,C,14.0
2,38.63800001144409,learn,21361.99998855591,Tue Feb 18 2025 14:51:30 GMT-0600 (Central Standard Time),351201.39999999106,A,na,I,a,130,1,5914.199999988079,345287.200000003,8016,WL,C,14.0
2,38.75399994850159,learn,21246.000051498413,Tue Feb 18 2025 14:51:30 GMT-0600 (Central Standard Time),351317.89999999106,A,nai,I,i,101,1,6030.699999988079,345287.200000003,8016,WL,C,14.0
2,39.2039999961853,learn,20796.000003814697,Tue Feb 18 2025 14:51:30 GMT-0600 (Central Standard Time),351768.09999999404,A,nail,I,l,432,1,6480.899999991059,345287.200000003,8016,WL,C,14.0
2,39.787999868392944,learn,20212.000131607056,Tue Feb 18 2025 14:51:30 GMT-0600 (Central Standard Time),352351.200000003,A,nailenter,I,enter,574,1,7064.0,345287.200000003,8016,WL,C,14.0
2,44.11999988555908,learn,15880.000114440918,Tue Feb 18 2025 14:51:30 GMT-0600 (Central Standard Time),356683.299999997,A,enter,I,enter,4327,1,4331.70000000298,352351.59999999404,8016,WL,C,15.0
3,1.0,learn,59000.0,Tue Feb 18 2025 14:51:30 GMT-0600 (Central Standard Time),430459.89999999106,A,t,I,t,995,1,999.0999999940395,429460.799999997,8016,WL,C,1.0
3,1.1500000953674316,learn,58849.99990463257,Tue Feb 18 2025 14:51:30 GMT-0600 (Central Standard Time),430610.09999999404,A,to,I,o,138,1,1149.2999999970198,429460.799999997,8016,WL,C,1.0
3,1.2669999599456787,learn,58733.00004005432,Tue Feb 18 2025 14:51:30 GMT-0600 (Central Standard Time),430726.799999997,A,tow,I,w,101,1,1266.0,429460.799999997,8016,WL,C,1.0
3,1.3829998970031738,learn,58617.000102996826,Tue Feb 18 2025 14:51:30 GMT-0600 (Central Standard Time),430843.200000003,A,towe,I,e,103,1,1382.4000000059605,429460.799999997,8016,WL,C,1.0
3,1.5,learn,58500.0,Tue Feb 18 2025 14:51:30 GMT-0600 (Central Standard Time),430960.0,A,tower,I,r,107,1,1499.2000000029802,429460.799999997,8016,WL,C,1.0
3,1.7829999923706055,learn,58217.000007629395,Tue Feb 18 2025 14:51:30 GMT-0600 (Central Standard Time),431243.200000003,A,towerenter,I,enter,270,1,1782.4000000059605,429460.799999997,8016,WL,C,1.0
3,2.749000072479248,learn,57250.99992752075,Tue Feb 18 2025 14:51:30 GMT-0600 (Central Standard Time),432209.700000003,A,w,I,w,955,1,966.2000000029802,431243.5,8016,WL,C,2.0
3,2.9830000400543213,learn,57016.99995994568,Tue Feb 18 2025 14:51:30 GMT-0600 (Central Standard Time),432442.89999999106,A,we,I,e,215,1,1199.3999999910593,431243.5,8016,WL,C,2.0
3,3.0989999771118164,learn,56901.00002288818,Tue Feb 18 2025 14:51:30 GMT-0600 (Central Standard Time),432559.5,A,weh,I,h,100,1,1316.0,431243.5,8016,WL,C,2.0
3,3.4830000400543213,learn,56516.99995994568,Tue Feb 18 2025 14:51:30 GMT-0600 (Central Standard Time),432942.89999999106,A,we,I,backspace,375,1,1699.3999999910593,431243.5,8016,WL,C,2.0
3,3.615999937057495,learn,56384.000062942505,Tue Feb 18 2025 14:51:30 GMT-0600 (Central Standard Time),433076.0,A,w,I,backspace,128,1,1832.5,431243.5,8016,WL,C,2.0
3,3.865999937057495,learn,56134.000062942505,Tue Feb 18 2025 14:51:30 GMT-0600 (Central Standard Time),433326.0,A,wh,I,h,243,1,2082.5,431243.5,8016,WL,C,2.0
3,4.082000017166138,learn,55917.99998283386,Tue Feb 18 2025 14:51:30 GMT-0600 (Central Standard Time),433542.39999999106,A,whe,I,e,200,1,2298.8999999910593,431243.5,8016,WL,C,2.0
3,4.148999929428101,learn,55851.0000705719,Tue Feb 18 2025 14:51:30 GMT-0600 (Central Standard Time),433609.09999999404,A,whea,I,a,56,1,2365.5999999940395,431243.5,8016,WL,C,2.0
3,4.348999977111816,learn,55651.00002288818,Tue Feb 18 2025 14:51:30 GMT-0600 (Central Standard Time),433808.799999997,A,wheat,I,t,190,1,2565.2999999970198,431243.5,8016,WL,C,2.0
3,4.582000017166138,learn,55417.99998283386,Tue Feb 18 2025 14:51:30 GMT-0600 (Central Standard Time),434042.299999997,A,wheatenter,I,enter,213,1,2798.7999999970198,431243.5,8016,WL,C,2.0
3,5.2820000648498535,learn,54717.99993515015,Tue Feb 18 2025 14:51:30 GMT-0600 (Central Standard Time),434742.299999997,A,q,I,q,692,1,699.5999999940395,434042.700000003,8016,WL,C,3.0
3,5.381999969482422,learn,54618.00003051758,Tue Feb 18 2025 14:51:30 GMT-0600 (Central Standard Time),434842.09999999404,A,qu,I,u,88,1,799.3999999910593,434042.700000003,8016,WL,C,3.0
3,5.5320000648498535,learn,54467.99993515015,Tue Feb 18 2025 14:51:30 GMT-0600 (Central Standard Time),434992.09999999404,A,que,I,e,140,1,949.3999999910593,434042.700000003,8016,WL,C,3.0
3,5.697999954223633,learn,54302.00004577637,Tue Feb 18 2025 14:51:30 GMT-0600 (Central Standard Time),435158.39999999106,A,quee,I,e,150,1,1115.699999988079,434042.700000003,8016,WL,C,3.0
3,5.815000057220459,learn,54184.99994277954,Tue Feb 18 2025 14:51:30 GMT-0600 (Central Standard Time),435275.39999999106,A,queen,I,n,112,1,1232.699999988079,434042.700000003,8016,WL,C,3.0
3,6.181999921798706,learn,53818.000078201294,Tue Feb 18 2025 14:51:30 GMT-0600 (Central Standard Time),435642.0,A,queenenter,I,enter,355,1,1599.2999999970198,434042.700000003,8016,WL,C,3.0
3,8.246999979019165,learn,51753.000020980835,Tue Feb 18 2025 14:51:30 GMT-0600 (Central Standard Time),437707.700000003,A,s,I,s,2061,1,2065.5,435642.200000003,8016,WL,C,4.0
3,8.38100004196167,learn,51618.99995803833,Tue Feb 18 2025 14:51:30 GMT-0600 (Central Standard Time),437841.09999999404,A,su,I,u,115,1,2198.8999999910593,435642.200000003,8016,WL,C,4.0
3,8.563999891281128,learn,51436.00010871887,Tue Feb 18 2025 14:51:30 GMT-0600 (Central Standard Time),438024.39999999106,A,sug,I,g,165,1,2382.199999988079,435642.200000003,8016,WL,C,4.0
3,8.730999946594238,learn,51269.00005340576,Tue Feb 18 2025 14:51:30 GMT-0600 (Central Standard Time),438191.200000003,A,suga,I,a,158,1,2549.0,435642.200000003,8016,WL,C,4.0
3,8.930999994277954,learn,51069.000005722046,Tue Feb 18 2025 14:51:30 GMT-0600 (Central Standard Time),438391.09999999404,A,sugar,I,r,191,1,2748.8999999910593,435642.200000003,8016,WL,C,4.0
3,9.096999883651733,learn,50903.00011634827,Tue Feb 18 2025 14:51:30 GMT-0600 (Central Standard Time),438557.700000003,A,sugarenter,I,enter,160,1,2915.5,435642.200000003,8016,WL,C,4.0
3,13.961999893188477,learn,46038.00010681152,Tue Feb 18 2025 14:51:30 GMT-0600 (Central Standard Time),443422.700000003,A,h,I,h,4849,1,4864.70000000298,438558.0,8016,WL,C,5.0
3,14.062999963760376,learn,45937.000036239624,Tue Feb 18 2025 14:51:30 GMT-0600 (Central Standard Time),443522.799999997,A,ho,I,o,88,1,4964.79999999702,438558.0,8016,WL,C,5.0
3,14.229000091552734,learn,45770.999908447266,Tue Feb 18 2025 14:51:30 GMT-0600 (Central Standard Time),443689.299999997,A,hom,I,m,148,1,5131.29999999702,438558.0,8016,WL,C,5.0
3,14.361999988555908,learn,45638.00001144409,Tue Feb 18 2025 14:51:30 GMT-0600 (Central Standard Time),443822.59999999404,A,home,I,e,117,1,5264.5999999940395,438558.0,8016,WL,C,5.0
3,14.661999940872192,learn,45338.00005912781,Tue Feb 18 2025 14:51:30 GMT-0600 (Central Standard Time),444122.5,A,homeenter,I,enter,288,1,5564.5,438558.0,8016,WL,C,5.0
3,15.578999996185303,learn,44421.0000038147,Tue Feb 18 2025 14:51:30 GMT-0600 (Central Standard Time),445039.0,A,d,I,d,900,1,916.2000000029802,444122.799999997,8016,WL,C,6.0
3,15.661999940872192,learn,44338.00005912781,Tue Feb 18 2025 14:51:30 GMT-0600 (Central Standard Time),445122.39999999106,A,do,I,o,71,1,999.5999999940395,444122.799999997,8016,WL,C,6.0
3,15.812000036239624,learn,44187.999963760376,Tue Feb 18 2025 14:51:30 GMT-0600 (Central Standard Time),445272.09999999404,A,doc,I,c,140,1,1149.2999999970198,444122.799999997,8016,WL,C,6.0
3,16.02900004386902,learn,43970.99995613098,Tue Feb 18 2025 14:51:30 GMT-0600 (Central Standard Time),445488.799999997,A,doct,I,t,206,1,1366.0,444122.799999997,8016,WL,C,6.0
3,16.111999988555908,learn,43888.00001144409,Tue Feb 18 2025 14:51:30 GMT-0600 (Central Standard Time),445572.200000003,A,docto,I,o,70,1,1449.4000000059605,444122.799999997,8016,WL,C,6.0
3,16.26200008392334,learn,43737.99991607666,Tue Feb 18 2025 14:51:30 GMT-0600 (Central Standard Time),445722.09999999404,A,doctor,I,r,138,1,1599.2999999970198,444122.799999997,8016,WL,C,6.0
3,16.545000076293945,learn,43454.999923706055,Tue Feb 18 2025 14:51:30 GMT-0600 (Central Standard Time),446005.200000003,A,doctorenter,I,enter,277,1,1882.4000000059605,444122.799999997,8016,WL,C,6.0
3,17.144999980926514,learn,42855.000019073486,Tue Feb 18 2025 14:51:30 GMT-0600 (Central Standard Time),446604.89999999106,A,b,I,b,593,1,599.5,446005.39999999106,8016,WL,C,7.0
3,17.295000076293945,learn,42704.999923706055,Tue Feb 18 2025 14:51:30 GMT-0600 (Central Standard Time),446755.09999999404,A,by,I,y,129,1,749.7000000029802,446005.39999999106,8016,WL,C,7.0
3,17.91100001335144,learn,42088.99998664856,Tue Feb 18 2025 14:51:30 GMT-0600 (Central Standard Time),447371.5,A,b,I,backspace,603,1,1366.1000000089407,446005.39999999106,8016,WL,C,7.0
3,18.24399995803833,learn,41756.00004196167,Tue Feb 18 2025 14:51:30 GMT-0600 (Central Standard Time),447704.700000003,A,bo,I,o,315,1,1699.300000011921,446005.39999999106,8016,WL,C,7.0
3,18.64400005340576,learn,41355.99994659424,Tue Feb 18 2025 14:51:30 GMT-0600 (Central Standard Time),448104.5,A,boy,I,y,390,1,2099.1000000089407,446005.39999999106,8016,WL,C,7.0
3,19.16100001335144,learn,40838.99998664856,Tue Feb 18 2025 14:51:30 GMT-0600 (Central Standard Time),448621.09999999404,A,boyenter,I,enter,502,1,2615.7000000029802,446005.39999999106,8016,WL,C,7.0
3,19.561000108718872,learn,40438.99989128113,Tue Feb 18 2025 14:51:30 GMT-0600 (Central Standard Time),449021.09999999404,A,c,I,c,385,1,399.70000000298023,448621.39999999106,8016,WL,C,8.0
3,19.710999965667725,learn,40289.000034332275,Tue Feb 18 2025 14:51:30 GMT-0600 (Central Standard Time),449170.89999999106,A,ca,I,a,129,1,549.5,448621.39999999106,8016,WL,C,8.0
3,19.776999950408936,learn,40223.000049591064,Tue Feb 18 2025 14:51:30 GMT-0600 (Central Standard Time),449237.59999999404,A,cam,I,m,59,1,616.2000000029802,448621.39999999106,8016,WL,C,8.0
3,19.91100001335144,learn,40088.99998664856,Tue Feb 18 2025 14:51:30 GMT-0600 (Central Standard Time),449370.89999999106,A,camp,I,p,121,1,749.5,448621.39999999106,8016,WL,C,8.0
3,20.276999950408936,learn,39723.000049591064,Tue Feb 18 2025 14:51:30 GMT-0600 (Central Standard Time),449737.39999999106,A,campenter,I,enter,356,1,1116.0,448621.39999999106,8016,WL,C,8.0
3,27.54200005531311,learn,32457.99994468689,Tue Feb 18 2025 14:51:30 GMT-0600 (Central Standard Time),457001.89999999106,A,l,I,l,7253,1,7264.199999988079,449737.700000003,8016,WL,C,9.0
3,27.77500009536743,learn,32224.99990463257,Tue Feb 18 2025 14:51:30 GMT-0600 (Central Standard Time),457235.09999999404,A,le,I,e,220,1,7497.399999991059,449737.700000003,8016,WL,C,9.0
3,28.007999897003174,learn,31992.000102996826,Tue Feb 18 2025 14:51:30 GMT-0600 (Central Standard Time),457468.09999999404,A,let,I,t,227,1,7730.399999991059,449737.700000003,8016,WL,C,9.0
3,28.174999952316284,learn,31825.000047683716,Tue Feb 18 2025 14:51:30 GMT-0600 (Central Standard Time),457635.200000003,A,lett,I,t,146,1,7897.5,449737.700000003,8016,WL,C,9.0
3,28.341000080108643,learn,31658.999919891357,Tue Feb 18 2025 14:51:30 GMT-0600 (Central Standard Time),457801.59999999404,A,lette,I,e,155,1,8063.899999991059,449737.700000003,8016,WL,C,9.0
3,28.44099998474121,learn,31559.00001525879,Tue Feb 18 2025 14:51:30 GMT-0600 (Central Standard Time),457901.5,A,letter,I,r,84,1,8163.79999999702,449737.700000003,8016,WL,C,9.0
3,28.54099988937378,learn,31459.00011062622,Tue Feb 18 2025 14:51:30 GMT-0600 (Central Standard Time),458001.5,A,letterenter,I,enter,80,1,8263.79999999702,449737.700000003,8016,WL,C,9.0
3,33.60599994659424,learn,26394.00005340576,Tue Feb 18 2025 14:51:30 GMT-0600 (Central Standard Time),463066.5,A,c,I,c,5045,1,5064.5,458002.0,8016,WL,C,10.0
3,33.67300009727478,learn,26326.99990272522,Tue Feb 18 2025 14:51:30 GMT-0600 (Central Standard Time),463133.200000003,A,co,I,o,59,1,5131.20000000298,458002.0,8016,WL,C,10.0
3,33.85599994659424,learn,26144.00005340576,Tue Feb 18 2025 14:51:30 GMT-0600 (Central Standard Time),463316.39999999106,A,cor,I,r,177,1,5314.399999991059,458002.0,8016,WL,C,10.0
3,33.956000089645386,learn,26043.999910354614,Tue Feb 18 2025 14:51:30 GMT-0600 (Central Standard Time),463416.39999999106,A,corn,I,n,90,1,5414.399999991059,458002.0,8016,WL,C,10.0
3,34.223000049591064,learn,25776.999950408936,Tue Feb 18 2025 14:51:30 GMT-0600 (Central Standard Time),463683.0,A,cornenter,I,enter,254,1,5681.0,458002.0,8016,WL,C,10.0
3,34.789000034332275,learn,25210.999965667725,Tue Feb 18 2025 14:51:30 GMT-0600 (Central Standard Time),464249.5,A,c,I,c,547,1,566.2000000029802,463683.299999997,8016,WL,C,11.0
3,34.973000049591064,learn,25026.999950408936,Tue Feb 18 2025 14:51:30 GMT-0600 (Central Standard Time),464432.89999999106,A,ca,I,a,163,1,749.5999999940395,463683.299999997,8016,WL,C,11.0
3,35.206000089645386,learn,24793.999910354614,Tue Feb 18 2025 14:51:30 GMT-0600 (Central Standard Time),464666.09999999404,A,cat,I,t,222,1,982.7999999970198,463683.299999997,8016,WL,C,11.0
3,35.32200002670288,learn,24677.99997329712,Tue Feb 18 2025 14:51:30 GMT-0600 (Central Standard Time),464782.59999999404,A,catt,I,t,108,1,1099.2999999970198,463683.299999997,8016,WL,C,11.0
3,35.48900008201599,learn,24510.99991798401,Tue Feb 18 2025 14:51:30 GMT-0600 (Central Standard Time),464949.39999999106,A,cattl,I,l,152,1,1266.0999999940395,463683.299999997,8016,WL,C,11.0
3,35.638999938964844,learn,24361.000061035156,Tue Feb 18 2025 14:51:30 GMT-0600 (Central Standard Time),465099.5,A,cattle,I,e,137,1,1416.2000000029802,463683.299999997,8016,WL,C,11.0
3,35.92199993133545,learn,24078.00006866455,Tue Feb 18 2025 14:51:30 GMT-0600 (Central Standard Time),465382.5,A,cattleenter,I,enter,275,1,1699.2000000029802,463683.299999997,8016,WL,C,11.0
3,38.38800001144409,learn,21611.99998855591,Tue Feb 18 2025 14:51:30 GMT-0600 (Central Standard Time),467848.39999999106,A,s,I,s,2456,1,2465.5999999940395,465382.799999997,8016,WL,C,12.0
3,38.454999923706055,learn,21545.000076293945,Tue Feb 18 2025 14:51:30 GMT-0600 (Central Standard Time),467915.200000003,A,sh,I,h,62,1,2532.4000000059605,465382.799999997,8016,WL,C,12.0
3,38.57100009918213,learn,21428.99990081787,Tue Feb 18 2025 14:51:30 GMT-0600 (Central Standard Time),468031.59999999404,A,sho,I,o,99,1,2648.7999999970198,465382.799999997,8016,WL,C,12.0
3,38.704999923706055,learn,21295.000076293945,Tue Feb 18 2025 14:51:30 GMT-0600 (Central Standard Time),468165.0,A,shor,I,r,119,1,2782.2000000029802,465382.799999997,8016,WL,C,12.0
3,38.937999963760376,learn,21062.000036239624,Tue Feb 18 2025 14:51:30 GMT-0600 (Central Standard Time),468398.09999999404,A,shore,I,e,226,1,3015.2999999970198,465382.799999997,8016,WL,C,12.0
3,39.08800005912781,learn,20911.999940872192,Tue Feb 18 2025 14:51:30 GMT-0600 (Central Standard Time),468548.5,A,shoreenter,I,enter,136,1,3165.7000000029802,465382.799999997,8016,WL,C,12.0
3,50.28399991989136,learn,9716.000080108643,Tue Feb 18 2025 14:51:30 GMT-0600 (Central Standard Time),479744.799999997,A,h,I,h,11178,1,11196.09999999404,468548.700000003,8016,WL,C,13.0
3,50.41799998283386,learn,9582.000017166138,Tue Feb 18 2025 14:51:30 GMT-0600 (Central Standard Time),479878.09999999404,A,ho,I,o,125,1,11329.39999999106,468548.700000003,8016,WL,C,13.0
3,50.651000022888184,learn,9348.999977111816,Tue Feb 18 2025 14:51:30 GMT-0600 (Central Standard Time),480111.200000003,A,hom,I,m,224,1,11562.5,468548.700000003,8016,WL,C,13.0
3,50.75099992752075,learn,9249.000072479248,Tue Feb 18 2025 14:51:30 GMT-0600 (Central Standard Time),480211.200000003,A,home,I,e,87,1,11662.5,468548.700000003,8016,WL,C,13.0
3,50.91700005531311,learn,9082.99994468689,Tue Feb 18 2025 14:51:30 GMT-0600 (Central Standard Time),480378.0,A,homeenter,I,enter,147,1,11829.29999999702,468548.700000003,8016,WL,C,13.0
3,57.931999921798706,learn,2068.000078201294,Tue Feb 18 2025 14:51:30 GMT-0600 (Central Standard Time),487392.200000003,A,f,I,f,7005,1,7014.0,480378.200000003,8016,WL,C,14.0
3,58.06500005722046,learn,1934.999942779541,Tue Feb 18 2025 14:51:30 GMT-0600 (Central Standard Time),487525.799999997,A,fl,I,l,118,1,7147.5999999940395,480378.200000003,8016,WL,C,14.0
3,58.16499996185303,learn,1835.0000381469727,Tue Feb 18 2025 14:51:30 GMT-0600 (Central Standard Time),487625.59999999404,A,fla,I,a,81,1,7247.399999991059,480378.200000003,8016,WL,C,14.0
3,58.41499996185303,learn,1585.0000381469727,Tue Feb 18 2025 14:51:30 GMT-0600 (Central Standard Time),487875.5,A,flag,I,g,230,1,7497.29999999702,480378.200000003,8016,WL,C,14.0
3,58.515000104904175,learn,1484.9998950958252,Tue Feb 18 2025 14:51:30 GMT-0600 (Central Standard Time),487975.39999999106,A,flagenter,I,enter,91,1,7597.199999988079,480378.200000003,8016,WL,C,14.0
3,60.013999938964844,learn,-13.99993896484375,Tue Feb 18 2025 14:51:30 GMT-0600 (Central Standard Time),489474.89999999106,A,None,I,None,1495,1,1499.199999988079,487975.700000003,8016,WL,C,15.0
4,0.7829999923706055,learn,59217.000007629395,Tue Feb 18 2025 14:51:30 GMT-0600 (Central Standard Time),559036.5,A,c,I,c,769,1,782.7000000029802,558253.799999997,8016,WL,C,1.0
4,0.9330000877380371,learn,59066.99991226196,Tue Feb 18 2025 14:51:30 GMT-0600 (Central Standard Time),559186.299999997,A,co,I,o,129,1,932.5,558253.799999997,8016,WL,C,1.0
4,1.0829999446868896,learn,58917.00005531311,Tue Feb 18 2025 14:51:30 GMT-0600 (Central Standard Time),559336.3999999911,A,cor,I,r,140,1,1082.5999999940395,558253.799999997,8016,WL,C,1.0
4,1.25,learn,58750.0,Tue Feb 18 2025 14:51:30 GMT-0600 (Central Standard Time),559503.299999997,A,corn,I,n,150,1,1249.5,558253.799999997,8016,WL,C,1.0
4,1.815999984741211,learn,58184.00001525879,Tue Feb 18 2025 14:51:30 GMT-0600 (Central Standard Time),560069.5,A,cornenter,I,enter,551,1,1815.7000000029802,558253.799999997,8016,WL,C,1.0
4,4.115000009536743,learn,55884.99999046326,Tue Feb 18 2025 14:51:30 GMT-0600 (Central Standard Time),562368.799999997,A,c,I,c,2289,1,2299.0999999940395,560069.700000003,8016,WL,C,2.0
4,4.29800009727478,learn,55701.99990272522,Tue Feb 18 2025 14:51:30 GMT-0600 (Central Standard Time),562552.0,A,ca,I,a,166,1,2482.2999999970198,560069.700000003,8016,WL,C,2.0
4,4.482000112533569,learn,55517.99988746643,Tue Feb 18 2025 14:51:30 GMT-0600 (Central Standard Time),562735.3999999911,A,cat,I,t,174,1,2665.699999988079,560069.700000003,8016,WL,C,2.0
4,4.648000001907349,learn,55351.99999809265,Tue Feb 18 2025 14:51:30 GMT-0600 (Central Standard Time),562902.0,A,catt,I,t,151,1,2832.2999999970198,560069.700000003,8016,WL,C,2.0
4,4.7809998989105225,learn,55219.00010108948,Tue Feb 18 2025 14:51:30 GMT-0600 (Central Standard Time),563035.200000003,A,cattl,I,l,121,1,2965.5,560069.700000003,8016,WL,C,2.0
4,4.898000001907349,learn,55101.99999809265,Tue Feb 18 2025 14:51:30 GMT-0600 (Central Standard Time),563151.8999999911,A,cattle,I,e,99,1,3082.199999988079,560069.700000003,8016,WL,C,2.0
4,5.180999994277954,learn,54819.000005722046,Tue Feb 18 2025 14:51:30 GMT-0600 (Central Standard Time),563435.200000003,A,cattleenter,I,enter,263,1,3365.5,560069.700000003,8016,WL,C,2.0
4,5.747999906539917,learn,54252.00009346008,Tue Feb 18 2025 14:51:30 GMT-0600 (Central Standard Time),564001.599999994,A,n,I,n,547,1,566.0999999940395,563435.5,8016,WL,C,3.0
4,5.914999961853027,learn,54085.00003814697,Tue Feb 18 2025 14:51:30 GMT-0600 (Central Standard Time),564168.5,A,na,I,a,157,1,733.0,563435.5,8016,WL,C,3.0
4,6.013999938964844,learn,53986.000061035156,Tue Feb 18 2025 14:51:30 GMT-0600 (Central Standard Time),564268.099999994,A,nai,I,i,94,1,832.5999999940395,563435.5,8016,WL,C,3.0
4,6.247999906539917,learn,53752.00009346008,Tue Feb 18 2025 14:51:30 GMT-0600 (Central Standard Time),564501.3999999911,A,nail,I,l,218,1,1065.8999999910593,563435.5,8016,WL,C,3.0
4,6.763999938964844,learn,53236.000061035156,Tue Feb 18 2025 14:51:30 GMT-0600 (Central Standard Time),565017.799999997,A,nailenter,I,enter,505,1,1582.2999999970198,563435.5,8016,WL,C,3.0
4,7.664000034332275,learn,52335.999965667725,Tue Feb 18 2025 14:51:30 GMT-0600 (Central Standard Time),565917.700000003,A,s,I,s,892,1,899.6000000089407,565018.099999994,8016,WL,C,4.0
4,7.746999979019165,learn,52253.000020980835,Tue Feb 18 2025 14:51:30 GMT-0600 (Central Standard Time),566001.200000003,A,sh,I,h,73,1,983.1000000089407,565018.099999994,8016,WL,C,4.0
4,7.832000017166138,learn,52167.99998283386,Tue Feb 18 2025 14:51:30 GMT-0600 (Central Standard Time),566085.299999997,A,sho,I,o,77,1,1067.2000000029802,565018.099999994,8016,WL,C,4.0
4,7.980999946594238,learn,52019.00005340576,Tue Feb 18 2025 14:51:30 GMT-0600 (Central Standard Time),566234.5,A,shor,I,r,137,1,1216.4000000059605,565018.099999994,8016,WL,C,4.0
4,8.180999994277954,learn,51819.000005722046,Tue Feb 18 2025 14:51:30 GMT-0600 (Central Standard Time),566434.299999997,A,shore,I,e,180,1,1416.2000000029802,565018.099999994,8016,WL,C,4.0
4,8.329999923706055,learn,51670.000076293945,Tue Feb 18 2025 14:51:30 GMT-0600 (Central Standard Time),566584.0,A,shoreenter,I,enter,132,1,1565.9000000059605,565018.099999994,8016,WL,C,4.0
4,8.79699993133545,learn,51203.00006866455,Tue Feb 18 2025 14:51:30 GMT-0600 (Central Standard Time),567050.599999994,A,b,I,b,447,1,466.20000000298023,566584.3999999911,8016,WL,C,5.0
4,8.864000082015991,learn,51135.99991798401,Tue Feb 18 2025 14:51:30 GMT-0600 (Central Standard Time),567118.099999994,A,bo,I,o,59,1,533.7000000029802,566584.3999999911,8016,WL,C,5.0
4,9.130000114440918,learn,50869.99988555908,Tue Feb 18 2025 14:51:30 GMT-0600 (Central Standard Time),567383.799999997,A,bod,I,d,248,1,799.4000000059605,566584.3999999911,8016,WL,C,5.0
4,9.263000011444092,learn,50736.99998855591,Tue Feb 18 2025 14:51:30 GMT-0600 (Central Standard Time),567517.0,A,body,I,y,127,1,932.6000000089407,566584.3999999911,8016,WL,C,5.0
4,9.647000074386597,learn,50352.9999256134,Tue Feb 18 2025 14:51:30 GMT-0600 (Central Standard Time),567900.299999997,A,bodyenter,I,enter,369,1,1315.9000000059605,566584.3999999911,8016,WL,C,5.0
4,10.645999908447266,learn,49354.000091552734,Tue Feb 18 2025 14:51:30 GMT-0600 (Central Standard Time),568900.299999997,A,b,I,b,985,1,999.5,567900.799999997,8016,WL,C,6.0
4,10.713000059127808,learn,49286.99994087219,Tue Feb 18 2025 14:51:30 GMT-0600 (Central Standard Time),568966.799999997,A,bo,I,o,58,1,1066.0,567900.799999997,8016,WL,C,6.0
4,10.895999908447266,learn,49104.000091552734,Tue Feb 18 2025 14:51:30 GMT-0600 (Central Standard Time),569150.099999994,A,boy,I,y,167,1,1249.2999999970198,567900.799999997,8016,WL,C,6.0
4,11.595999956130981,learn,48404.00004386902,Tue Feb 18 2025 14:51:30 GMT-0600 (Central Standard Time),569849.799999997,A,boyenter,I,enter,680,1,1949.0,567900.799999997,8016,WL,C,6.0
4,12.145999908447266,learn,47854.000091552734,Tue Feb 18 2025 14:51:30 GMT-0600 (Central Standard Time),570399.700000003,A,d,I,d,533,1,549.4000000059605,569850.299999997,8016,WL,C,7.0
4,12.229000091552734,learn,47770.999908447266,Tue Feb 18 2025 14:51:30 GMT-0600 (Central Standard Time),570482.8999999911,A,do,I,o,71,1,632.5999999940395,569850.299999997,8016,WL,C,7.0
4,12.380000114440918,learn,47619.99988555908,Tue Feb 18 2025 14:51:30 GMT-0600 (Central Standard Time),570633.8999999911,A,doc,I,c,140,1,783.5999999940395,569850.299999997,8016,WL,C,7.0
4,12.845999956130981,learn,47154.00004386902,Tue Feb 18 2025 14:51:30 GMT-0600 (Central Standard Time),571099.5,A,doct,I,t,445,1,1249.2000000029802,569850.299999997,8016,WL,C,7.0
4,12.979000091552734,learn,47020.999908447266,Tue Feb 18 2025 14:51:30 GMT-0600 (Central Standard Time),571232.700000003,A,docto,I,o,123,1,1382.4000000059605,569850.299999997,8016,WL,C,7.0
4,13.128999948501587,learn,46871.00005149841,Tue Feb 18 2025 14:51:30 GMT-0600 (Central Standard Time),571382.5,A,doctor,I,r,142,1,1532.2000000029802,569850.299999997,8016,WL,C,7.0
4,13.545000076293945,learn,46454.999923706055,Tue Feb 18 2025 14:51:30 GMT-0600 (Central Standard Time),571799.099999994,A,doctorenter,I,enter,408,1,1948.7999999970198,569850.299999997,8016,WL,C,7.0
4,15.01200008392334,learn,44987.99991607666,Tue Feb 18 2025 14:51:30 GMT-0600 (Central Standard Time),573265.5,A,c,I,c,1456,1,1466.1000000089407,571799.3999999911,8016,WL,C,8.0
4,15.17799997329712,learn,44822.00002670288,Tue Feb 18 2025 14:51:30 GMT-0600 (Central Standard Time),573432.200000003,A,ca,I,a,157,1,1632.800000011921,571799.3999999911,8016,WL,C,8.0
4,15.278000116348267,learn,44721.99988365173,Tue Feb 18 2025 14:51:30 GMT-0600 (Central Standard Time),573531.8999999911,A,cam,I,m,94,1,1732.5,571799.3999999911,8016,WL,C,8.0
4,15.361000061035156,learn,44638.999938964844,Tue Feb 18 2025 14:51:30 GMT-0600 (Central Standard Time),573615.299999997,A,camp,I,p,75,1,1815.9000000059605,571799.3999999911,8016,WL,C,8.0
4,15.727999925613403,learn,44272.0000743866,Tue Feb 18 2025 14:51:30 GMT-0600 (Central Standard Time),573982.0,A,campenter,I,enter,359,1,2182.6000000089407,571799.3999999911,8016,WL,C,8.0
4,16.460999965667725,learn,43539.000034332275,Tue Feb 18 2025 14:51:30 GMT-0600 (Central Standard Time),574715.0,A,l,I,l,712,1,732.7000000029802,573982.299999997,8016,WL,C,9.0
4,16.57800006866455,learn,43421.99993133545,Tue Feb 18 2025 14:51:30 GMT-0600 (Central Standard Time),574831.5,A,le,I,e,107,1,849.2000000029802,573982.299999997,8016,WL,C,9.0
4,16.778000116348267,learn,43221.99988365173,Tue Feb 18 2025 14:51:30 GMT-0600 (Central Standard Time),575031.299999997,A,let,I,t,191,1,1049.0,573982.299999997,8016,WL,C,9.0
4,16.944000005722046,learn,43055.999994277954,Tue Feb 18 2025 14:51:30 GMT-0600 (Central Standard Time),575198.299999997,A,lett,I,t,151,1,1216.0,573982.299999997,8016,WL,C,9.0
4,17.111000061035156,learn,42888.999938964844,Tue Feb 18 2025 14:51:30 GMT-0600 (Central Standard Time),575364.8999999911,A,lette,I,e,161,1,1382.5999999940395,573982.299999997,8016,WL,C,9.0
4,17.210999965667725,learn,42789.000034332275,Tue Feb 18 2025 14:51:30 GMT-0600 (Central Standard Time),575464.700000003,A,letter,I,r,90,1,1482.4000000059605,573982.299999997,8016,WL,C,9.0
4,17.39400005340576,learn,42605.99994659424,Tue Feb 18 2025 14:51:30 GMT-0600 (Central Standard Time),575648.0,A,letterenter,I,enter,166,1,1665.7000000029802,573982.299999997,8016,WL,C,9.0
4,17.811000108718872,learn,42188.99989128113,Tue Feb 18 2025 14:51:30 GMT-0600 (Central Standard Time),576064.599999994,A,f,I,f,399,1,416.29999999701977,575648.299999997,8016,WL,C,10.0
4,17.944000005722046,learn,42055.999994277954,Tue Feb 18 2025 14:51:30 GMT-0600 (Central Standard Time),576197.8999999911,A,fl,I,l,126,1,549.5999999940395,575648.299999997,8016,WL,C,10.0
4,18.043999910354614,learn,41956.000089645386,Tue Feb 18 2025 14:51:30 GMT-0600 (Central Standard Time),576297.799999997,A,fla,I,a,89,1,649.5,575648.299999997,8016,WL,C,10.0
4,18.293999910354614,learn,41706.000089645386,Tue Feb 18 2025 14:51:30 GMT-0600 (Central Standard Time),576547.8999999911,A,flag,I,g,236,1,899.5999999940395,575648.299999997,8016,WL,C,10.0
4,18.51099991798401,learn,41489.00008201599,Tue Feb 18 2025 14:51:30 GMT-0600 (Central Standard Time),576764.299999997,A,flagenter,I,enter,203,1,1116.0,575648.299999997,8016,WL,C,10.0
4,21.243000030517578,learn,38756.99996948242,Tue Feb 18 2025 14:51:30 GMT-0600 (Central Standard Time),579496.799999997,A,t,I,t,2714,1,2732.2000000029802,576764.599999994,8016,WL,C,11.0
4,21.342999935150146,learn,38657.00006484985,Tue Feb 18 2025 14:51:30 GMT-0600 (Central Standard Time),579596.799999997,A,to,I,o,93,1,2832.2000000029802,576764.599999994,8016,WL,C,11.0
4,21.493000030517578,learn,38506.99996948242,Tue Feb 18 2025 14:51:30 GMT-0600 (Central Standard Time),579746.599999994,A,tow,I,w,138,1,2982.0,576764.599999994,8016,WL,C,11.0
4,21.676000118255615,learn,38323.999881744385,Tue Feb 18 2025 14:51:30 GMT-0600 (Central Standard Time),579930.200000003,A,towe,I,e,172,1,3165.6000000089407,576764.599999994,8016,WL,C,11.0
4,21.759999990463257,learn,38240.00000953674,Tue Feb 18 2025 14:51:30 GMT-0600 (Central Standard Time),580013.299999997,A,tower,I,r,68,1,3248.7000000029802,576764.599999994,8016,WL,C,11.0
4,21.89300012588501,learn,38106.99987411499,Tue Feb 18 2025 14:51:30 GMT-0600 (Central Standard Time),580146.8999999911,A,towerenter,I,enter,113,1,3382.2999999970198,576764.599999994,8016,WL,C,11.0
4,24.02500009536743,learn,35974.99990463257,Tue Feb 18 2025 14:51:30 GMT-0600 (Central Standard Time),582279.0,A,w,I,w,2124,1,2131.7999999970198,580147.200000003,8016,WL,C,12.0
4,24.22499990463257,learn,35775.00009536743,Tue Feb 18 2025 14:51:30 GMT-0600 (Central Standard Time),582479.099999994,A,wh,I,h,192,1,2331.8999999910593,580147.200000003,8016,WL,C,12.0
4,24.29200005531311,learn,35707.99994468689,Tue Feb 18 2025 14:51:30 GMT-0600 (Central Standard Time),582545.8999999911,A,whe,I,e,55,1,2398.699999988079,580147.200000003,8016,WL,C,12.0
4,24.424999952316284,learn,35575.000047683716,Tue Feb 18 2025 14:51:30 GMT-0600 (Central Standard Time),582678.8999999911,A,whea,I,a,125,1,2531.699999988079,580147.200000003,8016,WL,C,12.0
4,24.575999975204468,learn,35424.00002479553,Tue Feb 18 2025 14:51:30 GMT-0600 (Central Standard Time),582829.299999997,A,wheat,I,t,143,1,2682.0999999940395,580147.200000003,8016,WL,C,12.0
4,24.70900011062622,learn,35290.99988937378,Tue Feb 18 2025 14:51:30 GMT-0600 (Central Standard Time),582962.599999994,A,wheatenter,I,enter,113,1,2815.3999999910593,580147.200000003,8016,WL,C,12.0
4,25.325000047683716,learn,34674.999952316284,Tue Feb 18 2025 14:51:30 GMT-0600 (Central Standard Time),583578.8999999911,A,q,I,q,604,1,615.8999999910593,582963.0,8016,WL,C,13.0
4,25.441999912261963,learn,34558.00008773804,Tue Feb 18 2025 14:51:30 GMT-0600 (Central Standard Time),583695.599999994,A,qu,I,u,100,1,732.5999999940395,582963.0,8016,WL,C,13.0
4,25.60800004005432,learn,34391.99995994568,Tue Feb 18 2025 14:51:30 GMT-0600 (Central Standard Time),583862.099999994,A,que,I,e,151,1,899.0999999940395,582963.0,8016,WL,C,13.0
4,25.742000102996826,learn,34257.999897003174,Tue Feb 18 2025 14:51:30 GMT-0600 (Central Standard Time),583995.200000003,A,quee,I,e,128,1,1032.2000000029802,582963.0,8016,WL,C,13.0
4,25.875,learn,34125.0,Tue Feb 18 2025 14:51:30 GMT-0600 (Central Standard Time),584128.700000003,A,queen,I,n,115,1,1165.7000000029802,582963.0,8016,WL,C,13.0
4,26.219000101089478,learn,33780.99989891052,Tue Feb 18 2025 14:51:30 GMT-0600 (Central Standard Time),584472.799999997,A,queenenter,I,enter,340,1,1509.7999999970198,582963.0,8016,WL,C,13.0
4,29.091000080108643,learn,30908.999919891357,Tue Feb 18 2025 14:51:30 GMT-0600 (Central Standard Time),587344.299999997,A,s,I,s,2861,1,2871.2000000029802,584473.099999994,8016,WL,C,14.0
4,29.141000032424927,learn,30858.999967575073,Tue Feb 18 2025 14:51:30 GMT-0600 (Central Standard Time),587394.3999999911,A,su,I,u,30,1,2921.2999999970198,584473.099999994,8016,WL,C,14.0
4,29.641000032424927,learn,30358.999967575073,Tue Feb 18 2025 14:51:30 GMT-0600 (Central Standard Time),587894.3999999911,A,sug,I,g,484,1,3421.2999999970198,584473.099999994,8016,WL,C,14.0
4,29.806999921798706,learn,30193.000078201294,Tue Feb 18 2025 14:51:30 GMT-0600 (Central Standard Time),588060.8999999911,A,suga,I,a,152,1,3587.7999999970198,584473.099999994,8016,WL,C,14.0
4,29.990000009536743,learn,30009.999990463257,Tue Feb 18 2025 14:51:30 GMT-0600 (Central Standard Time),588243.8999999911,A,sugar,I,r,163,1,3770.7999999970198,584473.099999994,8016,WL,C,14.0
4,30.223999977111816,learn,29776.000022888184,Tue Feb 18 2025 14:51:30 GMT-0600 (Central Standard Time),588477.299999997,A,sugarenter,I,enter,227,1,4004.2000000029802,584473.099999994,8016,WL,C,14.0
4,30.622999906539917,learn,29377.000093460083,Tue Feb 18 2025 14:51:30 GMT-0600 (Central Standard Time),588877.200000003,A,h,I,h,393,1,399.5,588477.700000003,8016,WL,C,15.0
4,30.756999969482422,learn,29243.000030517578,Tue Feb 18 2025 14:51:30 GMT-0600 (Central Standard Time),589010.5,A,ho,I,o,114,1,532.7999999970198,588477.700000003,8016,WL,C,15.0
4,30.94000005722046,learn,29059.99994277954,Tue Feb 18 2025 14:51:30 GMT-0600 (Central Standard Time),589194.099999994,A,hom,I,m,164,1,716.3999999910593,588477.700000003,8016,WL,C,15.0
4,31.039999961853027,learn,28960.000038146973,Tue Feb 18 2025 14:51:30 GMT-0600 (Central Standard Time),589293.8999999911,A,home,I,e,92,1,816.1999999880791,588477.700000003,8016,WL,C,15.0
4,31.17300009727478,learn,28826.99990272522,Tue Feb 18 2025 14:51:30 GMT-0600 (Central Standard Time),589427.0,A,homeenter,I,enter,113,1,949.2999999970198,588477.700000003,8016,WL,C,15.0
5,1.7990000247955322,learn,60000.0,Tue Feb 18 2025 14:51:30 GMT-0600 (Central Standard Time),664986.5,A,c,I,c,1780,1,1799.2000000029802,663187.299999997,8016,WL,C,1.0
5,1.8659999370574951,learn,60000.0,Tue Feb 18 2025 14:51:30 GMT-0600 (Central Standard Time),665053.200000003,A,co,I,o,60,1,1865.9000000059605,663187.299999997,8016,WL,C,1.0
5,2.065999984741211,learn,60000.0,Tue Feb 18 2025 14:51:30 GMT-0600 (Central Standard Time),665253.0,A,cor,I,r,183,1,2065.7000000029802,663187.299999997,8016,WL,C,1.0
5,2.1659998893737793,learn,60000.0,Tue Feb 18 2025 14:51:30 GMT-0600 (Central Standard Time),665352.8999999911,A,corn,I,n,80,1,2165.5999999940395,663187.299999997,8016,WL,C,1.0
5,2.4819998741149902,learn,60000.0,Tue Feb 18 2025 14:51:30 GMT-0600 (Central Standard Time),665669.5,A,cornenter,I,enter,302,1,2482.2000000029802,663187.299999997,8016,WL,C,1.0
5,3.631999969482422,learn,60000.0,Tue Feb 18 2025 14:51:30 GMT-0600 (Central Standard Time),666819.3999999911,A,n,I,n,1145,1,1149.699999988079,665669.700000003,8016,WL,C,2.0
5,3.7990000247955322,learn,60000.0,Tue Feb 18 2025 14:51:30 GMT-0600 (Central Standard Time),666986.3999999911,A,na,I,a,155,1,1316.699999988079,665669.700000003,8016,WL,C,2.0
5,3.9149999618530273,learn,60000.0,Tue Feb 18 2025 14:51:30 GMT-0600 (Central Standard Time),667102.099999994,A,nai,I,i,107,1,1432.3999999910593,665669.700000003,8016,WL,C,2.0
5,4.097999811172485,learn,60000.0,Tue Feb 18 2025 14:51:30 GMT-0600 (Central Standard Time),667285.599999994,A,nail,I,l,177,1,1615.8999999910593,665669.700000003,8016,WL,C,2.0
5,4.365000009536743,learn,60000.0,Tue Feb 18 2025 14:51:30 GMT-0600 (Central Standard Time),667552.5,A,nailenter,I,enter,256,1,1882.7999999970198,665669.700000003,8016,WL,C,2.0
5,4.914999961853027,learn,60000.0,Tue Feb 18 2025 14:51:30 GMT-0600 (Central Standard Time),668102.0,A,c,I,c,542,1,549.2000000029802,667552.799999997,8016,WL,C,3.0
5,5.097999811172485,learn,60000.0,Tue Feb 18 2025 14:51:30 GMT-0600 (Central Standard Time),668285.299999997,A,ca,I,a,168,1,732.5,667552.799999997,8016,WL,C,3.0
5,5.297999858856201,learn,60000.0,Tue Feb 18 2025 14:51:30 GMT-0600 (Central Standard Time),668485.200000003,A,cat,I,t,185,1,932.4000000059605,667552.799999997,8016,WL,C,3.0
5,5.4649999141693115,learn,60000.0,Tue Feb 18 2025 14:51:30 GMT-0600 (Central Standard Time),668651.799999997,A,catt,I,t,153,1,1099.0,667552.799999997,8016,WL,C,3.0
5,5.580999851226807,learn,60000.0,Tue Feb 18 2025 14:51:30 GMT-0600 (Central Standard Time),668768.3999999911,A,cattl,I,l,107,1,1215.5999999940395,667552.799999997,8016,WL,C,3.0
5,5.697999954223633,learn,60000.0,Tue Feb 18 2025 14:51:30 GMT-0600 (Central Standard Time),668885.200000003,A,cattle,I,e,102,1,1332.4000000059605,667552.799999997,8016,WL,C,3.0
5,5.898000001907349,learn,60000.0,Tue Feb 18 2025 14:51:30 GMT-0600 (Central Standard Time),669085.099999994,A,cattleenter,I,enter,185,1,1532.2999999970198,667552.799999997,8016,WL,C,3.0
5,6.347999811172485,learn,60000.0,Tue Feb 18 2025 14:51:30 GMT-0600 (Central Standard Time),669535.200000003,A,s,I,s,433,1,449.90000000596046,669085.299999997,8016,WL,C,4.0
5,6.447999954223633,learn,60000.0,Tue Feb 18 2025 14:51:30 GMT-0600 (Central Standard Time),669635.299999997,A,sh,I,h,95,1,550.0,669085.299999997,8016,WL,C,4.0
5,6.547999858856201,learn,60000.0,Tue Feb 18 2025 14:51:30 GMT-0600 (Central Standard Time),669735.099999994,A,sho,I,o,91,1,649.7999999970198,669085.299999997,8016,WL,C,4.0
5,6.664999961853027,learn,60000.0,Tue Feb 18 2025 14:51:30 GMT-0600 (Central Standard Time),669851.799999997,A,shor,I,r,103,1,766.5,669085.299999997,8016,WL,C,4.0
5,6.88100004196167,learn,60000.0,Tue Feb 18 2025 14:51:30 GMT-0600 (Central Standard Time),670068.3999999911,A,shore,I,e,203,1,983.0999999940395,669085.299999997,8016,WL,C,4.0
5,7.014999866485596,learn,60000.0,Tue Feb 18 2025 14:51:30 GMT-0600 (Central Standard Time),670201.8999999911,A,shoreenter,I,enter,114,1,1116.5999999940395,669085.299999997,8016,WL,C,4.0
5,7.480999946594238,learn,60000.0,Tue Feb 18 2025 14:51:30 GMT-0600 (Central Standard Time),670667.8999999911,A,b,I,b,461,1,465.69999998807907,670202.200000003,8016,WL,C,5.0
5,7.547999858856201,learn,60000.0,Tue Feb 18 2025 14:51:30 GMT-0600 (Central Standard Time),670734.8999999911,A,bo,I,o,58,1,532.6999999880791,670202.200000003,8016,WL,C,5.0
5,7.813999891281128,learn,60000.0,Tue Feb 18 2025 14:51:30 GMT-0600 (Central Standard Time),671001.3999999911,A,bod,I,d,247,1,799.1999999880791,670202.200000003,8016,WL,C,5.0
5,7.914000034332275,learn,60000.0,Tue Feb 18 2025 14:51:30 GMT-0600 (Central Standard Time),671101.3999999911,A,body,I,y,93,1,899.1999999880791,670202.200000003,8016,WL,C,5.0
5,8.246999979019165,learn,60000.0,Tue Feb 18 2025 14:51:30 GMT-0600 (Central Standard Time),671434.700000003,A,bodyenter,I,enter,321,1,1232.5,670202.200000003,8016,WL,C,5.0
5,9.29699993133545,learn,60000.0,Tue Feb 18 2025 14:51:30 GMT-0600 (Central Standard Time),672484.099999994,A,b,I,b,1044,1,1049.0999999940395,671435.0,8016,WL,C,6.0
5,9.396999835968018,learn,60000.0,Tue Feb 18 2025 14:51:30 GMT-0600 (Central Standard Time),672584.200000003,A,bo,I,o,82,1,1149.2000000029802,671435.0,8016,WL,C,6.0
5,9.563999891281128,learn,60000.0,Tue Feb 18 2025 14:51:30 GMT-0600 (Central Standard Time),672751.099999994,A,boy,I,y,150,1,1316.0999999940395,671435.0,8016,WL,C,6.0
5,9.896999835968018,learn,60000.0,Tue Feb 18 2025 14:51:30 GMT-0600 (Central Standard Time),673084.0,A,boyenter,I,enter,327,1,1649.0,671435.0,8016,WL,C,6.0
5,10.513000011444092,learn,60000.0,Tue Feb 18 2025 14:51:30 GMT-0600 (Central Standard Time),673700.599999994,A,d,I,d,600,1,616.2999999970198,673084.299999997,8016,WL,C,7.0
5,10.846999883651733,learn,60000.0,Tue Feb 18 2025 14:51:30 GMT-0600 (Central Standard Time),674034.0,A,do,I,o,314,1,949.7000000029802,673084.299999997,8016,WL,C,7.0
5,11.013000011444092,learn,60000.0,Tue Feb 18 2025 14:51:30 GMT-0600 (Central Standard Time),674200.5,A,doc,I,c,156,1,1116.2000000029802,673084.299999997,8016,WL,C,7.0
5,11.230000019073486,learn,60000.0,Tue Feb 18 2025 14:51:30 GMT-0600 (Central Standard Time),674417.099999994,A,doct,I,t,198,1,1332.7999999970198,673084.299999997,8016,WL,C,7.0
5,11.296000003814697,learn,60000.0,Tue Feb 18 2025 14:51:30 GMT-0600 (Central Standard Time),674483.3999999911,A,docto,I,o,61,1,1399.0999999940395,673084.299999997,8016,WL,C,7.0
5,11.86299991607666,learn,60000.0,Tue Feb 18 2025 14:51:30 GMT-0600 (Central Standard Time),675050.200000003,A,doctor,I,r,546,1,1965.9000000059605,673084.299999997,8016,WL,C,7.0
5,12.145999908447266,learn,60000.0,Tue Feb 18 2025 14:51:30 GMT-0600 (Central Standard Time),675333.5,A,doctorenter,I,enter,276,1,2249.2000000029802,673084.299999997,8016,WL,C,7.0
5,13.128999948501587,learn,60000.0,Tue Feb 18 2025 14:51:30 GMT-0600 (Central Standard Time),676316.5,A,c,I,c,969,1,982.7999999970198,675333.700000003,8016,WL,C,8.0
5,13.296000003814697,learn,60000.0,Tue Feb 18 2025 14:51:30 GMT-0600 (Central Standard Time),676483.200000003,A,ca,I,a,162,1,1149.5,675333.700000003,8016,WL,C,8.0
5,13.378999948501587,learn,60000.0,Tue Feb 18 2025 14:51:30 GMT-0600 (Central Standard Time),676566.5,A,cam,I,m,75,1,1232.7999999970198,675333.700000003,8016,WL,C,8.0
5,13.529000043869019,learn,60000.0,Tue Feb 18 2025 14:51:30 GMT-0600 (Central Standard Time),676716.299999997,A,camp,I,p,136,1,1382.5999999940395,675333.700000003,8016,WL,C,8.0
5,13.911999940872192,learn,60000.0,Tue Feb 18 2025 14:51:30 GMT-0600 (Central Standard Time),677099.599999994,A,campenter,I,enter,363,1,1765.8999999910593,675333.700000003,8016,WL,C,8.0
5,19.926999807357788,learn,60000.0,Tue Feb 18 2025 14:51:30 GMT-0600 (Central Standard Time),683114.3999999911,A,f,I,f,5994,1,6014.5999999940395,677099.799999997,8016,WL,C,9.0
5,20.05999994277954,learn,60000.0,Tue Feb 18 2025 14:51:30 GMT-0600 (Central Standard Time),683247.599999994,A,fl,I,l,123,1,6147.79999999702,677099.799999997,8016,WL,C,9.0
5,20.210000038146973,learn,60000.0,Tue Feb 18 2025 14:51:30 GMT-0600 (Central Standard Time),683397.5,A,fla,I,a,135,1,6297.70000000298,677099.799999997,8016,WL,C,9.0
5,20.460000038146973,learn,60000.0,Tue Feb 18 2025 14:51:30 GMT-0600 (Central Standard Time),683647.099999994,A,flag,I,g,233,1,6547.29999999702,677099.799999997,8016,WL,C,9.0
5,20.592999935150146,learn,60000.0,Tue Feb 18 2025 14:51:30 GMT-0600 (Central Standard Time),683780.3999999911,A,flagenter,I,enter,119,1,6680.5999999940395,677099.799999997,8016,WL,C,9.0
5,21.092999935150146,learn,60000.0,Tue Feb 18 2025 14:51:30 GMT-0600 (Central Standard Time),684280.200000003,A,l,I,l,482,1,499.5,683780.700000003,8016,WL,C,10.0
5,21.175999879837036,learn,60000.0,Tue Feb 18 2025 14:51:30 GMT-0600 (Central Standard Time),684363.5,A,le,I,e,78,1,582.7999999970198,683780.700000003,8016,WL,C,10.0
5,21.376999855041504,learn,60000.0,Tue Feb 18 2025 14:51:30 GMT-0600 (Central Standard Time),684564.0,A,let,I,t,179,1,783.2999999970198,683780.700000003,8016,WL,C,10.0
5,21.542999982833862,learn,60000.0,Tue Feb 18 2025 14:51:30 GMT-0600 (Central Standard Time),684730.3999999911,A,lett,I,t,147,1,949.6999999880791,683780.700000003,8016,WL,C,10.0
5,21.676999807357788,learn,60000.0,Tue Feb 18 2025 14:51:30 GMT-0600 (Central Standard Time),684863.8999999911,A,lette,I,e,116,1,1083.199999988079,683780.700000003,8016,WL,C,10.0
5,21.759999990463257,learn,60000.0,Tue Feb 18 2025 14:51:30 GMT-0600 (Central Standard Time),684947.200000003,A,letter,I,r,71,1,1166.5,683780.700000003,8016,WL,C,10.0
5,21.859999895095825,learn,60000.0,Tue Feb 18 2025 14:51:30 GMT-0600 (Central Standard Time),685047.0,A,letterenter,I,enter,91,1,1266.2999999970198,683780.700000003,8016,WL,C,10.0
5,22.442999839782715,learn,60000.0,Tue Feb 18 2025 14:51:30 GMT-0600 (Central Standard Time),685630.099999994,A,t,I,t,567,1,582.7000000029802,685047.3999999911,8016,WL,C,11.0
5,22.55999994277954,learn,60000.0,Tue Feb 18 2025 14:51:30 GMT-0600 (Central Standard Time),685747.099999994,A,to,I,o,96,1,699.7000000029802,685047.3999999911,8016,WL,C,11.0
5,22.692999839782715,learn,60000.0,Tue Feb 18 2025 14:51:30 GMT-0600 (Central Standard Time),685880.0,A,tow,I,w,124,1,832.6000000089407,685047.3999999911,8016,WL,C,11.0
5,22.859999895095825,learn,60000.0,Tue Feb 18 2025 14:51:30 GMT-0600 (Central Standard Time),686046.799999997,A,towe,I,e,159,1,999.4000000059605,685047.3999999911,8016,WL,C,11.0
5,22.95899987220764,learn,60000.0,Tue Feb 18 2025 14:51:30 GMT-0600 (Central Standard Time),686146.700000003,A,tower,I,r,80,1,1099.300000011921,685047.3999999911,8016,WL,C,11.0
5,23.125999927520752,learn,60000.0,Tue Feb 18 2025 14:51:30 GMT-0600 (Central Standard Time),686313.299999997,A,towerenter,I,enter,156,1,1265.9000000059605,685047.3999999911,8016,WL,C,11.0
5,24.325999975204468,learn,60000.0,Tue Feb 18 2025 14:51:30 GMT-0600 (Central Standard Time),687513.099999994,A,w,I,w,1182,1,1199.5999999940395,686313.5,8016,WL,C,12.0
5,24.47599983215332,learn,60000.0,Tue Feb 18 2025 14:51:30 GMT-0600 (Central Standard Time),687663.099999994,A,wh,I,h,141,1,1349.5999999940395,686313.5,8016,WL,C,12.0
5,24.55900001525879,learn,60000.0,Tue Feb 18 2025 14:51:30 GMT-0600 (Central Standard Time),687746.099999994,A,whe,I,e,71,1,1432.5999999940395,686313.5,8016,WL,C,12.0
5,24.691999912261963,learn,60000.0,Tue Feb 18 2025 14:51:30 GMT-0600 (Central Standard Time),687879.599999994,A,whea,I,a,117,1,1566.0999999940395,686313.5,8016,WL,C,12.0
5,24.824999809265137,learn,60000.0,Tue Feb 18 2025 14:51:30 GMT-0600 (Central Standard Time),688012.700000003,A,wheat,I,t,119,1,1699.2000000029802,686313.5,8016,WL,C,12.0
5,24.924999952316284,learn,60000.0,Tue Feb 18 2025 14:51:30 GMT-0600 (Central Standard Time),688112.700000003,A,wheatenter,I,enter,82,1,1799.2000000029802,686313.5,8016,WL,C,12.0
5,26.074999809265137,learn,60000.0,Tue Feb 18 2025 14:51:30 GMT-0600 (Central Standard Time),689262.5,A,q,I,q,1142,1,1149.5,688113.0,8016,WL,C,13.0
5,26.174999952316284,learn,60000.0,Tue Feb 18 2025 14:51:30 GMT-0600 (Central Standard Time),689362.299999997,A,qu,I,u,80,1,1249.2999999970198,688113.0,8016,WL,C,13.0
5,26.342000007629395,learn,60000.0,Tue Feb 18 2025 14:51:30 GMT-0600 (Central Standard Time),689529.200000003,A,que,I,e,156,1,1416.2000000029802,688113.0,8016,WL,C,13.0
5,26.47499990463257,learn,60000.0,Tue Feb 18 2025 14:51:30 GMT-0600 (Central Standard Time),689662.3999999911,A,quee,I,e,125,1,1549.3999999910593,688113.0,8016,WL,C,13.0
5,26.592000007629395,learn,60000.0,Tue Feb 18 2025 14:51:30 GMT-0600 (Central Standard Time),689779.299999997,A,queen,I,n,112,1,1666.2999999970198,688113.0,8016,WL,C,13.0
5,26.842000007629395,learn,60000.0,Tue Feb 18 2025 14:51:30 GMT-0600 (Central Standard Time),690028.8999999911,A,queenenter,I,enter,235,1,1915.8999999910593,688113.0,8016,WL,C,13.0
5,27.891000032424927,learn,60000.0,Tue Feb 18 2025 14:51:30 GMT-0600 (Central Standard Time),691078.3999999911,A,s,I,s,1041,1,1049.199999988079,690029.200000003,8016,WL,C,14.0
5,28.04099988937378,learn,60000.0,Tue Feb 18 2025 14:51:30 GMT-0600 (Central Standard Time),691228.5,A,su,I,u,144,1,1199.2999999970198,690029.200000003,8016,WL,C,14.0
5,28.340999841690063,learn,60000.0,Tue Feb 18 2025 14:51:30 GMT-0600 (Central Standard Time),691528.3999999911,A,sug,I,g,282,1,1499.199999988079,690029.200000003,8016,WL,C,14.0
5,28.507999897003174,learn,60000.0,Tue Feb 18 2025 14:51:30 GMT-0600 (Central Standard Time),691695.099999994,A,suga,I,a,150,1,1665.8999999910593,690029.200000003,8016,WL,C,14.0
5,28.674999952316284,learn,60000.0,Tue Feb 18 2025 14:51:30 GMT-0600 (Central Standard Time),691861.700000003,A,sugar,I,r,152,1,1832.5,690029.200000003,8016,WL,C,14.0
5,28.85800004005432,learn,60000.0,Tue Feb 18 2025 14:51:30 GMT-0600 (Central Standard Time),692044.799999997,A,sugarenter,I,enter,169,1,2015.5999999940395,690029.200000003,8016,WL,C,14.0
5,29.391000032424927,learn,60000.0,Tue Feb 18 2025 14:51:30 GMT-0600 (Central Standard Time),692578.0,A,h,I,h,514,1,532.9000000059605,692045.099999994,8016,WL,C,15.0
5,29.490999937057495,learn,60000.0,Tue Feb 18 2025 14:51:30 GMT-0600 (Central Standard Time),692678.099999994,A,ho,I,o,92,1,633.0,692045.099999994,8016,WL,C,15.0
5,29.674000024795532,learn,60000.0,Tue Feb 18 2025 14:51:30 GMT-0600 (Central Standard Time),692861.299999997,A,hom,I,m,176,1,816.2000000029802,692045.099999994,8016,WL,C,15.0
5,29.806999921798706,learn,60000.0,Tue Feb 18 2025 14:51:30 GMT-0600 (Central Standard Time),692994.700000003,A,home,I,e,113,1,949.6000000089407,692045.099999994,8016,WL,C,15.0
5,29.94099998474121,learn,60000.0,Tue Feb 18 2025 14:51:30 GMT-0600 (Central Standard Time),693128.099999994,A,homeenter,I,enter,116,1,1083.0,692045.099999994,8016,WL,C,15.0
6,0.6500000953674316,distr,59349.99990463257,Tue Feb 18 2025 14:51:30 GMT-0600 (Central Standard Time),766105.200000003,B,f,I,f,639,1,649.6000000089407,765455.599999994,8016,WL,C,1.0
6,0.7829999923706055,distr,59217.000007629395,Tue Feb 18 2025 14:51:30 GMT-0600 (Central Standard Time),766238.299999997,B,fo,I,o,117,1,782.7000000029802,765455.599999994,8016,WL,C,1.0
6,1.25,distr,58750.0,Tue Feb 18 2025 14:51:30 GMT-0600 (Central Standard Time),766704.8999999911,B,for,I,r,448,1,1249.2999999970198,765455.599999994,8016,WL,C,1.0
6,1.433000087738037,distr,58566.99991226196,Tue Feb 18 2025 14:51:30 GMT-0600 (Central Standard Time),766888.0,B,fore,I,e,166,1,1432.4000000059605,765455.599999994,8016,WL,C,1.0
6,1.6159999370574951,distr,58384.000062942505,Tue Feb 18 2025 14:51:30 GMT-0600 (Central Standard Time),767071.5,B,fores,I,s,174,1,1615.9000000059605,765455.599999994,8016,WL,C,1.0
6,1.815999984741211,distr,58184.00001525879,Tue Feb 18 2025 14:51:30 GMT-0600 (Central Standard Time),767271.200000003,B,forest,I,t,191,1,1815.6000000089407,765455.599999994,8016,WL,C,1.0
6,2.3989999294281006,distr,57601.0000705719,Tue Feb 18 2025 14:51:30 GMT-0600 (Central Standard Time),767854.5,B,forestenter,I,enter,575,1,2398.9000000059605,765455.599999994,8016,WL,C,1.0
6,3.0820000171661377,distr,56917.99998283386,Tue Feb 18 2025 14:51:30 GMT-0600 (Central Standard Time),768537.599999994,B,p,I,p,672,1,682.7999999970198,767854.799999997,8016,WL,C,2.0
6,3.3489999771118164,distr,56651.00002288818,Tue Feb 18 2025 14:51:30 GMT-0600 (Central Standard Time),768803.8999999911,B,pl,I,l,261,1,949.0999999940395,767854.799999997,8016,WL,C,2.0
6,3.5320000648498535,distr,56467.99993515015,Tue Feb 18 2025 14:51:30 GMT-0600 (Central Standard Time),768987.599999994,B,pla,I,a,163,1,1132.7999999970198,767854.799999997,8016,WL,C,2.0
6,3.6660001277923584,distr,56333.99987220764,Tue Feb 18 2025 14:51:30 GMT-0600 (Central Standard Time),769120.799999997,B,plan,I,n,115,1,1266.0,767854.799999997,8016,WL,C,2.0
6,3.815000057220459,distr,56184.99994277954,Tue Feb 18 2025 14:51:30 GMT-0600 (Central Standard Time),769270.700000003,B,plant,I,t,134,1,1415.9000000059605,767854.799999997,8016,WL,C,2.0
6,4.131999969482422,distr,55868.00003051758,Tue Feb 18 2025 14:51:30 GMT-0600 (Central Standard Time),769587.299999997,B,plantenter,I,enter,304,1,1732.5,767854.799999997,8016,WL,C,2.0
6,4.681999921798706,distr,55318.000078201294,Tue Feb 18 2025 14:51:30 GMT-0600 (Central Standard Time),770136.8999999911,B,m,I,m,531,1,549.2999999970198,769587.599999994,8016,WL,C,3.0
6,4.815000057220459,distr,55184.99994277954,Tue Feb 18 2025 14:51:30 GMT-0600 (Central Standard Time),770270.299999997,B,mo,I,o,117,1,682.7000000029802,769587.599999994,8016,WL,C,3.0
6,4.982000112533569,distr,55017.99988746643,Tue Feb 18 2025 14:51:30 GMT-0600 (Central Standard Time),770437.099999994,B,mon,I,n,152,1,849.5,769587.599999994,8016,WL,C,3.0
6,5.115000009536743,distr,54884.99999046326,Tue Feb 18 2025 14:51:30 GMT-0600 (Central Standard Time),770570.200000003,B,mone,I,e,121,1,982.6000000089407,769587.599999994,8016,WL,C,3.0
6,5.215000152587891,distr,54784.99984741211,Tue Feb 18 2025 14:51:30 GMT-0600 (Central Standard Time),770670.299999997,B,money,I,y,92,1,1082.7000000029802,769587.599999994,8016,WL,C,3.0
6,5.465000152587891,distr,54534.99984741211,Tue Feb 18 2025 14:51:30 GMT-0600 (Central Standard Time),770920.200000003,B,moneyenter,I,enter,240,1,1332.6000000089407,769587.599999994,8016,WL,C,3.0
6,5.998000144958496,distr,54001.999855041504,Tue Feb 18 2025 14:51:30 GMT-0600 (Central Standard Time),771453.299999997,B,h,I,h,526,1,532.7999999970198,770920.5,8016,WL,C,4.0
6,6.148000001907349,distr,53851.99999809265,Tue Feb 18 2025 14:51:30 GMT-0600 (Central Standard Time),771603.200000003,B,ho,I,o,137,1,682.7000000029802,770920.5,8016,WL,C,4.0
6,6.29800009727478,distr,53701.99990272522,Tue Feb 18 2025 14:51:30 GMT-0600 (Central Standard Time),771753.299999997,B,hot,I,t,131,1,832.7999999970198,770920.5,8016,WL,C,4.0
6,6.465000152587891,distr,53534.99984741211,Tue Feb 18 2025 14:51:30 GMT-0600 (Central Standard Time),771919.8999999911,B,hote,I,e,157,1,999.3999999910593,770920.5,8016,WL,C,4.0
6,6.564000129699707,distr,53435.99987030029,Tue Feb 18 2025 14:51:30 GMT-0600 (Central Standard Time),772019.700000003,B,hotel,I,l,95,1,1099.2000000029802,770920.5,8016,WL,C,4.0
6,6.831000089645386,distr,53168.999910354614,Tue Feb 18 2025 14:51:30 GMT-0600 (Central Standard Time),772286.299999997,B,hotelenter,I,enter,251,1,1365.7999999970198,770920.5,8016,WL,C,4.0
6,7.311000108718872,distr,52688.99989128113,Tue Feb 18 2025 14:51:30 GMT-0600 (Central Standard Time),772765.8999999911,B,s,I,s,336,1,479.29999999701977,772286.599999994,8016,WL,C,5.0
6,7.45799994468689,distr,52542.00005531311,Tue Feb 18 2025 14:51:30 GMT-0600 (Central Standard Time),772913.200000003,B,sk,I,k,142,1,626.6000000089407,772286.599999994,8016,WL,C,5.0
6,7.614000082015991,distr,52385.99991798401,Tue Feb 18 2025 14:51:30 GMT-0600 (Central Standard Time),773069.200000003,B,sky,I,y,141,1,782.6000000089407,772286.599999994,8016,WL,C,5.0
6,7.96399998664856,distr,52036.00001335144,Tue Feb 18 2025 14:51:30 GMT-0600 (Central Standard Time),773419.799999997,B,skyenter,I,enter,330,1,1133.2000000029802,772286.599999994,8016,WL,C,5.0
6,9.079999923706055,distr,50920.000076293945,Tue Feb 18 2025 14:51:30 GMT-0600 (Central Standard Time),774535.599999994,B,t,I,t,1099,1,1115.5,773420.099999994,8016,WL,C,6.0
6,9.164000034332275,distr,50835.999965667725,Tue Feb 18 2025 14:51:30 GMT-0600 (Central Standard Time),774619.0,B,to,I,o,71,1,1198.9000000059605,773420.099999994,8016,WL,C,6.0
6,9.314000129699707,distr,50685.99987030029,Tue Feb 18 2025 14:51:30 GMT-0600 (Central Standard Time),774769.200000003,B,too,I,o,139,1,1349.1000000089407,773420.099999994,8016,WL,C,6.0
6,9.52999997138977,distr,50470.00002861023,Tue Feb 18 2025 14:51:30 GMT-0600 (Central Standard Time),774985.5,B,tool,I,l,197,1,1565.4000000059605,773420.099999994,8016,WL,C,6.0
6,9.77999997138977,distr,50220.00002861023,Tue Feb 18 2025 14:51:30 GMT-0600 (Central Standard Time),775235.299999997,B,toolenter,I,enter,245,1,1815.2000000029802,773420.099999994,8016,WL,C,6.0
6,13.42799997329712,distr,46572.00002670288,Tue Feb 18 2025 14:51:30 GMT-0600 (Central Standard Time),778884.299999997,B,m,I,m,3635,1,3648.7000000029802,775235.599999994,8016,WL,C,7.0
6,13.57800006866455,distr,46421.99993133545,Tue Feb 18 2025 14:51:30 GMT-0600 (Central Standard Time),779034.200000003,B,mo,I,o,130,1,3798.6000000089407,775235.599999994,8016,WL,C,7.0
6,13.727999925613403,distr,46272.0000743866,Tue Feb 18 2025 14:51:30 GMT-0600 (Central Standard Time),779184.200000003,B,mot,I,t,141,1,3948.6000000089407,775235.599999994,8016,WL,C,7.0
6,13.795000076293945,distr,46204.999923706055,Tue Feb 18 2025 14:51:30 GMT-0600 (Central Standard Time),779251.0,B,moth,I,h,46,1,4015.4000000059605,775235.599999994,8016,WL,C,7.0
6,13.878000020980835,distr,46121.999979019165,Tue Feb 18 2025 14:51:30 GMT-0600 (Central Standard Time),779334.299999997,B,mothe,I,e,68,1,4098.70000000298,775235.599999994,8016,WL,C,7.0
6,13.962000131607056,distr,46037.999868392944,Tue Feb 18 2025 14:51:30 GMT-0600 (Central Standard Time),779417.799999997,B,mother,I,r,72,1,4182.20000000298,775235.599999994,8016,WL,C,7.0
6,14.062000036239624,distr,45937.999963760376,Tue Feb 18 2025 14:51:30 GMT-0600 (Central Standard Time),779517.3999999911,B,motherenter,I,enter,93,1,4281.79999999702,775235.599999994,8016,WL,C,7.0
6,17.677000045776367,distr,42322.99995422363,Tue Feb 18 2025 14:51:30 GMT-0600 (Central Standard Time),783133.200000003,B,d,I,d,3601,1,3615.5,779517.700000003,8016,WL,C,8.0
6,17.794000148773193,distr,42205.99985122681,Tue Feb 18 2025 14:51:30 GMT-0600 (Central Standard Time),783249.3999999911,B,di,I,i,97,1,3731.699999988079,779517.700000003,8016,WL,C,8.0
6,17.860000133514404,distr,42139.999866485596,Tue Feb 18 2025 14:51:30 GMT-0600 (Central Standard Time),783316.099999994,B,dia,I,a,61,1,3798.3999999910593,779517.700000003,8016,WL,C,8.0
6,18.009999990463257,distr,41990.00000953674,Tue Feb 18 2025 14:51:30 GMT-0600 (Central Standard Time),783466.299999997,B,diam,I,m,130,1,3948.5999999940395,779517.700000003,8016,WL,C,8.0
6,18.16000008583069,distr,41839.99991416931,Tue Feb 18 2025 14:51:30 GMT-0600 (Central Standard Time),783616.200000003,B,diamo,I,o,132,1,4098.5,779517.700000003,8016,WL,C,8.0
6,18.39400005340576,distr,41605.99994659424,Tue Feb 18 2025 14:51:30 GMT-0600 (Central Standard Time),783849.3999999911,B,diamon,I,n,214,1,4331.699999988079,779517.700000003,8016,WL,C,8.0
6,18.509999990463257,distr,41490.00000953674,Tue Feb 18 2025 14:51:30 GMT-0600 (Central Standard Time),783966.0,B,diamone,I,e,109,1,4448.29999999702,779517.700000003,8016,WL,C,8.0
6,18.64300012588501,distr,41356.99987411499,Tue Feb 18 2025 14:51:30 GMT-0600 (Central Standard Time),784099.200000003,B,diamoneenter,I,enter,113,1,4581.5,779517.700000003,8016,WL,C,8.0
6,38.57100009918213,distr,21428.99990081787,Tue Feb 18 2025 14:51:30 GMT-0600 (Central Standard Time),804026.5,B,enter,I,enter,19907,1,19927.10000000894,784099.3999999911,8016,WL,C,9.0
6,38.937000036239624,distr,21062.999963760376,Tue Feb 18 2025 14:51:30 GMT-0600 (Central Standard Time),804393.299999997,B,enter,I,enter,348,1,366.5,804026.799999997,8016,WL,C,10.0
6,39.104000091552734,distr,20895.999908447266,Tue Feb 18 2025 14:51:30 GMT-0600 (Central Standard Time),804559.799999997,B,enter,I,enter,149,1,166.09999999403954,804393.700000003,8016,WL,C,11.0
6,39.253000020980835,distr,20746.999979019165,Tue Feb 18 2025 14:51:30 GMT-0600 (Central Standard Time),804709.5,B,enter,I,enter,135,1,149.20000000298023,804560.299999997,8016,WL,C,12.0
6,39.40300011634827,distr,20596.999883651733,Tue Feb 18 2025 14:51:30 GMT-0600 (Central Standard Time),804859.3999999911,B,enter,I,enter,137,1,149.59999999403954,804709.799999997,8016,WL,C,13.0
6,39.87000012397766,distr,20129.99987602234,Tue Feb 18 2025 14:51:30 GMT-0600 (Central Standard Time),805326.200000003,B,enter,I,enter,459,1,466.40000000596046,804859.799999997,8016,WL,C,14.0
6,40.28699994087219,distr,19713.000059127808,Tue Feb 18 2025 14:51:30 GMT-0600 (Central Standard Time),805742.799999997,B,enter,I,enter,400,1,416.29999999701977,805326.5,8016,WL,C,15.0
7,2.382999897003174,immed,57617.000102996826,Tue Feb 18 2025 14:51:30 GMT-0600 (Central Standard Time),849362.200000003,A,t,I,t,2364,1,2382.5,846979.700000003,8016,WL,C,1.0
7,2.4660000801086426,immed,57533.99991989136,Tue Feb 18 2025 14:51:30 GMT-0600 (Central Standard Time),849445.599999994,A,to,I,o,76,1,2465.8999999910593,846979.700000003,8016,WL,C,1.0
7,2.6659998893737793,immed,57334.00011062622,Tue Feb 18 2025 14:51:30 GMT-0600 (Central Standard Time),849645.5,A,tow,I,w,193,1,2665.7999999970198,846979.700000003,8016,WL,C,1.0
7,2.8499999046325684,immed,57150.00009536743,Tue Feb 18 2025 14:51:30 GMT-0600 (Central Standard Time),849828.799999997,A,towe,I,e,177,1,2849.0999999940395,846979.700000003,8016,WL,C,1.0
7,2.932999849319458,immed,57067.00015068054,Tue Feb 18 2025 14:51:30 GMT-0600 (Central Standard Time),849912.0,A,tower,I,r,66,1,2932.2999999970198,846979.700000003,8016,WL,C,1.0
7,3.0999999046325684,immed,56900.00009536743,Tue Feb 18 2025 14:51:30 GMT-0600 (Central Standard Time),850078.799999997,A,towerenter,I,enter,158,1,3099.0999999940395,846979.700000003,8016,WL,C,1.0
7,3.749000072479248,immed,56250.99992752075,Tue Feb 18 2025 14:51:30 GMT-0600 (Central Standard Time),850728.5,A,w,I,w,640,1,649.4000000059605,850079.099999994,8016,WL,C,2.0
7,3.9489998817443848,immed,56051.000118255615,Tue Feb 18 2025 14:51:30 GMT-0600 (Central Standard Time),850928.200000003,A,wh,I,h,182,1,849.1000000089407,850079.099999994,8016,WL,C,2.0
7,4.016000032424927,immed,55983.99996757507,Tue Feb 18 2025 14:51:30 GMT-0600 (Central Standard Time),850994.799999997,A,whe,I,e,62,1,915.7000000029802,850079.099999994,8016,WL,C,2.0
7,4.148999929428101,immed,55851.0000705719,Tue Feb 18 2025 14:51:30 GMT-0600 (Central Standard Time),851128.0,A,whea,I,a,123,1,1048.9000000059605,850079.099999994,8016,WL,C,2.0
7,4.315000057220459,immed,55684.99994277954,Tue Feb 18 2025 14:51:30 GMT-0600 (Central Standard Time),851294.700000003,A,wheat,I,t,150,1,1215.6000000089407,850079.099999994,8016,WL,C,2.0
7,4.398999929428101,immed,55601.0000705719,Tue Feb 18 2025 14:51:30 GMT-0600 (Central Standard Time),851378.0,A,wheatenter,I,enter,63,1,1298.9000000059605,850079.099999994,8016,WL,C,2.0
7,6.148999929428101,immed,53851.0000705719,Tue Feb 18 2025 14:51:30 GMT-0600 (Central Standard Time),853127.8999999911,A,q,I,q,1733,1,1749.699999988079,851378.200000003,8016,WL,C,3.0
7,6.264999866485596,immed,53735.000133514404,Tue Feb 18 2025 14:51:30 GMT-0600 (Central Standard Time),853244.3999999911,A,qu,I,u,102,1,1866.199999988079,851378.200000003,8016,WL,C,3.0
7,6.414999961853027,immed,53585.00003814697,Tue Feb 18 2025 14:51:30 GMT-0600 (Central Standard Time),853394.5,A,que,I,e,130,1,2016.2999999970198,851378.200000003,8016,WL,C,3.0
7,6.565000057220459,immed,53434.99994277954,Tue Feb 18 2025 14:51:30 GMT-0600 (Central Standard Time),853544.299999997,A,quee,I,e,140,1,2166.0999999940395,851378.200000003,8016,WL,C,3.0
7,6.681999921798706,immed,53318.000078201294,Tue Feb 18 2025 14:51:30 GMT-0600 (Central Standard Time),853660.8999999911,A,queen,I,n,102,1,2282.699999988079,851378.200000003,8016,WL,C,3.0
7,6.881999969482422,immed,53118.00003051758,Tue Feb 18 2025 14:51:30 GMT-0600 (Central Standard Time),853861.099999994,A,queenenter,I,enter,194,1,2482.8999999910593,851378.200000003,8016,WL,C,3.0
7,8.830999851226807,immed,51169.00014877319,Tue Feb 18 2025 14:51:30 GMT-0600 (Central Standard Time),855810.200000003,A,s,I,s,1938,1,1948.800000011921,853861.3999999911,8016,WL,C,4.0
7,8.914000034332275,immed,51085.999965667725,Tue Feb 18 2025 14:51:30 GMT-0600 (Central Standard Time),855893.5,A,su,I,u,68,1,2032.1000000089407,853861.3999999911,8016,WL,C,4.0
7,9.082000017166138,immed,50917.99998283386,Tue Feb 18 2025 14:51:30 GMT-0600 (Central Standard Time),856061.299999997,A,sug,I,g,161,1,2199.9000000059605,853861.3999999911,8016,WL,C,4.0
7,9.280999898910522,immed,50719.00010108948,Tue Feb 18 2025 14:51:30 GMT-0600 (Central Standard Time),856260.0,A,suga,I,a,193,1,2398.6000000089407,853861.3999999911,8016,WL,C,4.0
7,9.763999938964844,immed,50236.000061035156,Tue Feb 18 2025 14:51:30 GMT-0600 (Central Standard Time),856743.3999999911,A,sugar,I,r,474,1,2882.0,853861.3999999911,8016,WL,C,4.0
7,9.930999994277954,immed,50069.000005722046,Tue Feb 18 2025 14:51:30 GMT-0600 (Central Standard Time),856910.099999994,A,sugarenter,I,enter,158,1,3048.7000000029802,853861.3999999911,8016,WL,C,4.0
7,10.263999938964844,immed,49736.000061035156,Tue Feb 18 2025 14:51:30 GMT-0600 (Central Standard Time),857243.299999997,A,h,I,h,312,1,332.90000000596046,856910.3999999911,8016,WL,C,5.0
7,10.397000074386597,immed,49602.9999256134,Tue Feb 18 2025 14:51:30 GMT-0600 (Central Standard Time),857376.5,A,ho,I,o,123,1,466.1000000089407,856910.3999999911,8016,WL,C,5.0
7,10.580999851226807,immed,49419.00014877319,Tue Feb 18 2025 14:51:30 GMT-0600 (Central Standard Time),857559.799999997,A,hom,I,m,174,1,649.4000000059605,856910.3999999911,8016,WL,C,5.0
7,10.71399998664856,immed,49286.00001335144,Tue Feb 18 2025 14:51:30 GMT-0600 (Central Standard Time),857693.099999994,A,home,I,e,127,1,782.7000000029802,856910.3999999911,8016,WL,C,5.0
7,10.846999883651733,immed,49153.00011634827,Tue Feb 18 2025 14:51:30 GMT-0600 (Central Standard Time),857826.299999997,A,homeenter,I,enter,121,1,915.9000000059605,856910.3999999911,8016,WL,C,5.0
7,12.263000011444092,immed,47736.99998855591,Tue Feb 18 2025 14:51:30 GMT-0600 (Central Standard Time),859242.5,A,b,I,b,1404,1,1415.9000000059605,857826.599999994,8016,WL,C,6.0
7,12.346999883651733,immed,47653.00011634827,Tue Feb 18 2025 14:51:30 GMT-0600 (Central Standard Time),859325.8999999911,A,bo,I,o,76,1,1499.2999999970198,857826.599999994,8016,WL,C,6.0
7,12.496000051498413,immed,47503.99994850159,Tue Feb 18 2025 14:51:30 GMT-0600 (Central Standard Time),859475.599999994,A,boy,I,y,145,1,1649.0,857826.599999994,8016,WL,C,6.0
7,12.86299991607666,immed,47137.00008392334,Tue Feb 18 2025 14:51:30 GMT-0600 (Central Standard Time),859842.200000003,A,boyenter,I,enter,355,1,2015.6000000089407,857826.599999994,8016,WL,C,6.0
7,13.263000011444092,immed,46736.99998855591,Tue Feb 18 2025 14:51:30 GMT-0600 (Central Standard Time),860242.5,A,d,I,d,380,1,400.0,859842.5,8016,WL,C,7.0
7,13.345999956130981,immed,46654.00004386902,Tue Feb 18 2025 14:51:30 GMT-0600 (Central Standard Time),860325.5,A,do,I,o,68,1,483.0,859842.5,8016,WL,C,7.0
7,13.496000051498413,immed,46503.99994850159,Tue Feb 18 2025 14:51:30 GMT-0600 (Central Standard Time),860475.3999999911,A,doc,I,c,145,1,632.8999999910593,859842.5,8016,WL,C,7.0
7,13.730000019073486,immed,46269.999980926514,Tue Feb 18 2025 14:51:30 GMT-0600 (Central Standard Time),860708.8999999911,A,doct,I,t,227,1,866.3999999910593,859842.5,8016,WL,C,7.0
7,13.812999963760376,immed,46187.000036239624,Tue Feb 18 2025 14:51:30 GMT-0600 (Central Standard Time),860791.700000003,A,docto,I,o,66,1,949.2000000029802,859842.5,8016,WL,C,7.0
7,14.44599986076355,immed,45554.00013923645,Tue Feb 18 2025 14:51:30 GMT-0600 (Central Standard Time),861425.099999994,A,doctor,I,r,615,1,1582.5999999940395,859842.5,8016,WL,C,7.0
7,14.678999900817871,immed,45321.00009918213,Tue Feb 18 2025 14:51:30 GMT-0600 (Central Standard Time),861658.3999999911,A,doctorenter,I,enter,213,1,1815.8999999910593,859842.5,8016,WL,C,7.0
7,15.94599986076355,immed,44054.00013923645,Tue Feb 18 2025 14:51:30 GMT-0600 (Central Standard Time),862924.700000003,A,c,I,c,1260,1,1265.800000011921,861658.8999999911,8016,WL,C,8.0
7,16.111999988555908,immed,43888.00001144409,Tue Feb 18 2025 14:51:30 GMT-0600 (Central Standard Time),863091.299999997,A,ca,I,a,161,1,1432.4000000059605,861658.8999999911,8016,WL,C,8.0
7,16.228999853134155,immed,43771.000146865845,Tue Feb 18 2025 14:51:30 GMT-0600 (Central Standard Time),863208.0,A,cam,I,m,99,1,1549.1000000089407,861658.8999999911,8016,WL,C,8.0
7,16.378999948501587,immed,43621.00005149841,Tue Feb 18 2025 14:51:30 GMT-0600 (Central Standard Time),863357.8999999911,A,camp,I,p,142,1,1699.0,861658.8999999911,8016,WL,C,8.0
7,16.828999996185303,immed,43171.0000038147,Tue Feb 18 2025 14:51:30 GMT-0600 (Central Standard Time),863808.099999994,A,campenter,I,enter,433,1,2149.2000000029802,861658.8999999911,8016,WL,C,8.0
7,20.89400005340576,immed,39105.99994659424,Tue Feb 18 2025 14:51:30 GMT-0600 (Central Standard Time),867873.299999997,A,f,I,f,4046,1,4064.9000000059605,863808.3999999911,8016,WL,C,9.0
7,21.043999910354614,immed,38956.000089645386,Tue Feb 18 2025 14:51:30 GMT-0600 (Central Standard Time),868023.099999994,A,fl,I,l,141,1,4214.70000000298,863808.3999999911,8016,WL,C,9.0
7,21.15999984741211,immed,38840.00015258789,Tue Feb 18 2025 14:51:30 GMT-0600 (Central Standard Time),868139.599999994,A,fla,I,a,105,1,4331.20000000298,863808.3999999911,8016,WL,C,9.0
7,21.427000045776367,immed,38572.99995422363,Tue Feb 18 2025 14:51:30 GMT-0600 (Central Standard Time),868406.299999997,A,flag,I,g,259,1,4597.9000000059605,863808.3999999911,8016,WL,C,9.0
7,21.543999910354614,immed,38456.000089645386,Tue Feb 18 2025 14:51:30 GMT-0600 (Central Standard Time),868523.0,A,flagenter,I,enter,96,1,4714.600000008941,863808.3999999911,8016,WL,C,9.0
7,21.97699999809265,immed,38023.00000190735,Tue Feb 18 2025 14:51:30 GMT-0600 (Central Standard Time),868955.8999999911,A,l,I,l,427,1,432.59999999403954,868523.299999997,8016,WL,C,10.0
7,22.126999855041504,immed,37873.000144958496,Tue Feb 18 2025 14:51:30 GMT-0600 (Central Standard Time),869106.099999994,A,le,I,e,131,1,582.7999999970198,868523.299999997,8016,WL,C,10.0
7,22.342999935150146,immed,37657.00006484985,Tue Feb 18 2025 14:51:30 GMT-0600 (Central Standard Time),869322.700000003,A,let,I,t,196,1,799.4000000059605,868523.299999997,8016,WL,C,10.0
7,22.509999990463257,immed,37490.00000953674,Tue Feb 18 2025 14:51:30 GMT-0600 (Central Standard Time),869489.3999999911,A,lett,I,t,148,1,966.0999999940395,868523.299999997,8016,WL,C,10.0
7,22.677000045776367,immed,37322.99995422363,Tue Feb 18 2025 14:51:30 GMT-0600 (Central Standard Time),869655.799999997,A,lette,I,e,149,1,1132.5,868523.299999997,8016,WL,C,10.0
7,22.759999990463257,immed,37240.00000953674,Tue Feb 18 2025 14:51:30 GMT-0600 (Central Standard Time),869739.3999999911,A,letter,I,r,79,1,1216.0999999940395,868523.299999997,8016,WL,C,10.0
7,22.842999935150146,immed,37157.00006484985,Tue Feb 18 2025 14:51:30 GMT-0600 (Central Standard Time),869822.700000003,A,letterenter,I,enter,75,1,1299.4000000059605,868523.299999997,8016,WL,C,10.0
7,26.342000007629395,immed,33657.999992370605,Tue Feb 18 2025 14:51:30 GMT-0600 (Central Standard Time),873321.5,A,c,I,c,3488,1,3498.6000000089407,869822.8999999911,8016,WL,C,11.0
7,26.509000062942505,immed,33490.999937057495,Tue Feb 18 2025 14:51:30 GMT-0600 (Central Standard Time),873488.200000003,A,co,I,o,157,1,3665.300000011921,869822.8999999911,8016,WL,C,11.0
7,27.575000047683716,immed,32424.999952316284,Tue Feb 18 2025 14:51:30 GMT-0600 (Central Standard Time),874554.5,A,cor,I,r,1046,1,4731.600000008941,869822.8999999911,8016,WL,C,11.0
7,27.674999952316284,immed,32325.000047683716,Tue Feb 18 2025 14:51:30 GMT-0600 (Central Standard Time),874654.299999997,A,corn,I,n,84,1,4831.4000000059605,869822.8999999911,8016,WL,C,11.0
7,27.95799994468689,immed,32042.00005531311,Tue Feb 18 2025 14:51:30 GMT-0600 (Central Standard Time),874937.5,A,cornenter,I,enter,264,1,5114.600000008941,869822.8999999911,8016,WL,C,11.0
7,28.491999864578247,immed,31508.000135421753,Tue Feb 18 2025 14:51:30 GMT-0600 (Central Standard Time),875470.799999997,A,n,I,n,525,1,532.9000000059605,874937.8999999911,8016,WL,C,12.0
7,28.60800004005432,immed,31391.99995994568,Tue Feb 18 2025 14:51:30 GMT-0600 (Central Standard Time),875587.299999997,A,na,I,a,104,1,649.4000000059605,874937.8999999911,8016,WL,C,12.0
7,28.70799994468689,immed,31292.00005531311,Tue Feb 18 2025 14:51:30 GMT-0600 (Central Standard Time),875687.599999994,A,nai,I,i,83,1,749.7000000029802,874937.8999999911,8016,WL,C,12.0
7,28.907999992370605,immed,31092.000007629395,Tue Feb 18 2025 14:51:30 GMT-0600 (Central Standard Time),875887.3999999911,A,nail,I,l,183,1,949.5,874937.8999999911,8016,WL,C,12.0
7,29.193000078201294,immed,30806.999921798706,Tue Feb 18 2025 14:51:30 GMT-0600 (Central Standard Time),876171.799999997,A,nailenter,I,enter,271,1,1233.9000000059605,874937.8999999911,8016,WL,C,12.0
7,29.557999849319458,immed,30442.000150680542,Tue Feb 18 2025 14:51:30 GMT-0600 (Central Standard Time),876537.299999997,A,c,I,c,355,1,365.20000000298023,876172.099999994,8016,WL,C,13.0
7,29.740999937057495,immed,30259.000062942505,Tue Feb 18 2025 14:51:30 GMT-0600 (Central Standard Time),876720.3999999911,A,ca,I,a,173,1,548.2999999970198,876172.099999994,8016,WL,C,13.0
7,29.94099998474121,immed,30059.00001525879,Tue Feb 18 2025 14:51:30 GMT-0600 (Central Standard Time),876920.200000003,A,cat,I,t,182,1,748.1000000089407,876172.099999994,8016,WL,C,13.0
7,30.073999881744385,immed,29926.000118255615,Tue Feb 18 2025 14:51:30 GMT-0600 (Central Standard Time),877053.599999994,A,catt,I,t,126,1,881.5,876172.099999994,8016,WL,C,13.0
7,30.20799994468689,immed,29792.00005531311,Tue Feb 18 2025 14:51:30 GMT-0600 (Central Standard Time),877187.099999994,A,cattl,I,l,121,1,1015.0,876172.099999994,8016,WL,C,13.0
7,30.341000080108643,immed,29658.999919891357,Tue Feb 18 2025 14:51:30 GMT-0600 (Central Standard Time),877320.3999999911,A,cattle,I,e,123,1,1148.2999999970198,876172.099999994,8016,WL,C,13.0
7,30.5239999294281,immed,29476.0000705719,Tue Feb 18 2025 14:51:30 GMT-0600 (Central Standard Time),877503.5,A,cattleenter,I,enter,174,1,1331.4000000059605,876172.099999994,8016,WL,C,13.0
7,31.0239999294281,immed,28976.0000705719,Tue Feb 18 2025 14:51:30 GMT-0600 (Central Standard Time),878003.3999999911,A,s,I,s,487,1,499.69999998807907,877503.700000003,8016,WL,C,14.0
7,31.141000032424927,immed,28858.999967575073,Tue Feb 18 2025 14:51:30 GMT-0600 (Central Standard Time),878120.0,A,sh,I,h,99,1,616.2999999970198,877503.700000003,8016,WL,C,14.0
7,31.223999977111816,immed,28776.000022888184,Tue Feb 18 2025 14:51:30 GMT-0600 (Central Standard Time),878203.599999994,A,sho,I,o,70,1,699.8999999910593,877503.700000003,8016,WL,C,14.0
7,31.374000072479248,immed,28625.999927520752,Tue Feb 18 2025 14:51:30 GMT-0600 (Central Standard Time),878352.8999999911,A,shor,I,r,139,1,849.1999999880791,877503.700000003,8016,WL,C,14.0
7,31.573999881744385,immed,28426.000118255615,Tue Feb 18 2025 14:51:30 GMT-0600 (Central Standard Time),878553.200000003,A,shore,I,e,189,1,1049.5,877503.700000003,8016,WL,C,14.0
7,31.740999937057495,immed,28259.000062942505,Tue Feb 18 2025 14:51:30 GMT-0600 (Central Standard Time),878719.799999997,A,shoreenter,I,enter,149,1,1216.0999999940395,877503.700000003,8016,WL,C,14.0
7,32.389999866485596,immed,27610.000133514404,Tue Feb 18 2025 14:51:30 GMT-0600 (Central Standard Time),879369.599999994,A,b,I,b,631,1,649.5,878720.099999994,8016,WL,C,15.0
7,32.49000000953674,immed,27509.999990463257,Tue Feb 18 2025 14:51:30 GMT-0600 (Central Standard Time),879469.599999994,A,bo,I,o,85,1,749.5,878720.099999994,8016,WL,C,15.0
7,32.67400002479553,immed,27325.999975204468,Tue Feb 18 2025 14:51:30 GMT-0600 (Central Standard Time),879652.8999999911,A,bod,I,d,176,1,932.7999999970198,878720.099999994,8016,WL,C,15.0
7,32.78999996185303,immed,27210.000038146973,Tue Feb 18 2025 14:51:30 GMT-0600 (Central Standard Time),879769.3999999911,A,body,I,y,106,1,1049.2999999970198,878720.099999994,8016,WL,C,15.0
