acc_sum,block,block_c,condition,correct,correct_response,datetime,endtime,flanker,jitter,project,response,response_test_buffer_response,response_test_target_response,response_time,response_time_test_buffer_response,response_time_test_target_response,row_sel,session_number,start_end,starttime,subject_id,target,task,task_vers,time_test_buffer,time_test_buffer_response,time_test_constants,time_test_flanker,time_test_jitter,time_test_logger,time_test_target,time_test_target_response,time_test_variables,trial
0,prac,1,con,0,m,Wed Apr 16 2025 17:47:03 GMT-0500 (Central Daylight Time),103813.90000003576,step,800,O,None,,,1814,,,1,1,4873.100000023842,98940.80000001192,7131,step,AF,B,,,,,,,,,,1
1,prac,1,con,1,z,Wed Apr 16 2025 17:47:03 GMT-0500 (Central Daylight Time),107012.90000003576,rage,1000,O,z,,,877,,,15,1,3171.5,103841.40000003576,7131,rage,AF,B,,,,,,,,,,2
2,prac,1,con,1,m,Wed Apr 16 2025 17:47:03 GMT-0500 (Central Daylight Time),110278.40000003576,remote,1000,O,m,,,935,,,7,1,3240.699999988079,107037.70000004768,7131,remote,AF,B,,,,,,,,,,3
2,prac,1,inc,0,z,Wed Apr 16 2025 17:47:03 GMT-0500 (Central Daylight Time),113077.40000003576,film,900,O,m,,,570,,,14,1,2778.199999988079,110299.20000004768,7131,hate,AF,B,,,,,,,,,,4
3,prac,1,inc,1,z,Wed Apr 16 2025 17:47:03 GMT-0500 (Central Daylight Time),116026.60000002384,rock,900,O,z,,,698,,,10,1,2909.199999988079,113117.40000003576,7131,kind,AF,B,,,,,,,,,,5
4,prac,1,inc,1,m,Wed Apr 16 2025 17:47:03 GMT-0500 (Central Daylight Time),119258.70000004768,brutal,1100,O,m,,,798,,,8,1,3206.800000011921,116051.90000003576,7131,window,AF,B,,,,,,,,,,6
5,prac,1,con,1,m,Wed Apr 16 2025 17:47:03 GMT-0500 (Central Daylight Time),122440.90000003576,bell,1000,O,m,,,859,,,3,1,3159.0,119281.90000003576,7131,bell,AF,B,,,,,,,,,,7
6,prac,1,inc,1,z,Wed Apr 16 2025 17:47:03 GMT-0500 (Central Daylight Time),125973.0,window,1100,O,z,,,1102,,,16,1,3508.2999999523163,122464.70000004768,7131,temper,AF,B,,,,,,,,,,8
7,prac,1,con,1,z,Wed Apr 16 2025 17:47:03 GMT-0500 (Central Daylight Time),129355.5,love,1000,O,z,,,1067,,,11,1,3358.599999964237,125996.90000003576,7131,love,AF,B,,,,,,,,,,9
7,prac,1,inc,0,z,Wed Apr 16 2025 17:47:03 GMT-0500 (Central Daylight Time),132737.60000002384,napkin,1100,O,m,,,958,,,12,1,3361.899999976158,129375.70000004768,7131,friend,AF,B,,,,,,,,,,10
7,prac,1,con,0,z,Wed Apr 16 2025 17:47:03 GMT-0500 (Central Daylight Time),137635.80000001192,elated,800,O,None,,,1799,,,9,1,4873.699999988079,132762.10000002384,7131,elated,AF,B,,,,,,,,,,11
7,prac,1,inc,0,m,Wed Apr 16 2025 17:47:03 GMT-0500 (Central Daylight Time),142650.90000003576,elated,900,O,None,,,1815,,,6,1,4995.699999988079,137655.20000004768,7131,napkin,AF,B,,,,,,,,,,12
8,prac,1,inc,1,m,Wed Apr 16 2025 17:47:03 GMT-0500 (Central Daylight Time),145683.30000001192,kind,900,O,m,,,815,,,2,1,3009.0,142674.30000001192,7131,rock,AF,B,,,,,,,,,,13
9,prac,1,con,1,z,Wed Apr 16 2025 17:47:03 GMT-0500 (Central Daylight Time),148698.90000003576,brutal,800,O,z,,,889,,,13,1,2990.900000035763,145708.0,7131,brutal,AF,B,,,,,,,,,,14
10,prac,1,inc,1,m,Wed Apr 16 2025 17:47:03 GMT-0500 (Central Daylight Time),151781.10000002384,hate,1100,O,m,,,663,,,4,1,3057.899999976158,148723.20000004768,7131,film,AF,B,,,,,,,,,,15
11,prac,1,con,1,m,Wed Apr 16 2025 17:47:03 GMT-0500 (Central Daylight Time),154713.5,jacket,800,O,m,,,799,,,5,1,2909.399999976158,151804.10000002384,7131,jacket,AF,B,,,,,,,,,,16
1,test,1,inc,1,m,Wed Apr 16 2025 17:47:03 GMT-0500 (Central Daylight Time),171625.0,temper,1000,O,m,m,None,627,412.0,215.0,127,1,2154.7999999523163,169470.20000004768,7131,window,AF,B,168148,168148,166409,167415,166410,168564,167932,167932,168564,1
2,test,1,con,1,z,Wed Apr 16 2025 17:47:03 GMT-0500 (Central Daylight Time),173757.40000003576,brutal,1000,O,z,z,None,580,381.0,199.0,35,1,2112.800000011921,171644.60000002384,7131,brutal,AF,B,170314,170314,168584,169598,168585,170697,170114,170114,170696,2
3,test,1,inc,1,z,Wed Apr 16 2025 17:47:03 GMT-0500 (Central Daylight Time),176073.40000003576,film,1100,O,z,z,None,660,461.0,199.0,56,1,2293.100000023842,173780.30000001192,7131,rage,AF,B,172547,172547,170719,171831,170722,173013,172347,172347,173012,3
4,test,1,inc,1,m,Wed Apr 16 2025 17:47:03 GMT-0500 (Central Daylight Time),178106.10000002384,elated,800,O,m,m,None,668,453.0,215.0,117,1,2010.0,176096.10000002384,7131,remote,AF,B,174578,174578,173035,173846,173037,175045,174363,174363,175045,4
5,test,1,inc,1,m,Wed Apr 16 2025 17:47:03 GMT-0500 (Central Daylight Time),180338.60000002384,love,1000,O,m,m,None,674,459.0,215.0,71,1,2209.899999976158,178128.70000004768,7131,step,AF,B,176812,176812,175068,176079,175070,177278,176596,176596,177278,5
6,test,1,inc,1,z,Wed Apr 16 2025 17:47:03 GMT-0500 (Central Daylight Time),182554.5,remote,1000,O,z,z,None,659,460.0,199.0,31,1,2192.399999976158,180362.10000002384,7131,friend,AF,B,179028,179028,177301,178312,177303,179494,178828,178828,179493,6
7,test,1,con,1,z,Wed Apr 16 2025 17:47:03 GMT-0500 (Central Daylight Time),184587.10000002384,temper,800,O,z,z,None,675,476.0,199.0,57,1,2008.800000011921,182578.30000001192,7131,temper,AF,B,181043,181044,179517,180328,179520,181526,180844,180844,181526,7
8,test,1,inc,1,m,Wed Apr 16 2025 17:47:03 GMT-0500 (Central Daylight Time),186402.80000001192,rage,800,O,m,m,None,448,232.0,216.0,77,1,1797.0999999642372,184605.70000004768,7131,rock,AF,B,183094,183094,181545,182360,181546,183342,182877,182877,183342,8
9,test,1,con,1,z,Wed Apr 16 2025 17:47:03 GMT-0500 (Central Daylight Time),188419.20000004768,rage,900,O,z,z,None,565,366.0,199.0,50,1,2008.7000000476837,186410.5,7131,rage,AF,B,184976,184976,183350,184259,183350,185359,184776,184776,185358,9
10,test,1,inc,1,z,Wed Apr 16 2025 17:47:03 GMT-0500 (Central Daylight Time),190818.40000003576,bell,1000,O,z,z,None,833,618.0,215.0,55,1,2375.900000035763,188442.5,7131,rage,AF,B,187125,187125,185382,186391,185382,187758,186909,186909,187757,10
11,test,1,con,1,z,Wed Apr 16 2025 17:47:03 GMT-0500 (Central Daylight Time),193284.30000001192,hate,1100,O,z,z,None,799,600.0,199.0,44,1,2442.099999964237,190842.20000004768,7131,hate,AF,B,189607,189608,187781,188891,187782,190224,189408,189408,190223,11
12,test,1,inc,1,m,Wed Apr 16 2025 17:47:03 GMT-0500 (Central Daylight Time),195583.20000004768,hate,1100,O,m,m,None,645,446.0,199.0,88,1,2276.7000000476837,193306.5,7131,bell,AF,B,192073,192073,190246,191357,190247,192522,191874,191874,192522,12
13,test,1,inc,1,z,Wed Apr 16 2025 17:47:03 GMT-0500 (Central Daylight Time),197432.5,jacket,800,O,z,z,None,501,286.0,215.0,29,1,1837.0,195595.5,7131,friend,AF,B,194073,194073,192535,193340,192536,194372,193857,193857,194372,13
14,test,1,inc,1,m,Wed Apr 16 2025 17:47:03 GMT-0500 (Central Daylight Time),199798.70000004768,love,1000,O,m,m,None,828,629.0,199.0,87,1,2353.800000011921,197444.90000003576,7131,bell,AF,B,196106,196106,194384,195389,194385,196738,195906,195906,196738,14
15,test,1,inc,1,z,Wed Apr 16 2025 17:47:03 GMT-0500 (Central Daylight Time),202114.60000002384,film,1100,O,z,z,None,650,435.0,215.0,16,1,2294.5,199820.10000002384,7131,kind,AF,B,198604,198604,196759,197872,196761,199054,198388,198389,199054,15
16,test,1,inc,1,m,Wed Apr 16 2025 17:47:03 GMT-0500 (Central Daylight Time),204147.5,rage,800,O,m,m,None,665,450.0,215.0,69,1,2011.5999999642372,202135.90000003576,7131,step,AF,B,200621,200621,199075,199888,199077,201087,200405,200405,201086,16
17,test,1,con,1,m,Wed Apr 16 2025 17:47:03 GMT-0500 (Central Daylight Time),206563.30000001192,napkin,1100,O,m,m,None,749,550.0,199.0,108,1,2393.199999988079,204170.10000002384,7131,napkin,AF,B,202936,202937,201109,202221,201111,203502,202737,202737,203502,17
18,test,1,con,1,z,Wed Apr 16 2025 17:47:03 GMT-0500 (Central Daylight Time),208979.10000002384,temper,1100,O,z,z,None,757,558.0,199.0,60,1,2394.699999988079,206584.40000003576,7131,temper,AF,B,205352,205353,203523,204636,203525,205918,205153,205153,205918,18
19,test,1,con,1,z,Wed Apr 16 2025 17:47:03 GMT-0500 (Central Daylight Time),211261.20000004768,kind,1100,O,z,z,None,620,405.0,215.0,12,1,2261.100000023842,209000.10000002384,7131,kind,AF,B,207785,207785,205939,207052,205941,208200,207569,207569,208200,19
20,test,1,inc,1,z,Wed Apr 16 2025 17:47:03 GMT-0500 (Central Daylight Time),213344.40000003576,rock,900,O,z,z,None,644,445.0,199.0,14,1,2072.5,211271.90000003576,7131,kind,AF,B,209834,209834,208211,209118,208212,210284,209635,209635,210283,20
21,test,1,con,1,m,Wed Apr 16 2025 17:47:03 GMT-0500 (Central Daylight Time),215643.60000002384,jacket,1000,O,m,m,None,731,517.0,214.0,99,1,2274.5,213369.10000002384,7131,jacket,AF,B,212050,212050,210308,211317,210310,212583,211835,211835,212583,21
22,test,1,inc,1,z,Wed Apr 16 2025 17:47:03 GMT-0500 (Central Daylight Time),218092.90000003576,napkin,900,O,z,z,None,990,791.0,199.0,38,1,2422.699999988079,215670.20000004768,7131,brutal,AF,B,214233,214233,212609,213517,212611,215032,214033,214033,215032,22
23,test,1,con,1,m,Wed Apr 16 2025 17:47:03 GMT-0500 (Central Daylight Time),220225.5,remote,1100,O,m,m,None,467,252.0,215.0,116,1,2112.0,218113.5,7131,remote,AF,B,216899,216899,215053,216166,215054,217165,216682,216683,217164,23
24,test,1,inc,1,m,Wed Apr 16 2025 17:47:03 GMT-0500 (Central Daylight Time),222857.90000003576,kind,900,O,m,m,None,1175,976.0,199.0,86,1,2610.400000035763,220247.5,7131,bell,AF,B,218815,218815,217186,218098,217188,219797,218615,218615,219797,24
25,test,1,inc,1,z,Wed Apr 16 2025 17:47:03 GMT-0500 (Central Daylight Time),225057.20000004768,napkin,900,O,z,z,None,734,519.0,215.0,6,1,2178.5,222878.70000004768,7131,elated,AF,B,221464,221464,219818,220731,219820,221996,221248,221248,221996,25
26,test,1,inc,1,z,Wed Apr 16 2025 17:47:03 GMT-0500 (Central Daylight Time),227056.60000002384,jacket,800,O,z,z,None,644,445.0,199.0,37,1,1978.800000011921,225077.80000001192,7131,brutal,AF,B,223547,223547,222017,222830,222019,223996,223347,223347,223995,26
27,test,1,inc,1,m,Wed Apr 16 2025 17:47:03 GMT-0500 (Central Daylight Time),229355.80000001192,friend,1100,O,m,m,None,632,433.0,199.0,128,1,2277.300000011921,227078.5,7131,window,AF,B,225846,225846,224017,225130,224019,226295,225646,225646,226295,27
28,test,1,con,1,m,Wed Apr 16 2025 17:47:03 GMT-0500 (Central Daylight Time),231805.5,film,900,O,m,m,None,997,782.0,215.0,90,1,2427.599999964237,229377.90000003576,7131,film,AF,B,227962,227962,226317,227229,226319,228745,227746,227746,228744,28
29,test,1,inc,1,m,Wed Apr 16 2025 17:47:03 GMT-0500 (Central Daylight Time),233704.40000003576,rage,800,O,m,m,None,535,320.0,215.0,93,1,1880.800000011921,231823.60000002384,7131,film,AF,B,230311,230311,228763,229578,228763,230644,230095,230095,230643,29
30,test,1,inc,1,m,Wed Apr 16 2025 17:47:03 GMT-0500 (Central Daylight Time),235753.60000002384,rage,800,O,m,m,None,684,485.0,199.0,85,1,2028.3999999761581,233725.20000004768,7131,bell,AF,B,232194,232194,230664,231478,230666,232693,231994,231994,232693,30
31,test,1,con,1,m,Wed Apr 16 2025 17:47:03 GMT-0500 (Central Daylight Time),237686.0,remote,900,O,m,m,None,480,281.0,199.0,114,1,1911.199999988079,235774.80000001192,7131,remote,AF,B,234343,234343,232714,233627,232716,234625,234143,234143,234625,31
32,test,1,con,1,m,Wed Apr 16 2025 17:47:03 GMT-0500 (Central Daylight Time),240118.90000003576,jacket,800,O,m,m,None,1070,871.0,199.0,97,1,2414.600000023842,237704.30000001192,7131,jacket,AF,B,236176,236176,234643,235460,234644,237058,235976,235976,237058,32
33,test,1,inc,1,m,Wed Apr 16 2025 17:47:03 GMT-0500 (Central Daylight Time),242301.5,temper,1000,O,m,m,None,624,425.0,199.0,119,1,2160.199999988079,240141.30000001192,7131,remote,AF,B,238807,238807,237080,238092,237082,239241,238608,238608,239241,33
34,test,1,inc,1,m,Wed Apr 16 2025 17:47:03 GMT-0500 (Central Daylight Time),244400.90000003576,brutal,900,O,m,m,None,644,445.0,199.0,102,1,2078.0,242322.90000003576,7131,jacket,AF,B,240891,240891,239262,240175,239264,241340,240691,240691,241340,34
35,test,1,con,1,m,Wed Apr 16 2025 17:47:03 GMT-0500 (Central Daylight Time),246416.80000001192,step,800,O,m,m,None,660,445.0,215.0,65,1,1995.0,244421.80000001192,7131,step,AF,B,242907,242907,241361,242174,241362,243356,242691,242691,243356,35
36,test,1,con,1,z,Wed Apr 16 2025 17:47:03 GMT-0500 (Central Daylight Time),248432.90000003576,kind,1000,O,z,z,None,460,245.0,215.0,11,1,1998.300000011921,246434.60000002384,7131,kind,AF,B,245122,245123,243374,244390,243375,245372,244906,244907,245372,36
37,test,1,con,1,m,Wed Apr 16 2025 17:47:03 GMT-0500 (Central Daylight Time),250698.70000004768,film,1100,O,m,m,None,609,410.0,199.0,92,1,2243.7000000476837,248455.0,7131,film,AF,B,247222,247222,245394,246506,245396,247638,247022,247022,247638,37
38,test,1,con,1,z,Wed Apr 16 2025 17:47:03 GMT-0500 (Central Daylight Time),253031.40000003576,elated,1100,O,z,z,None,679,480.0,199.0,4,1,2312.300000011921,250719.10000002384,7131,elated,AF,B,249488,249488,247658,248772,247660,249971,249288,249288,249970,38
39,test,1,con,1,z,Wed Apr 16 2025 17:47:03 GMT-0500 (Central Daylight Time),255013.40000003576,friend,900,O,z,z,None,531,331.0,200.0,26,1,1961.199999988079,253052.20000004768,7131,friend,AF,B,251620,251620,249991,250905,249993,251953,251419,251419,251952,39
40,test,1,inc,1,z,Wed Apr 16 2025 17:47:03 GMT-0500 (Central Daylight Time),257313.30000001192,bell,1000,O,z,z,None,759,544.0,215.0,23,1,2289.800000011921,255023.5,7131,love,AF,B,253703,253703,251963,252970,251963,254252,253487,253487,254252,40
41,test,1,inc,1,m,Wed Apr 16 2025 17:47:03 GMT-0500 (Central Daylight Time),259362.60000002384,brutal,900,O,m,m,None,592,393.0,199.0,126,1,2028.8999999761581,257333.70000004768,7131,window,AF,B,255903,255903,254273,255186,254274,256302,255703,255703,256301,41
42,test,1,con,1,m,Wed Apr 16 2025 17:47:03 GMT-0500 (Central Daylight Time),261378.60000002384,film,1000,O,m,m,None,450,251.0,199.0,91,1,1994.199999988079,259384.40000003576,7131,film,AF,B,258052,258052,256323,257336,256325,258318,257852,257852,258318,42
43,test,1,con,1,m,Wed Apr 16 2025 17:47:03 GMT-0500 (Central Daylight Time),263477.8000000119,rock,1100,O,m,m,None,438,239.0,199.0,76,1,2078.899999976158,261398.90000003576,7131,rock,AF,B,260168,260168,258338,259451,258340,260417,259968,259968,260417,43
44,test,1,con,1,z,Wed Apr 16 2025 17:47:03 GMT-0500 (Central Daylight Time),265943.8000000119,rage,1100,O,z,z,None,803,604.0,199.0,52,1,2445.5,263498.3000000119,7131,rage,AF,B,262267,262267,260437,261551,260439,262883,262067,262067,262883,44
45,test,1,con,1,m,Wed Apr 16 2025 17:47:03 GMT-0500 (Central Daylight Time),267826.5,napkin,900,O,m,m,None,417,218.0,199.0,106,1,1862.5999999642372,265963.90000003576,7131,napkin,AF,B,264533,264533,262903,263817,262905,264766,264333,264333,264765,45
46,test,1,con,1,m,Wed Apr 16 2025 17:47:03 GMT-0500 (Central Daylight Time),269959.2000000477,bell,900,O,m,m,None,679,480.0,199.0,82,1,2112.0,267847.2000000477,7131,bell,AF,B,266415,266416,264786,265699,264788,266898,266216,266216,266898,46
47,test,1,inc,1,z,Wed Apr 16 2025 17:47:03 GMT-0500 (Central Daylight Time),272008.2000000477,step,800,O,z,z,None,693,478.0,215.0,21,1,2028.300000011921,269979.90000003576,7131,love,AF,B,268465,268465,266919,267732,266921,268947,268249,268249,268947,47
48,test,1,con,1,z,Wed Apr 16 2025 17:47:03 GMT-0500 (Central Daylight Time),274241.0,friend,1000,O,z,z,None,668,469.0,199.0,27,1,2212.699999988079,272028.3000000119,7131,friend,AF,B,270697,270698,268967,269981,268969,271180,270498,270498,271180,48
49,test,1,inc,1,m,Wed Apr 16 2025 17:47:03 GMT-0500 (Central Daylight Time),276390.40000003576,kind,900,O,m,m,None,687,472.0,215.0,70,1,2129.0,274261.40000003576,7131,step,AF,B,272847,272847,271200,272114,271202,273329,272631,272631,273329,49
50,test,1,con,1,z,Wed Apr 16 2025 17:47:03 GMT-0500 (Central Daylight Time),278706.2000000477,elated,1000,O,z,z,None,752,553.0,199.0,3,1,2295.7000000476837,276410.5,7131,elated,AF,B,275079,275079,273350,274363,273351,275645,274880,274880,275645,50
51,test,1,con,1,m,Wed Apr 16 2025 17:47:03 GMT-0500 (Central Daylight Time),281005.7000000477,step,1000,O,m,m,None,748,549.0,199.0,67,1,2279.5,278726.2000000477,7131,step,AF,B,277395,277395,275665,276679,275667,277945,277196,277196,277945,51
52,test,1,inc,1,m,Wed Apr 16 2025 17:47:03 GMT-0500 (Central Daylight Time),283104.7000000477,brutal,900,O,m,m,None,635,436.0,199.0,110,1,2078.600000023842,281026.10000002384,7131,napkin,AF,B,279594,279595,277965,278879,277967,280044,279395,279395,280044,52
53,test,1,inc,1,z,Wed Apr 16 2025 17:47:03 GMT-0500 (Central Daylight Time),285154.10000002384,jacket,800,O,z,z,None,684,485.0,199.0,5,1,2027.699999988079,283126.40000003576,7131,elated,AF,B,281594,281594,280065,280878,280067,282093,281394,281394,282093,53
54,test,1,inc,1,z,Wed Apr 16 2025 17:47:03 GMT-0500 (Central Daylight Time),287436.7000000477,remote,1000,O,z,z,None,722,507.0,215.0,63,1,2262.5,285174.2000000477,7131,temper,AF,B,283860,283860,282113,283126,282115,284376,283644,283644,284376,54
55,test,1,inc,1,z,Wed Apr 16 2025 17:47:03 GMT-0500 (Central Daylight Time),289719.2000000477,window,1100,O,z,z,None,629,430.0,199.0,64,1,2261.800000011921,287457.40000003576,7131,temper,AF,B,286226,286226,284396,285509,284398,286658,286026,286026,286658,55
56,test,1,con,1,m,Wed Apr 16 2025 17:47:03 GMT-0500 (Central Daylight Time),291918.40000003576,rock,1000,O,m,m,None,646,431.0,215.0,75,1,2177.699999988079,289740.7000000477,7131,rock,AF,B,288425,288425,286680,287692,286681,288857,288209,288209,288857,56
57,test,1,con,1,z,Wed Apr 16 2025 17:47:03 GMT-0500 (Central Daylight Time),293917.60000002384,hate,1000,O,z,z,None,446,247.0,199.0,43,1,1978.1000000238419,291939.5,7131,hate,AF,B,290608,290608,288879,289892,288880,290857,290408,290408,290857,57
58,test,1,con,1,z,Wed Apr 16 2025 17:47:03 GMT-0500 (Central Daylight Time),296667.10000002384,hate,900,O,z,z,None,1282,1067.0,215.0,42,1,2727.800000011921,293939.3000000119,7131,hate,AF,B,292524,292524,290878,291791,290880,293606,292308,292308,293606,58
59,test,1,con,1,z,Wed Apr 16 2025 17:47:03 GMT-0500 (Central Daylight Time),298449.10000002384,love,800,O,z,z,None,424,210.0,214.0,17,1,1760.3999999761581,296688.7000000477,7131,love,AF,B,295172,295172,293628,294439,293630,295388,294957,294957,295388,59
60,test,1,con,1,m,Wed Apr 16 2025 17:47:03 GMT-0500 (Central Daylight Time),300499.2000000477,window,1100,O,m,m,None,410,210.0,200.0,124,1,2044.1000000238419,298455.10000002384,7131,window,AF,B,297222,297222,295394,296505,295395,297438,297022,297022,297438,60
61,test,1,con,1,z,Wed Apr 16 2025 17:47:03 GMT-0500 (Central Daylight Time),302331.90000003576,hate,800,O,z,z,None,474,275.0,199.0,41,1,1812.0,300519.90000003576,7131,hate,AF,B,298989,298989,297459,298272,297460,299271,298789,298789,299271,61
62,test,1,inc,1,m,Wed Apr 16 2025 17:47:03 GMT-0500 (Central Daylight Time),304497.8000000119,temper,1000,O,m,m,None,610,411.0,199.0,103,1,2145.0,302352.8000000119,7131,jacket,AF,B,301021,301021,299292,300304,299293,301437,300821,300821,301437,62
63,test,1,inc,1,z,Wed Apr 16 2025 17:47:03 GMT-0500 (Central Daylight Time),306647.0,napkin,900,O,z,z,None,696,497.0,199.0,62,1,2128.5,304518.5,7131,temper,AF,B,303087,303087,301458,302370,301459,303586,302887,302887,303586,63
64,test,1,con,1,m,Wed Apr 16 2025 17:47:03 GMT-0500 (Central Daylight Time),309363.0,bell,1000,O,m,m,None,1158,943.0,215.0,83,1,2695.399999976158,306667.60000002384,7131,bell,AF,B,305353,305353,303607,304620,303608,306302,305137,305137,306302,64
65,test,1,inc,1,z,Wed Apr 16 2025 17:47:03 GMT-0500 (Central Daylight Time),311345.60000002384,jacket,800,O,z,z,None,617,402.0,215.0,61,1,1962.6000000238419,309383.0,7131,temper,AF,B,307868,307869,306322,307136,306324,308285,307652,307653,308285,65
66,test,1,con,1,z,Wed Apr 16 2025 17:47:03 GMT-0500 (Central Daylight Time),313378.3000000119,temper,900,O,z,z,None,568,369.0,199.0,58,1,2012.0,311366.3000000119,7131,temper,AF,B,309935,309935,308305,309219,308307,310317,309735,309735,310317,66
67,test,1,con,1,z,Wed Apr 16 2025 17:47:03 GMT-0500 (Central Daylight Time),315211.0,rage,800,O,z,z,None,469,268.0,201.0,49,1,1811.3999999761581,313399.60000002384,7131,rage,AF,B,311867,311867,310339,311151,310340,312150,311666,311666,312150,67
68,test,1,con,1,z,Wed Apr 16 2025 17:47:03 GMT-0500 (Central Daylight Time),317126.90000003576,elated,900,O,z,z,None,463,264.0,199.0,2,1,1895.300000011921,315231.60000002384,7131,elated,AF,B,313800,313800,312171,313084,312172,314066,313600,313600,314066,68
69,test,1,con,1,m,Wed Apr 16 2025 17:47:03 GMT-0500 (Central Daylight Time),319077.40000003576,napkin,1000,O,m,m,None,398,183.0,215.0,107,1,1930.1000000238419,317147.3000000119,7131,napkin,AF,B,315833,315833,314086,315100,314088,316017,315617,315617,316016,69
70,test,1,con,1,m,Wed Apr 16 2025 17:47:03 GMT-0500 (Central Daylight Time),320975.8000000119,window,900,O,m,m,None,445,230.0,215.0,122,1,1881.699999988079,319094.10000002384,7131,window,AF,B,317681,317681,316033,316949,316034,317915,317466,317466,317915,70
71,test,1,inc,1,z,Wed Apr 16 2025 17:47:03 GMT-0500 (Central Daylight Time),323075.0,window,1100,O,z,z,None,433,218.0,215.0,40,1,2077.099999964237,320997.90000003576,7131,brutal,AF,B,319781,319781,317937,319048,317939,320014,319566,319566,320014,71
72,test,1,inc,1,z,Wed Apr 16 2025 17:47:03 GMT-0500 (Central Daylight Time),325574.10000002384,bell,1000,O,z,z,None,938,723.0,215.0,47,1,2478.699999988079,323095.40000003576,7131,hate,AF,B,321781,321781,320034,321048,320036,322513,321565,321565,322513,72
73,test,1,con,1,m,Wed Apr 16 2025 17:47:03 GMT-0500 (Central Daylight Time),327806.40000003576,jacket,1100,O,m,m,None,578,379.0,199.0,100,1,2211.199999988079,325595.2000000477,7131,jacket,AF,B,324364,324364,322534,323647,322536,324745,324164,324164,324745,73
74,test,1,con,1,z,Wed Apr 16 2025 17:47:03 GMT-0500 (Central Daylight Time),329639.60000002384,love,900,O,z,z,None,385,172.0,213.0,18,1,1821.5,327818.10000002384,7131,love,AF,B,326396,326396,324757,325663,324758,326579,326182,326182,326579,74
75,test,1,inc,1,z,Wed Apr 16 2025 17:47:03 GMT-0500 (Central Daylight Time),331722.2000000477,rock,900,O,z,z,None,627,428.0,199.0,54,1,2061.5,329660.7000000477,7131,rage,AF,B,328228,328228,326600,327513,326601,328661,328029,328029,328661,75
76,test,1,inc,1,m,Wed Apr 16 2025 17:47:03 GMT-0500 (Central Daylight Time),333804.90000003576,kind,900,O,m,m,None,615,400.0,215.0,78,1,2062.100000023842,331742.8000000119,7131,rock,AF,B,330328,330328,328682,329595,328683,330744,330112,330112,330744,76
77,test,1,con,1,m,Wed Apr 16 2025 17:47:03 GMT-0500 (Central Daylight Time),335604.2000000477,film,800,O,m,m,None,433,234.0,199.0,89,1,1779.4000000357628,333824.8000000119,7131,film,AF,B,332294,332294,330764,331578,330766,332543,332094,332094,332543,77
78,test,1,inc,1,m,Wed Apr 16 2025 17:47:03 GMT-0500 (Central Daylight Time),338053.60000002384,friend,1100,O,m,m,None,789,590.0,199.0,112,1,2430.100000023842,335623.5,7131,napkin,AF,B,334393,334393,332562,333677,332563,334993,334194,334194,334993,78
79,test,1,inc,1,z,Wed Apr 16 2025 17:47:03 GMT-0500 (Central Daylight Time),340419.40000003576,remote,1000,O,z,z,None,799,600.0,199.0,39,1,2345.400000035763,338074.0,7131,brutal,AF,B,336742,336743,335013,336026,335015,337359,336543,336543,337358,79
80,test,1,con,1,z,Wed Apr 16 2025 17:47:03 GMT-0500 (Central Daylight Time),342701.90000003576,love,1000,O,z,z,None,722,523.0,199.0,19,1,2261.800000011921,340440.10000002384,7131,love,AF,B,339108,339108,337379,338392,337381,339641,338909,338909,339641,80
81,test,1,con,1,m,Wed Apr 16 2025 17:47:03 GMT-0500 (Central Daylight Time),344701.7000000477,remote,800,O,m,m,None,647,432.0,215.0,113,1,1978.6000000238419,342723.10000002384,7131,remote,AF,B,341208,341208,339662,340475,339664,341641,340991,340992,341641,81
82,test,1,con,1,z,Wed Apr 16 2025 17:47:03 GMT-0500 (Central Daylight Time),347033.8000000119,brutal,800,O,z,z,None,977,778.0,199.0,33,1,2310.399999976158,344723.40000003576,7131,brutal,AF,B,343190,343190,341662,342474,341664,343973,342991,342991,343973,82
83,test,1,con,1,m,Wed Apr 16 2025 17:47:03 GMT-0500 (Central Daylight Time),348799.90000003576,bell,800,O,m,m,None,411,196.0,215.0,81,1,1746.6000000238419,347053.3000000119,7131,bell,AF,B,345540,345540,343992,344807,343993,345739,345324,345324,345739,83
84,test,1,con,1,m,Wed Apr 16 2025 17:47:03 GMT-0500 (Central Daylight Time),351032.40000003576,step,900,O,m,m,None,768,553.0,215.0,66,1,2212.100000023842,348820.3000000119,7131,step,AF,B,347406,347406,345759,346673,345761,347972,347190,347190,347971,84
85,test,1,inc,1,z,Wed Apr 16 2025 17:47:03 GMT-0500 (Central Daylight Time),353015.10000002384,step,800,O,z,z,None,629,430.0,199.0,53,1,1961.199999988079,351053.90000003576,7131,rage,AF,B,349521,349522,347993,348806,347995,349954,349322,349322,349954,85
86,test,1,inc,1,m,Wed Apr 16 2025 17:47:03 GMT-0500 (Central Daylight Time),355214.60000002384,hate,1100,O,m,m,None,539,340.0,199.0,96,1,2179.899999976158,353034.7000000477,7131,film,AF,B,351804,351804,349974,351088,349975,352154,351605,351605,352154,86
87,test,1,con,1,z,Wed Apr 16 2025 17:47:03 GMT-0500 (Central Daylight Time),357280.60000002384,friend,1100,O,z,z,None,411,212.0,199.0,28,1,2045.0,355235.60000002384,7131,friend,AF,B,354003,354004,352175,353287,352176,354220,353804,353804,354220,87
88,test,1,inc,1,m,Wed Apr 16 2025 17:47:03 GMT-0500 (Central Daylight Time),359496.10000002384,elated,800,O,m,m,None,861,661.0,200.0,101,1,2195.800000011921,357300.3000000119,7131,jacket,AF,B,355769,355770,354239,355053,354241,356435,355569,355569,356435,88
89,test,1,inc,1,z,Wed Apr 16 2025 17:47:03 GMT-0500 (Central Daylight Time),361428.90000003576,step,800,O,z,z,None,590,391.0,199.0,13,1,1918.5,359510.40000003576,7131,kind,AF,B,357969,357969,356449,357253,356451,358368,357769,357769,358368,89
90,test,1,con,1,m,Wed Apr 16 2025 17:47:03 GMT-0500 (Central Daylight Time),363278.40000003576,rock,900,O,m,m,None,396,181.0,215.0,74,1,1829.5,361448.90000003576,7131,rock,AF,B,360035,360035,358388,359302,358390,360218,359819,359819,360217,90
91,test,1,inc,1,z,Wed Apr 16 2025 17:47:03 GMT-0500 (Central Daylight Time),365244.60000002384,rock,900,O,z,z,None,499,300.0,199.0,46,1,1945.199999988079,363299.40000003576,7131,hate,AF,B,361867,361868,360238,361152,360240,362184,361668,361668,362184,91
92,test,1,con,1,m,Wed Apr 16 2025 17:47:03 GMT-0500 (Central Daylight Time),367027.40000003576,window,800,O,m,m,None,416,201.0,215.0,121,1,1764.300000011921,365263.10000002384,7131,window,AF,B,363750,363750,362202,363017,362203,363967,363535,363535,363966,92
93,test,1,con,1,m,Wed Apr 16 2025 17:47:03 GMT-0500 (Central Daylight Time),369126.60000002384,step,1100,O,m,m,None,438,223.0,215.0,68,1,2079.300000011921,367047.3000000119,7131,step,AF,B,365833,365833,363986,365100,363988,366066,365617,365617,366066,93
94,test,1,inc,1,m,Wed Apr 16 2025 17:47:03 GMT-0500 (Central Daylight Time),371392.7000000477,kind,900,O,m,m,None,803,604.0,199.0,94,1,2245.900000035763,369146.8000000119,7131,film,AF,B,367716,367716,366086,366999,366088,368332,367516,367516,368332,94
95,test,1,inc,1,m,Wed Apr 16 2025 17:47:03 GMT-0500 (Central Daylight Time),373608.5,hate,1100,O,m,m,None,552,353.0,199.0,72,1,2195.7999999523163,371412.7000000477,7131,step,AF,B,370181,370182,368352,369465,368353,370548,369982,369982,370548,95
96,test,1,inc,1,z,Wed Apr 16 2025 17:47:03 GMT-0500 (Central Daylight Time),375857.90000003576,window,1100,O,z,z,None,587,386.0,201.0,8,1,2228.199999988079,373629.7000000477,7131,elated,AF,B,372397,372398,370569,371683,370570,372797,372196,372196,372797,96
97,test,1,inc,1,m,Wed Apr 16 2025 17:47:03 GMT-0500 (Central Daylight Time),377690.5,elated,800,O,m,m,None,476,277.0,199.0,125,1,1813.0999999642372,375877.40000003576,7131,window,AF,B,374347,374347,372816,373630,372818,374630,374147,374147,374629,97
98,test,1,inc,1,z,Wed Apr 16 2025 17:47:03 GMT-0500 (Central Daylight Time),379706.2000000477,rock,900,O,z,z,None,558,359.0,199.0,22,1,1996.300000011921,377709.90000003576,7131,love,AF,B,376281,376281,374649,375564,374650,376645,376080,376080,376645,98
99,test,1,con,1,m,Wed Apr 16 2025 17:47:03 GMT-0500 (Central Daylight Time),381789.3000000119,bell,1100,O,m,m,None,431,232.0,199.0,84,1,2065.599999964237,379723.7000000477,7131,bell,AF,B,378495,378496,376663,377781,376663,378728,378296,378296,378728,99
100,test,1,inc,1,m,Wed Apr 16 2025 17:47:03 GMT-0500 (Central Daylight Time),384055.2000000477,hate,1100,O,m,m,None,605,406.0,199.0,80,1,2243.300000011921,381811.90000003576,7131,rock,AF,B,380578,380578,378751,379862,378753,380994,380379,380379,380994,100
101,test,1,inc,1,m,Wed Apr 16 2025 17:47:03 GMT-0500 (Central Daylight Time),386371.10000002384,friend,1100,O,m,m,None,650,451.0,199.0,120,1,2295.899999976158,384075.2000000477,7131,remote,AF,B,382844,382844,381014,382128,381016,383310,382644,382644,383310,101
102,test,1,inc,1,z,Wed Apr 16 2025 17:47:03 GMT-0500 (Central Daylight Time),388453.60000002384,napkin,900,O,z,z,None,623,424.0,199.0,30,1,2060.899999976158,386392.7000000477,7131,friend,AF,B,384960,384960,383332,384244,383334,385393,384760,384760,385393,102
103,test,1,inc,1,m,Wed Apr 16 2025 17:47:03 GMT-0500 (Central Daylight Time),390736.10000002384,brutal,900,O,m,m,None,820,621.0,199.0,118,1,2262.5,388473.60000002384,7131,remote,AF,B,387043,387043,385413,386327,385414,387675,386843,386843,387675,103
104,test,1,con,1,z,Wed Apr 16 2025 17:47:03 GMT-0500 (Central Daylight Time),393068.7000000477,brutal,1100,O,z,z,None,673,458.0,215.0,36,1,2312.400000035763,390756.3000000119,7131,brutal,AF,B,389542,389542,387695,388809,387697,390008,389326,389326,390008,104
105,test,1,con,1,z,Wed Apr 16 2025 17:47:03 GMT-0500 (Central Daylight Time),395201.10000002384,love,1100,O,z,z,None,477,278.0,199.0,20,1,2112.699999988079,393088.40000003576,7131,love,AF,B,391857,391857,390027,391141,390029,392140,391658,391658,392140,105
106,test,1,con,1,z,Wed Apr 16 2025 17:47:03 GMT-0500 (Central Daylight Time),397301.10000002384,elated,800,O,z,z,None,765,566.0,199.0,1,1,2087.899999976158,395213.2000000477,7131,elated,AF,B,393674,393674,392152,392958,392153,394240,393474,393474,394240,106
107,test,1,inc,1,m,Wed Apr 16 2025 17:47:03 GMT-0500 (Central Daylight Time),399249.8000000119,elated,800,O,m,m,None,585,386.0,199.0,109,1,1928.0,397321.8000000119,7131,napkin,AF,B,395790,395790,394261,395073,394262,396189,395590,395590,396189,107
108,test,1,con,1,z,Wed Apr 16 2025 17:47:03 GMT-0500 (Central Daylight Time),401049.2000000477,friend,800,O,z,z,None,443,228.0,215.0,25,1,1779.0,399270.2000000477,7131,friend,AF,B,397756,397756,396209,397023,396211,397988,397540,397540,397988,108
109,test,1,inc,1,z,Wed Apr 16 2025 17:47:03 GMT-0500 (Central Daylight Time),403315.60000002384,film,1100,O,z,z,None,599,400.0,199.0,24,1,2245.199999988079,401070.40000003576,7131,love,AF,B,399839,399839,398009,399122,398011,400255,399639,399639,400255,109
110,test,1,con,1,m,Wed Apr 16 2025 17:47:03 GMT-0500 (Central Daylight Time),405881.2000000477,remote,1000,O,m,m,None,1003,804.0,199.0,115,1,2546.800000011921,403334.40000003576,7131,remote,AF,B,402004,402004,400273,401288,400274,402820,401805,401805,402820,110
111,test,1,inc,1,z,Wed Apr 16 2025 17:47:03 GMT-0500 (Central Daylight Time),407947.2000000477,bell,1000,O,z,z,None,509,310.0,199.0,15,1,2044.2000000476837,405903.0,7131,kind,AF,B,404570,404570,402842,403854,402844,404886,404371,404371,404886,111
112,test,1,inc,1,m,Wed Apr 16 2025 17:47:03 GMT-0500 (Central Daylight Time),410246.3000000119,temper,1000,O,m,m,None,746,531.0,215.0,111,1,2278.800000011921,407967.5,7131,napkin,AF,B,406653,406653,404906,405920,404908,407185,406437,406437,407185,112
113,test,1,con,1,m,Wed Apr 16 2025 17:47:03 GMT-0500 (Central Daylight Time),412478.90000003576,rock,800,O,m,m,None,879,680.0,199.0,73,1,2215.100000023842,410263.8000000119,7131,rock,AF,B,408736,408736,407203,408019,407204,409418,408536,408536,409418,113
114,test,1,con,1,m,Wed Apr 16 2025 17:47:03 GMT-0500 (Central Daylight Time),414628.5,window,1000,O,m,m,None,583,384.0,199.0,123,1,2129.2999999523163,412499.2000000477,7131,window,AF,B,411168,411168,409438,410452,409440,411568,410968,410968,411568,114
115,test,1,con,1,z,Wed Apr 16 2025 17:47:03 GMT-0500 (Central Daylight Time),416444.40000003576,kind,800,O,z,z,None,457,258.0,199.0,9,1,1795.4000000357628,414649.0,7131,kind,AF,B,413118,413118,411588,412402,411590,413384,412918,412918,413383,115
116,test,1,inc,1,z,Wed Apr 16 2025 17:47:03 GMT-0500 (Central Daylight Time),418760.0,window,1100,O,z,z,None,663,463.0,200.0,32,1,2296.0,416464.0,7131,friend,AF,B,415233,415233,413403,414516,413405,415699,415032,415032,415699,116
117,test,1,con,1,z,Wed Apr 16 2025 17:47:03 GMT-0500 (Central Daylight Time),420643.0,kind,900,O,z,z,None,416,217.0,199.0,10,1,1862.5999999642372,418780.40000003576,7131,kind,AF,B,417349,417349,415719,416633,415721,417582,417150,417150,417582,117
118,test,1,inc,1,z,Wed Apr 16 2025 17:47:03 GMT-0500 (Central Daylight Time),422559.10000002384,step,800,O,z,z,None,554,339.0,215.0,45,1,1894.800000011921,420664.3000000119,7131,hate,AF,B,419149,419149,417603,418416,417605,419498,418933,418933,419498,118
118,test,1,con,0,z,Wed Apr 16 2025 17:47:03 GMT-0500 (Central Daylight Time),424458.40000003576,brutal,900,O,m,m,None,444,245.0,199.0,34,1,1879.699999988079,422578.7000000477,7131,brutal,AF,B,421147,421147,419518,420432,419520,421398,420948,420948,421397,119
119,test,1,con,1,m,Wed Apr 16 2025 17:47:03 GMT-0500 (Central Daylight Time),426341.3000000119,jacket,900,O,m,m,None,432,233.0,199.0,98,1,1862.800000011921,424478.5,7131,jacket,AF,B,423047,423047,421418,422331,421419,423280,422848,422848,423280,120
120,test,1,inc,1,m,Wed Apr 16 2025 17:47:03 GMT-0500 (Central Daylight Time),428623.90000003576,friend,1100,O,m,m,None,620,405.0,215.0,104,1,2262.400000035763,426361.5,7131,jacket,AF,B,425147,425147,423301,424414,423302,425563,424930,424931,425563,121
121,test,1,con,1,z,Wed Apr 16 2025 17:47:03 GMT-0500 (Central Daylight Time),430906.3000000119,rage,1000,O,z,z,None,726,527.0,199.0,51,1,2262.399999976158,428643.90000003576,7131,rage,AF,B,427313,427313,425583,426597,425585,427845,427113,427113,427845,122
122,test,1,inc,1,z,Wed Apr 16 2025 17:47:03 GMT-0500 (Central Daylight Time),433155.7000000477,remote,1000,O,z,z,None,683,468.0,215.0,7,1,2230.0,430925.7000000477,7131,elated,AF,B,429612,429612,427865,428879,427866,430095,429396,429396,430095,123
123,test,1,con,1,z,Wed Apr 16 2025 17:47:03 GMT-0500 (Central Daylight Time),435171.60000002384,temper,1000,O,z,z,None,449,250.0,199.0,59,1,1995.0,433176.60000002384,7131,temper,AF,B,431845,431845,430116,431128,430117,432111,431645,431645,432111,124
124,test,1,inc,1,z,Wed Apr 16 2025 17:47:03 GMT-0500 (Central Daylight Time),437537.60000002384,film,1100,O,z,z,None,710,511.0,199.0,48,1,2345.699999988079,435191.90000003576,7131,hate,AF,B,433961,433961,432131,433245,432132,434477,433761,433761,434477,125
125,test,1,inc,1,m,Wed Apr 16 2025 17:47:03 GMT-0500 (Central Daylight Time),439703.60000002384,love,1000,O,m,m,None,612,413.0,199.0,95,1,2146.100000023842,437557.5,7131,film,AF,B,436226,436227,434496,435510,434498,436643,436027,436027,436643,126
126,test,1,inc,1,m,Wed Apr 16 2025 17:47:03 GMT-0500 (Central Daylight Time),441853.5,love,1000,O,m,m,None,599,400.0,199.0,79,1,2130.199999988079,439723.3000000119,7131,rock,AF,B,438392,438392,436662,437676,436664,438793,438193,438193,438792,127
127,test,1,con,1,m,Wed Apr 16 2025 17:47:03 GMT-0500 (Central Daylight Time),443869.60000002384,napkin,800,O,m,m,None,665,450.0,215.0,105,1,1996.300000011921,441873.3000000119,7131,napkin,AF,B,440358,440358,438812,439626,438814,440809,440143,440143,440809,128
