acc_sum,block,block_c,condition,correct,correct_response,datetime,endtime,flanker,jitter,project,response,response_test_buffer_response,response_test_target_response,response_time,response_time_test_buffer_response,response_time_test_target_response,row_sel,session_number,start_end,starttime,subject_id,target,task,task_vers,time_test_buffer,time_test_buffer_response,time_test_constants,time_test_flanker,time_test_jitter,time_test_logger,time_test_target,time_test_target_response,time_test_variables,trial
0,prac,1,con,0,z,Fri Apr 11 2025 15:02:25 GMT-0500 (Central Daylight Time),157834.39999997616,orange,1000,I,None,,,1814,,,3,1,5105.899999976158,152728.5,7107,orange,NF,C,,,,,,,,,,1
0,prac,1,inc,0,m,Fri Apr 11 2025 15:02:25 GMT-0500 (Central Daylight Time),160516.39999997616,raisin,1100,I,z,,,251,,,12,1,2654.899999976158,157861.5,7107,cobalt,NF,C,,,,,,,,,,2
0,prac,1,inc,0,m,Fri Apr 11 2025 15:02:25 GMT-0500 (Central Daylight Time),165698.19999992847,plum,1100,I,None,,,1799,,,16,1,5167.899999976158,160530.29999995232,7107,lead,NF,C,,,,,,,,,,3
1,prac,1,inc,1,m,Fri Apr 11 2025 15:02:25 GMT-0500 (Central Daylight Time),168414.0,cherry,900,I,m,,,492,,,10,1,2692.5,165721.5,7107,copper,NF,C,,,,,,,,,,4
1,prac,1,con,0,z,Fri Apr 11 2025 15:02:25 GMT-0500 (Central Daylight Time),170880.0,lime,800,I,m,,,332,,,5,1,2442.399999976158,168437.60000002384,7107,lime,NF,C,,,,,,,,,,5
2,prac,1,inc,1,z,Fri Apr 11 2025 15:02:25 GMT-0500 (Central Daylight Time),173679.10000002384,cobalt,1100,I,z,,,375,,,4,1,2776.100000023842,170903.0,7107,raisin,NF,C,,,,,,,,,,6
2,prac,1,con,0,z,Fri Apr 11 2025 15:02:25 GMT-0500 (Central Daylight Time),176344.89999997616,kiwi,1000,I,m,,,339,,,7,1,2642.2999999523163,173702.60000002384,7107,kiwi,NF,C,,,,,,,,,,7
3,prac,1,con,1,m,Fri Apr 11 2025 15:02:25 GMT-0500 (Central Daylight Time),179660.39999997616,zinc,1000,I,m,,,994,,,15,1,3291.399999976158,176369.0,7107,zinc,NF,C,,,,,,,,,,8
4,prac,1,inc,1,z,Fri Apr 11 2025 15:02:25 GMT-0500 (Central Daylight Time),182459.39999997616,lead,1100,I,z,,,378,,,8,1,2775.100000023842,179684.29999995232,7107,plum,NF,C,,,,,,,,,,9
4,prac,1,con,0,m,Fri Apr 11 2025 15:02:25 GMT-0500 (Central Daylight Time),185258.69999992847,silver,1000,I,z,,,480,,,11,1,2770.2999999523163,182488.39999997616,7107,silver,NF,C,,,,,,,,,,10
5,prac,1,con,1,z,Fri Apr 11 2025 15:02:25 GMT-0500 (Central Daylight Time),188174.29999995232,banana,800,I,z,,,792,,,1,1,2891.100000023842,185283.19999992847,7107,banana,NF,C,,,,,,,,,,11
6,prac,1,inc,1,z,Fri Apr 11 2025 15:02:25 GMT-0500 (Central Daylight Time),190990.10000002384,copper,900,I,z,,,584,,,2,1,2793.3000000715256,188196.79999995232,7107,cherry,NF,C,,,,,,,,,,12
7,prac,1,inc,1,z,Fri Apr 11 2025 15:02:25 GMT-0500 (Central Daylight Time),193789.0,iron,900,I,z,,,576,,,6,1,2776.0,191013.0,7107,pear,NF,C,,,,,,,,,,13
8,prac,1,con,1,m,Fri Apr 11 2025 15:02:25 GMT-0500 (Central Daylight Time),196454.79999995232,gold,800,I,m,,,541,,,13,1,2646.5,193808.29999995232,7107,gold,NF,C,,,,,,,,,,14
9,prac,1,con,1,m,Fri Apr 11 2025 15:02:25 GMT-0500 (Central Daylight Time),199003.5,bronze,800,I,m,,,418,,,9,1,2527.399999976158,196476.10000002384,7107,bronze,NF,C,,,,,,,,,,15
10,prac,1,inc,1,m,Fri Apr 11 2025 15:02:25 GMT-0500 (Central Daylight Time),201836.5,pear,900,I,m,,,619,,,14,1,2823.100000023842,199013.39999997616,7107,iron,NF,C,,,,,,,,,,16
1,prac,2,inc,1,z,Fri Apr 11 2025 15:02:25 GMT-0500 (Central Daylight Time),210283.79999995232,iron,900,I,z,,,570,,,6,1,2776.6999999284744,207507.10000002384,7107,pear,NF,C,,,,,,,,,,1
2,prac,2,con,1,m,Fri Apr 11 2025 15:02:25 GMT-0500 (Central Daylight Time),212916.29999995232,gold,800,I,m,,,502,,,13,1,2609.899999976158,210306.39999997616,7107,gold,NF,C,,,,,,,,,,2
3,prac,2,inc,1,z,Fri Apr 11 2025 15:02:25 GMT-0500 (Central Daylight Time),215898.60000002384,lead,1100,I,z,,,555,,,8,1,2960.0,212938.60000002384,7107,plum,NF,C,,,,,,,,,,3
4,prac,2,inc,1,m,Fri Apr 11 2025 15:02:25 GMT-0500 (Central Daylight Time),218614.29999995232,cherry,900,I,m,,,483,,,10,1,2693.899999976158,215920.39999997616,7107,copper,NF,C,,,,,,,,,,4
5,prac,2,inc,1,m,Fri Apr 11 2025 15:02:25 GMT-0500 (Central Daylight Time),221430.0,pear,900,I,m,,,592,,,14,1,2793.100000023842,218636.89999997616,7107,iron,NF,C,,,,,,,,,,5
6,prac,2,con,1,z,Fri Apr 11 2025 15:02:25 GMT-0500 (Central Daylight Time),223995.60000002384,banana,800,I,z,,,444,,,1,1,2544.2000000476837,221451.39999997616,7107,banana,NF,C,,,,,,,,,,6
7,prac,2,inc,1,m,Fri Apr 11 2025 15:02:25 GMT-0500 (Central Daylight Time),226845.0,raisin,1100,I,m,,,419,,,12,1,2828.600000023842,224016.39999997616,7107,cobalt,NF,C,,,,,,,,,,7
8,prac,2,con,1,m,Fri Apr 11 2025 15:02:25 GMT-0500 (Central Daylight Time),229610.69999992847,zinc,1000,I,m,,,445,,,15,1,2744.5,226866.19999992847,7107,zinc,NF,C,,,,,,,,,,8
9,prac,2,con,1,z,Fri Apr 11 2025 15:02:25 GMT-0500 (Central Daylight Time),232442.29999995232,orange,1000,I,z,,,504,,,3,1,2809.899999976158,229632.39999997616,7107,orange,NF,C,,,,,,,,,,9
10,prac,2,inc,1,z,Fri Apr 11 2025 15:02:25 GMT-0500 (Central Daylight Time),235575.29999995232,cobalt,1100,I,z,,,724,,,4,1,3127.1999999284744,232448.10000002384,7107,raisin,NF,C,,,,,,,,,,10
11,prac,2,inc,1,m,Fri Apr 11 2025 15:02:25 GMT-0500 (Central Daylight Time),238691.10000002384,plum,1100,I,m,,,697,,,16,1,3095.0,235596.10000002384,7107,lead,NF,C,,,,,,,,,,11
12,prac,2,con,1,m,Fri Apr 11 2025 15:02:25 GMT-0500 (Central Daylight Time),241290.29999995232,bronze,800,I,m,,,479,,,9,1,2578.1999999284744,238712.10000002384,7107,bronze,NF,C,,,,,,,,,,12
13,prac,2,con,1,z,Fri Apr 11 2025 15:02:25 GMT-0500 (Central Daylight Time),243905.29999995232,lime,800,I,z,,,489,,,5,1,2594.0,241311.29999995232,7107,lime,NF,C,,,,,,,,,,13
14,prac,2,con,1,z,Fri Apr 11 2025 15:02:25 GMT-0500 (Central Daylight Time),246838.29999995232,kiwi,1000,I,z,,,626,,,7,1,2927.1999999284744,243911.10000002384,7107,kiwi,NF,C,,,,,,,,,,14
15,prac,2,con,1,m,Fri Apr 11 2025 15:02:25 GMT-0500 (Central Daylight Time),249704.0,silver,1000,I,m,,,549,,,11,1,2844.399999976158,246859.60000002384,7107,silver,NF,C,,,,,,,,,,15
16,prac,2,inc,1,z,Fri Apr 11 2025 15:02:25 GMT-0500 (Central Daylight Time),252586.5,copper,900,I,z,,,655,,,2,1,2860.600000023842,249725.89999997616,7107,cherry,NF,C,,,,,,,,,,16
1,test,1,inc,1,m,Fri Apr 11 2025 15:02:25 GMT-0500 (Central Daylight Time),267531.5,lime,800,I,m,m,None,563,364.0,199.0,101,1,1895.6000000238419,265635.89999997616,7107,gold,NF,C,259714,259715,258185,258998,258187,260081,259515,259515,260080,1
2,test,1,con,1,z,Fri Apr 11 2025 15:02:25 GMT-0500 (Central Daylight Time),269381.0,lime,800,I,z,z,None,488,289.0,199.0,33,1,1827.1000000238419,267553.89999997616,7107,lime,NF,C,261630,261630,260103,260914,260105,261930,261431,261431,261930,2
3,test,1,con,1,m,Fri Apr 11 2025 15:02:25 GMT-0500 (Central Daylight Time),271263.5,zinc,900,I,m,m,None,425,210.0,215.0,114,1,1856.8999999761581,269406.60000002384,7107,zinc,NF,C,263597,263597,261956,262864,261957,263813,263381,263381,263812,3
4,test,1,con,1,z,Fri Apr 11 2025 15:02:25 GMT-0500 (Central Daylight Time),273679.39999997616,pear,1100,I,z,z,None,751,552.0,199.0,44,1,2392.600000023842,271286.7999999523,7107,pear,NF,C,265663,265663,263836,264947,263838,266229,265463,265463,266228,4
5,test,1,inc,1,z,Fri Apr 11 2025 15:02:25 GMT-0500 (Central Daylight Time),275861.89999997616,lead,1100,I,z,z,None,529,329.0,200.0,64,1,2161.600000023842,273700.2999999523,7107,plum,NF,C,268078,268078,266249,267362,266251,268411,267878,267878,268411,5
6,test,1,inc,1,m,Fri Apr 11 2025 15:02:25 GMT-0500 (Central Daylight Time),278094.5,plum,1100,I,m,m,None,568,353.0,215.0,120,1,2212.2000000476837,275882.2999999523,7107,zinc,NF,C,270278,270278,268431,269545,268433,270644,270062,270062,270644,6
7,test,1,inc,1,z,Fri Apr 11 2025 15:02:25 GMT-0500 (Central Daylight Time),280010.60000002384,bronze,800,I,z,z,None,564,365.0,199.0,21,1,1894.8000000715256,278115.7999999523,7107,orange,NF,C,272194,272194,270665,271478,270667,272560,271994,271994,272560,7
8,test,1,con,1,m,Fri Apr 11 2025 15:02:25 GMT-0500 (Central Daylight Time),282342.6999999285,lead,1100,I,m,m,None,666,467.0,199.0,124,1,2310.2999999523163,280032.39999997616,7107,lead,NF,C,274410,274410,272581,273694,272583,274892,274210,274210,274892,8
9,test,1,con,1,m,Fri Apr 11 2025 15:02:25 GMT-0500 (Central Daylight Time),284909.1999999285,iron,1100,I,m,m,None,920,721.0,199.0,108,1,2561.2999999523163,282347.89999997616,7107,iron,NF,C,276726,276726,274897,276010,274897,277458,276526,276526,277458,9
10,test,1,con,1,z,Fri Apr 11 2025 15:02:25 GMT-0500 (Central Daylight Time),287141.60000002384,kiwi,1100,I,z,z,None,578,379.0,199.0,52,1,2212.3000000715256,284929.2999999523,7107,kiwi,NF,C,279308,279308,277478,278592,277480,279691,279108,279108,279691,10
11,test,1,inc,1,z,Fri Apr 11 2025 15:02:25 GMT-0500 (Central Daylight Time),289290.89999997616,gold,800,I,z,z,None,789,590.0,199.0,37,1,2128.399999976158,287162.5,7107,lime,NF,C,281241,281241,279712,280525,279713,281840,281041,281041,281840,11
12,test,1,inc,1,m,Fri Apr 11 2025 15:02:25 GMT-0500 (Central Daylight Time),291240.2999999523,lime,800,I,m,m,None,582,367.0,215.0,109,1,1929.3999999761581,289310.89999997616,7107,iron,NF,C,283407,283407,281860,282674,281861,283790,283191,283191,283789,12
13,test,1,con,1,m,Fri Apr 11 2025 15:02:25 GMT-0500 (Central Daylight Time),293256.1999999285,copper,800,I,m,m,None,657,458.0,199.0,73,1,1996.0,291260.1999999285,7107,copper,NF,C,285339,285340,283809,284623,283811,285805,285140,285140,285805,13
14,test,1,inc,1,z,Fri Apr 11 2025 15:02:25 GMT-0500 (Central Daylight Time),295405.60000002384,zinc,1000,I,z,z,None,586,387.0,199.0,47,1,2133.0,293272.60000002384,7107,pear,NF,C,287556,287556,285822,286839,285823,287955,287356,287356,287955,14
15,test,1,inc,1,z,Fri Apr 11 2025 15:02:25 GMT-0500 (Central Daylight Time),297904.7999999523,lead,1100,I,z,z,None,834,619.0,215.0,40,1,2477.7999999523163,295427.0,7107,lime,NF,C,289820,289820,287976,289089,287978,290454,289605,289605,290454,15
16,test,1,con,1,m,Fri Apr 11 2025 15:02:25 GMT-0500 (Central Daylight Time),299854.10000002384,silver,900,I,m,m,None,494,295.0,199.0,82,1,1928.9000000953674,297925.1999999285,7107,silver,NF,C,292104,292104,290474,291388,290476,292403,291904,291904,292403,16
17,test,1,inc,1,z,Fri Apr 11 2025 15:02:25 GMT-0500 (Central Daylight Time),301953.5,silver,1000,I,z,z,None,540,325.0,215.0,7,1,2078.600000023842,299874.89999997616,7107,banana,NF,C,294170,294170,292424,293437,292426,294503,293954,293954,294503,17
18,test,1,con,1,m,Fri Apr 11 2025 15:02:25 GMT-0500 (Central Daylight Time),304302.60000002384,iron,1000,I,m,m,None,785,586.0,199.0,107,1,2329.2000000476837,301973.39999997616,7107,iron,NF,C,296252,296252,294522,295537,294523,296852,296052,296052,296852,18
19,test,1,inc,1,m,Fri Apr 11 2025 15:02:25 GMT-0500 (Central Daylight Time),306569.0,raisin,1100,I,m,m,None,608,409.0,199.0,80,1,2245.0,304324.0,7107,copper,NF,C,298702,298702,296873,297985,296875,299118,298502,298502,299118,19
20,test,1,con,1,z,Fri Apr 11 2025 15:02:25 GMT-0500 (Central Daylight Time),308567.89999997616,kiwi,900,I,z,z,None,534,335.0,199.0,50,1,1979.1000000238419,306588.7999999523,7107,kiwi,NF,C,300768,300768,299138,300051,299139,301117,300568,300568,301117,20
21,test,1,con,1,m,Fri Apr 11 2025 15:02:25 GMT-0500 (Central Daylight Time),310683.2999999523,gold,1100,I,m,m,None,461,247.0,214.0,100,1,2093.2999999523163,308590.0,7107,gold,NF,C,302983,302983,301139,302250,301141,303232,302768,302768,303232,21
22,test,1,con,1,z,Fri Apr 11 2025 15:02:25 GMT-0500 (Central Daylight Time),312649.2999999523,banana,800,I,z,z,None,632,432.0,200.0,1,1,1960.5,310688.7999999523,7107,banana,NF,C,304765,304765,303238,304049,303238,305198,304565,304565,305198,22
23,test,1,inc,1,z,Fri Apr 11 2025 15:02:25 GMT-0500 (Central Daylight Time),314932.5,lead,1100,I,z,z,None,646,447.0,199.0,56,1,2278.2000000476837,312654.2999999523,7107,kiwi,NF,C,307032,307032,305203,306316,305204,307482,306832,306832,307482,23
24,test,1,inc,1,z,Fri Apr 11 2025 15:02:25 GMT-0500 (Central Daylight Time),317098.6999999285,iron,900,I,z,z,None,714,515.0,199.0,38,1,2146.2999999523163,314952.39999997616,7107,lime,NF,C,309132,309132,307501,308415,307503,309648,308932,308932,309648,24
25,test,1,inc,1,z,Fri Apr 11 2025 15:02:25 GMT-0500 (Central Daylight Time),319114.5,bronze,800,I,z,z,None,656,457.0,199.0,29,1,1995.3999999761581,317119.10000002384,7107,raisin,NF,C,311198,311198,309668,310481,309670,311664,310998,310998,311664,25
26,test,1,con,1,m,Fri Apr 11 2025 15:02:25 GMT-0500 (Central Daylight Time),321047.2999999523,lead,900,I,m,m,None,476,277.0,199.0,122,1,1913.1000000238419,319134.1999999285,7107,lead,NF,C,313314,313314,311683,312598,311684,313597,313114,313114,313596,26
27,test,1,inc,1,m,Fri Apr 11 2025 15:02:25 GMT-0500 (Central Daylight Time),323130.39999997616,cherry,900,I,m,m,None,631,432.0,199.0,94,1,2062.600000023842,321067.7999999523,7107,cobalt,NF,C,315246,315247,313617,314530,313618,315680,315047,315047,315679,27
28,test,1,inc,1,m,Fri Apr 11 2025 15:02:25 GMT-0500 (Central Daylight Time),325279.10000002384,kiwi,1000,I,m,m,None,584,369.0,215.0,103,1,2128.0,323151.10000002384,7107,gold,NF,C,317446,317446,315700,316712,315701,317828,317230,317230,317828,28
29,test,1,con,1,z,Fri Apr 11 2025 15:02:25 GMT-0500 (Central Daylight Time),327278.5,lime,1000,I,z,z,None,444,245.0,199.0,35,1,1978.8999999761581,325299.60000002384,7107,lime,NF,C,319578,319578,317849,318862,317850,319828,319379,319379,319828,29
30,test,1,inc,1,z,Fri Apr 11 2025 15:02:25 GMT-0500 (Central Daylight Time),329677.6999999285,lead,1100,I,z,z,None,744,545.0,199.0,48,1,2379.1999999284744,327298.5,7107,pear,NF,C,321678,321678,319848,320961,319850,322227,321478,321478,322227,30
31,test,1,inc,1,z,Fri Apr 11 2025 15:02:25 GMT-0500 (Central Daylight Time),331826.89999997616,iron,900,I,z,z,None,697,498.0,199.0,62,1,2129.399999976158,329697.5,7107,plum,NF,C,323877,323877,322247,323161,322248,324376,323677,323677,324376,31
32,test,1,con,1,m,Fri Apr 11 2025 15:02:25 GMT-0500 (Central Daylight Time),333826.7999999523,copper,1000,I,m,m,None,447,232.0,215.0,75,1,1979.1999999284744,331847.60000002384,7107,copper,NF,C,326143,326143,324397,325410,324398,326376,325927,325927,326376,32
33,test,1,con,1,m,Fri Apr 11 2025 15:02:25 GMT-0500 (Central Daylight Time),335642.60000002384,silver,800,I,m,m,None,456,257.0,199.0,81,1,1794.4000000953674,333848.1999999285,7107,silver,NF,C,327926,327926,326397,327209,326399,328192,327726,327726,328192,33
34,test,1,con,1,z,Fri Apr 11 2025 15:02:25 GMT-0500 (Central Daylight Time),337658.5,plum,900,I,z,z,None,564,365.0,199.0,58,1,1995.8000000715256,335662.6999999285,7107,plum,NF,C,329842,329842,328212,329126,328213,330208,329642,329642,330208,34
35,test,1,inc,1,z,Fri Apr 11 2025 15:02:25 GMT-0500 (Central Daylight Time),339807.5,silver,1000,I,z,z,None,592,393.0,199.0,15,1,2129.100000023842,337678.39999997616,7107,cherry,NF,C,331958,331958,330227,331242,330229,332357,331758,331758,332356,35
36,test,1,inc,1,m,Fri Apr 11 2025 15:02:25 GMT-0500 (Central Daylight Time),342106.60000002384,raisin,1100,I,m,m,None,646,447.0,199.0,96,1,2278.9000000953674,339827.6999999285,7107,cobalt,NF,C,334207,334207,332377,333491,332378,334656,334007,334007,334656,36
37,test,1,con,1,z,Fri Apr 11 2025 15:02:25 GMT-0500 (Central Daylight Time),344106.60000002384,orange,900,I,z,z,None,547,332.0,215.0,18,1,1985.3000000715256,342121.2999999523,7107,orange,NF,C,336323,336323,334670,335589,334672,336656,336107,336107,336656,37
38,test,1,inc,1,z,Fri Apr 11 2025 15:02:25 GMT-0500 (Central Daylight Time),346305.6999999285,silver,1000,I,z,z,None,632,433.0,199.0,23,1,2178.5999999046326,344127.10000002384,7107,orange,NF,C,338406,338406,336676,337689,336679,338855,338206,338206,338855,38
39,test,1,inc,1,z,Fri Apr 11 2025 15:02:25 GMT-0500 (Central Daylight Time),348338.1999999285,iron,900,I,z,z,None,573,374.0,199.0,54,1,2010.7999999523163,346327.39999997616,7107,kiwi,NF,C,340505,340505,338876,339789,338878,340887,340305,340305,340887,39
40,test,1,con,1,m,Fri Apr 11 2025 15:02:25 GMT-0500 (Central Daylight Time),350321.0,zinc,1000,I,m,m,None,425,226.0,199.0,115,1,1962.1000000238419,348358.89999997616,7107,zinc,NF,C,342637,342637,340908,341921,340910,342870,342438,342438,342870,40
41,test,1,con,1,z,Fri Apr 11 2025 15:02:25 GMT-0500 (Central Daylight Time),352419.39999997616,plum,1100,I,z,z,None,438,238.0,200.0,60,1,2076.899999976158,350342.5,7107,plum,NF,C,344719,344719,342891,344002,342893,344968,344519,344519,344968,41
42,test,1,inc,1,z,Fri Apr 11 2025 15:02:25 GMT-0500 (Central Daylight Time),354436.2999999523,copper,900,I,z,z,None,571,372.0,199.0,6,1,2011.8999999761581,352424.39999997616,7107,banana,NF,C,346603,346603,344973,345887,344974,346985,346403,346403,346985,42
43,test,1,inc,1,m,Fri Apr 11 2025 15:02:25 GMT-0500 (Central Daylight Time),356684.7999999523,plum,1100,I,m,m,None,595,395.0,200.0,112,1,2227.6999999284744,354457.10000002384,7107,iron,NF,C,348834,348834,347006,348118,347008,349234,348634,348634,349234,43
44,test,1,inc,1,z,Fri Apr 11 2025 15:02:25 GMT-0500 (Central Daylight Time),358884.7999999523,cobalt,1100,I,z,z,None,554,355.0,199.0,16,1,2195.1999999284744,356689.60000002384,7107,cherry,NF,C,351068,351068,349239,350351,349239,351434,350868,350868,351434,44
45,test,1,inc,1,z,Fri Apr 11 2025 15:02:25 GMT-0500 (Central Daylight Time),361034.6999999285,silver,1000,I,z,z,None,598,399.0,199.0,31,1,2129.899999976158,358904.7999999523,7107,raisin,NF,C,353184,353184,351454,352468,351455,353584,352984,352984,353584,45
46,test,1,inc,1,z,Fri Apr 11 2025 15:02:25 GMT-0500 (Central Daylight Time),362983.39999997616,gold,800,I,z,z,None,592,377.0,215.0,53,1,1929.2000000476837,361054.1999999285,7107,kiwi,NF,C,355150,355150,353603,354417,353605,355533,354934,354934,355532,46
47,test,1,con,1,z,Fri Apr 11 2025 15:02:25 GMT-0500 (Central Daylight Time),364899.1999999285,cherry,800,I,z,z,None,565,366.0,199.0,9,1,1894.0999999046326,363005.10000002384,7107,cherry,NF,C,357081,357081,355554,356366,355556,357448,356882,356882,357448,47
48,test,1,inc,1,m,Fri Apr 11 2025 15:02:25 GMT-0500 (Central Daylight Time),366965.5,pear,900,I,m,m,None,603,404.0,199.0,102,1,2046.3999999761581,364919.10000002384,7107,gold,NF,C,359098,359099,357468,358382,357470,359515,358899,358899,359514,48
49,test,1,con,1,m,Fri Apr 11 2025 15:02:25 GMT-0500 (Central Daylight Time),369048.1999999285,cobalt,900,I,m,m,None,618,403.0,215.0,90,1,2062.6999999284744,366985.5,7107,cobalt,NF,C,361180,361180,359534,360448,359536,361597,360965,360965,361597,49
50,test,1,con,1,z,Fri Apr 11 2025 15:02:25 GMT-0500 (Central Daylight Time),371430.60000002384,lime,1100,I,z,z,None,726,527.0,199.0,36,1,2362.4000000953674,369068.1999999285,7107,lime,NF,C,363448,363448,361617,362731,361619,363980,363248,363248,363980,50
51,test,1,con,1,z,Fri Apr 11 2025 15:02:25 GMT-0500 (Central Daylight Time),373413.39999997616,cherry,900,I,z,z,None,528,329.0,199.0,10,1,1962.1000000238419,371451.2999999523,7107,cherry,NF,C,365630,365630,364000,364914,364001,365963,365430,365430,365962,51
52,test,1,inc,1,m,Fri Apr 11 2025 15:02:25 GMT-0500 (Central Daylight Time),375395.89999997616,cherry,900,I,m,m,None,529,330.0,199.0,70,1,1963.7999999523163,373432.10000002384,7107,bronze,NF,C,367613,367613,365981,366897,365982,367945,367413,367413,367945,52
53,test,1,con,1,m,Fri Apr 11 2025 15:02:25 GMT-0500 (Central Daylight Time),377595.0,zinc,1100,I,m,m,None,547,348.0,199.0,116,1,2181.3000000715256,375413.6999999285,7107,zinc,NF,C,369795,369795,367963,369079,367964,370144,369595,369595,370144,53
53,test,1,con,0,m,Fri Apr 11 2025 15:02:25 GMT-0500 (Central Daylight Time),379844.60000002384,gold,1000,I,z,z,None,687,488.0,199.0,99,1,2229.4000000953674,377615.1999999285,7107,gold,NF,C,371894,371895,370164,371178,370166,372394,371695,371695,372394,54
54,test,1,inc,1,m,Fri Apr 11 2025 15:02:25 GMT-0500 (Central Daylight Time),382060.5,kiwi,1000,I,m,m,None,654,455.0,199.0,119,1,2196.0,379864.5,7107,zinc,NF,C,374144,374144,372414,373427,372415,374610,373944,373944,374609,55
55,test,1,con,1,z,Fri Apr 11 2025 15:02:25 GMT-0500 (Central Daylight Time),384043.10000002384,pear,800,I,z,z,None,622,423.0,199.0,41,1,1963.0,382080.10000002384,7107,pear,NF,C,376160,376160,374629,375443,374631,376592,375960,375960,376592,56
56,test,1,con,1,z,Fri Apr 11 2025 15:02:25 GMT-0500 (Central Daylight Time),386242.1999999285,banana,1100,I,z,z,None,540,325.0,215.0,4,1,2179.2999999523163,384062.89999997616,7107,banana,NF,C,378458,378458,376612,377726,376613,378791,378243,378243,378791,57
57,test,1,inc,1,m,Fri Apr 11 2025 15:02:25 GMT-0500 (Central Daylight Time),388442.6999999285,raisin,1100,I,m,m,None,548,349.0,199.0,88,1,2179.0999999046326,386263.60000002384,7107,silver,NF,C,380642,380642,378813,379925,378814,380992,380442,380442,380992,58
58,test,1,inc,1,m,Fri Apr 11 2025 15:02:25 GMT-0500 (Central Daylight Time),390457.6999999285,pear,900,I,m,m,None,557,358.0,199.0,110,1,1995.7999999523163,388461.89999997616,7107,iron,NF,C,382641,382641,381011,381925,381012,383007,382441,382441,383007,59
59,test,1,con,1,z,Fri Apr 11 2025 15:02:25 GMT-0500 (Central Daylight Time),392723.39999997616,cherry,1100,I,z,z,None,613,414.0,199.0,12,1,2246.100000023842,390477.2999999523,7107,cherry,NF,C,384857,384857,383026,384141,383028,385273,384657,384657,385272,60
60,test,1,con,1,m,Fri Apr 11 2025 15:02:25 GMT-0500 (Central Daylight Time),394723.10000002384,lead,800,I,m,m,None,647,448.0,199.0,121,1,1978.5,392744.60000002384,7107,lead,NF,C,386823,386823,385294,386107,385295,387272,386623,386623,387272,61
61,test,1,con,1,m,Fri Apr 11 2025 15:02:25 GMT-0500 (Central Daylight Time),396905.5,cobalt,1000,I,m,m,None,623,408.0,215.0,91,1,2160.399999976158,394745.10000002384,7107,cobalt,NF,C,389039,389039,387294,388306,387296,389455,388823,388823,389454,62
62,test,1,con,1,m,Fri Apr 11 2025 15:02:25 GMT-0500 (Central Daylight Time),398888.39999997616,silver,1000,I,m,m,None,425,226.0,199.0,83,1,1962.7999999523163,396925.60000002384,7107,silver,NF,C,391205,391205,389475,390488,389476,391437,391005,391005,391437,63
63,test,1,inc,1,m,Fri Apr 11 2025 15:02:25 GMT-0500 (Central Daylight Time),400937.6999999285,cherry,900,I,m,m,None,590,391.0,199.0,78,1,2027.8999999761581,398909.7999999523,7107,copper,NF,C,393088,393088,391459,392371,391460,393487,392888,392888,393487,64
64,test,1,inc,1,z,Fri Apr 11 2025 15:02:25 GMT-0500 (Central Daylight Time),403070.10000002384,zinc,1000,I,z,z,None,569,370.0,199.0,63,1,2110.5,400959.60000002384,7107,plum,NF,C,395237,395237,393509,394521,393510,395619,395037,395037,395619,65
65,test,1,inc,1,m,Fri Apr 11 2025 15:02:25 GMT-0500 (Central Daylight Time),405402.89999997616,orange,1000,I,m,m,None,773,574.0,199.0,95,1,2313.399999976158,403089.5,7107,cobalt,NF,C,397369,397369,395639,396653,395640,397952,397170,397170,397952,66
66,test,1,inc,1,m,Fri Apr 11 2025 15:02:25 GMT-0500 (Central Daylight Time),407552.1999999285,orange,1000,I,m,m,None,583,384.0,199.0,87,1,2129.1999999284744,405423.0,7107,silver,NF,C,399702,399702,397972,398986,397974,400101,399502,399502,400101,67
67,test,1,inc,1,z,Fri Apr 11 2025 15:02:25 GMT-0500 (Central Daylight Time),409501.5,bronze,800,I,z,z,None,595,380.0,215.0,13,1,1928.5,407573.0,7107,cherry,NF,C,401667,401667,400122,400935,400124,402051,401452,401452,402051,68
68,test,1,inc,1,z,Fri Apr 11 2025 15:02:25 GMT-0500 (Central Daylight Time),411717.60000002384,copper,900,I,z,z,None,753,554.0,199.0,22,1,2194.7000000476837,409522.89999997616,7107,orange,NF,C,403701,403701,402072,402984,402073,404267,403501,403501,404267,69
69,test,1,con,1,m,Fri Apr 11 2025 15:02:25 GMT-0500 (Central Daylight Time),413683.39999997616,copper,900,I,m,m,None,514,315.0,199.0,74,1,1944.7000000476837,411738.6999999285,7107,copper,NF,C,405916,405916,404288,405200,404290,406233,405717,405717,406232,70
70,test,1,inc,1,z,Fri Apr 11 2025 15:02:25 GMT-0500 (Central Daylight Time),415749.60000002384,iron,900,I,z,z,None,611,412.0,199.0,46,1,2046.7000000476837,413702.89999997616,7107,pear,NF,C,407883,407883,406252,407166,406254,408299,407683,407683,408299,71
71,test,1,inc,1,m,Fri Apr 11 2025 15:02:25 GMT-0500 (Central Daylight Time),417798.60000002384,pear,900,I,m,m,None,585,386.0,199.0,126,1,2028.8000000715256,415769.7999999523,7107,lead,NF,C,409949,409949,408319,409232,408320,410348,409749,409749,410348,72
72,test,1,con,1,z,Fri Apr 11 2025 15:02:25 GMT-0500 (Central Daylight Time),419681.5,raisin,800,I,z,z,None,540,325.0,215.0,25,1,1871.5,417810.0,7107,raisin,NF,C,411898,411898,410359,411165,410360,412231,411682,411682,412231,73
73,test,1,inc,1,m,Fri Apr 11 2025 15:02:25 GMT-0500 (Central Daylight Time),421747.5,kiwi,1000,I,m,m,None,508,309.0,199.0,111,1,2046.7000000476837,419700.7999999523,7107,iron,NF,C,413981,413981,412250,413265,412251,414297,413781,413781,414297,74
74,test,1,con,1,z,Fri Apr 11 2025 15:02:25 GMT-0500 (Central Daylight Time),423796.89999997616,pear,900,I,z,z,None,587,388.0,199.0,42,1,2029.7999999523163,421767.10000002384,7107,pear,NF,C,415947,415947,414316,415230,414318,416346,415747,415747,416346,75
75,test,1,con,1,m,Fri Apr 11 2025 15:02:25 GMT-0500 (Central Daylight Time),426029.5,bronze,1100,I,m,m,None,570,371.0,199.0,68,1,2211.7000000476837,423817.7999999523,7107,bronze,NF,C,418196,418196,416367,417479,416368,418579,417996,417996,418579,76
76,test,1,con,1,m,Fri Apr 11 2025 15:02:25 GMT-0500 (Central Daylight Time),428112.10000002384,bronze,900,I,m,m,None,626,427.0,199.0,66,1,2062.9000000953674,426049.1999999285,7107,bronze,NF,C,420228,420228,418598,419512,418600,420661,420029,420029,420661,77
77,test,1,con,1,m,Fri Apr 11 2025 15:02:25 GMT-0500 (Central Daylight Time),429961.60000002384,iron,800,I,m,m,None,490,275.0,215.0,105,1,1830.0,428131.60000002384,7107,iron,NF,C,422228,422228,420681,421495,420682,422511,422012,422012,422511,78
78,test,1,con,1,z,Fri Apr 11 2025 15:02:25 GMT-0500 (Central Daylight Time),431977.5,plum,1000,I,z,z,None,450,251.0,199.0,59,1,1994.6000000238419,429982.89999997616,7107,plum,NF,C,424260,424260,422532,423543,422535,424527,424061,424061,424526,79
79,test,1,con,1,m,Fri Apr 11 2025 15:02:25 GMT-0500 (Central Daylight Time),433826.89999997616,gold,800,I,m,m,None,489,290.0,199.0,97,1,1829.1000000238419,431997.7999999523,7107,gold,NF,C,426077,426077,424547,425361,424549,426376,425877,425877,426376,80
80,test,1,con,1,m,Fri Apr 11 2025 15:02:25 GMT-0500 (Central Daylight Time),436275.6999999285,silver,1100,I,m,m,None,787,588.0,199.0,84,1,2429.0,433846.6999999285,7107,silver,NF,C,428226,428226,426396,427510,426397,428825,428026,428026,428825,81
81,test,1,con,1,z,Fri Apr 11 2025 15:02:25 GMT-0500 (Central Daylight Time),438425.39999997616,lime,900,I,z,z,None,706,492.0,214.0,34,1,2137.0,436288.39999997616,7107,lime,NF,C,430475,430475,428837,429742,428839,430974,430261,430261,430974,82
82,test,1,inc,1,m,Fri Apr 11 2025 15:02:25 GMT-0500 (Central Daylight Time),440574.60000002384,orange,1000,I,m,m,None,586,387.0,199.0,79,1,2127.7000000476837,438446.89999997616,7107,copper,NF,C,432724,432724,430996,432008,430997,433124,432525,432525,433124,83
83,test,1,inc,1,z,Fri Apr 11 2025 15:02:25 GMT-0500 (Central Daylight Time),442623.89999997616,gold,800,I,z,z,None,692,493.0,199.0,45,1,2028.2000000476837,440595.6999999285,7107,pear,NF,C,434674,434674,433145,433958,433147,435173,434474,434474,435173,84
84,test,1,inc,1,m,Fri Apr 11 2025 15:02:25 GMT-0500 (Central Daylight Time),444605.89999997616,banana,800,I,m,m,None,625,410.0,215.0,85,1,1963.7999999523163,442642.10000002384,7107,silver,NF,C,436740,436740,435191,436007,435192,437155,436524,436524,437155,85
85,test,1,con,1,z,Fri Apr 11 2025 15:02:25 GMT-0500 (Central Daylight Time),446688.5,banana,1000,I,z,z,None,533,333.0,200.0,3,1,2076.7000000476837,444611.7999999523,7107,banana,NF,C,438888,438888,437161,438172,437161,439238,438688,438688,439238,86
86,test,1,con,1,z,Fri Apr 11 2025 15:02:25 GMT-0500 (Central Daylight Time),448971.1999999285,orange,1000,I,z,z,None,746,547.0,199.0,19,1,2275.399999976158,446695.7999999523,7107,orange,NF,C,440971,440971,439245,440254,439245,441520,440771,440771,441520,87
87,test,1,con,1,m,Fri Apr 11 2025 15:02:25 GMT-0500 (Central Daylight Time),450953.7999999523,lead,1000,I,m,m,None,448,248.0,200.0,123,1,1977.2999999523163,448976.5,7107,lead,NF,C,443254,443254,441526,442537,441526,443503,443053,443053,443503,88
88,test,1,inc,1,m,Fri Apr 11 2025 15:02:25 GMT-0500 (Central Daylight Time),453170.89999997616,cherry,900,I,m,m,None,781,582.0,199.0,86,1,2211.7999999523163,450959.10000002384,7107,silver,NF,C,445137,445137,443508,444421,443509,445720,444937,444937,445720,89
89,test,1,inc,1,z,Fri Apr 11 2025 15:02:25 GMT-0500 (Central Daylight Time),455219.89999997616,bronze,800,I,z,z,None,688,489.0,199.0,5,1,2028.3999999761581,453191.5,7107,banana,NF,C,447270,447270,445741,446553,445742,447769,447070,447070,447769,90
90,test,1,con,1,z,Fri Apr 11 2025 15:02:25 GMT-0500 (Central Daylight Time),457502.0,raisin,1100,I,z,z,None,618,419.0,199.0,28,1,2260.8000000715256,455241.1999999285,7107,raisin,NF,C,449619,449619,447790,448902,447792,450051,449419,449419,450051,91
91,test,1,inc,1,z,Fri Apr 11 2025 15:02:25 GMT-0500 (Central Daylight Time),459602.39999997616,copper,900,I,z,z,None,665,466.0,199.0,14,1,2089.100000023842,457513.2999999523,7107,cherry,NF,C,451685,451685,450062,450969,450063,452152,451485,451485,452151,92
92,test,1,inc,1,m,Fri Apr 11 2025 15:02:25 GMT-0500 (Central Daylight Time),461601.10000002384,pear,900,I,m,m,None,541,342.0,199.0,118,1,1978.7000000476837,459622.39999997616,7107,zinc,NF,C,453801,453801,452171,453084,452172,454150,453601,453601,454150,93
93,test,1,con,1,m,Fri Apr 11 2025 15:02:25 GMT-0500 (Central Daylight Time),463967.0,cobalt,1100,I,m,m,None,709,494.0,215.0,92,1,2343.0,461624.0,7107,cobalt,NF,C,456017,456017,454173,455284,454175,456516,455801,455801,456516,94
94,test,1,inc,1,m,Fri Apr 11 2025 15:02:25 GMT-0500 (Central Daylight Time),465899.6999999285,banana,800,I,m,m,None,574,374.0,200.0,93,1,1912.7999999523163,463986.89999997616,7107,cobalt,NF,C,458065,458065,456536,457350,456538,458449,457865,457865,458449,95
95,test,1,con,1,m,Fri Apr 11 2025 15:02:25 GMT-0500 (Central Daylight Time),467965.6999999285,bronze,1000,I,m,m,None,511,312.0,199.0,67,1,2046.7999999523163,465918.89999997616,7107,bronze,NF,C,460199,460199,458468,459482,458470,460515,459999,459999,460515,96
96,test,1,con,1,z,Fri Apr 11 2025 15:02:25 GMT-0500 (Central Daylight Time),470031.6999999285,kiwi,800,I,z,z,None,709,510.0,199.0,49,1,2046.0,467985.6999999285,7107,kiwi,NF,C,462065,462065,460535,461348,460537,462581,461865,461865,462581,97
97,test,1,con,1,z,Fri Apr 11 2025 15:02:25 GMT-0500 (Central Daylight Time),472147.60000002384,orange,1100,I,z,z,None,463,264.0,199.0,20,1,2096.2000000476837,470051.39999997616,7107,orange,NF,C,464431,464431,462600,463715,462602,464697,464231,464231,464697,98
98,test,1,con,1,m,Fri Apr 11 2025 15:02:25 GMT-0500 (Central Daylight Time),473997.0,bronze,800,I,m,m,None,487,288.0,199.0,65,1,1828.8999999761581,472168.10000002384,7107,bronze,NF,C,466246,466247,464717,465531,464719,466546,466047,466047,466546,99
99,test,1,inc,1,m,Fri Apr 11 2025 15:02:25 GMT-0500 (Central Daylight Time),476113.0,kiwi,1000,I,m,m,None,558,343.0,215.0,127,1,2096.5,474016.5,7107,lead,NF,C,468313,468313,466566,467580,466567,468662,468096,468097,468662,100
100,test,1,con,1,m,Fri Apr 11 2025 15:02:25 GMT-0500 (Central Daylight Time),478045.5,gold,900,I,m,m,None,478,263.0,215.0,98,1,1910.8999999761581,476134.60000002384,7107,gold,NF,C,470328,470328,468684,469596,468685,470595,470113,470113,470595,101
101,test,1,con,1,m,Fri Apr 11 2025 15:02:25 GMT-0500 (Central Daylight Time),479811.6999999285,zinc,800,I,m,m,None,413,214.0,199.0,113,1,1746.7999999523163,478064.89999997616,7107,zinc,NF,C,472145,472145,470614,471429,470615,472361,471945,471945,472361,102
102,test,1,con,1,z,Fri Apr 11 2025 15:02:25 GMT-0500 (Central Daylight Time),481644.5,raisin,900,I,z,z,None,379,180.0,199.0,26,1,1813.3000000715256,479831.1999999285,7107,raisin,NF,C,474011,474011,472380,473295,472382,474194,473811,473811,474193,103
103,test,1,inc,1,z,Fri Apr 11 2025 15:02:25 GMT-0500 (Central Daylight Time),483610.60000002384,gold,800,I,z,z,None,606,407.0,199.0,61,1,1946.2000000476837,481664.39999997616,7107,plum,NF,C,475743,475744,474213,475027,474215,476160,475544,475544,476160,104
104,test,1,con,1,z,Fri Apr 11 2025 15:02:25 GMT-0500 (Central Daylight Time),485693.1999999285,kiwi,1000,I,z,z,None,521,322.0,199.0,51,1,2061.0,483632.1999999285,7107,kiwi,NF,C,477909,477909,476181,477193,476183,478242,477709,477709,478242,105
105,test,1,con,1,z,Fri Apr 11 2025 15:02:25 GMT-0500 (Central Daylight Time),487443.1999999285,orange,800,I,z,z,None,398,199.0,199.0,17,1,1730.1999999284744,485713.0,7107,orange,NF,C,479792,479793,478262,479076,478263,479992,479593,479593,479992,106
106,test,1,con,1,z,Fri Apr 11 2025 15:02:25 GMT-0500 (Central Daylight Time),489325.39999997616,plum,800,I,z,z,None,520,321.0,199.0,57,1,1863.6000000238419,487461.7999999523,7107,plum,NF,C,481542,481542,480011,480825,480011,481875,481342,481342,481874,107
107,test,1,inc,1,m,Fri Apr 11 2025 15:02:25 GMT-0500 (Central Daylight Time),491158.10000002384,lime,800,I,m,m,None,477,278.0,199.0,125,1,1812.4000000953674,489345.6999999285,7107,lead,NF,C,483425,483425,481895,482708,481896,483707,483225,483225,483707,108
108,test,1,con,1,z,Fri Apr 11 2025 15:02:25 GMT-0500 (Central Daylight Time),493174.10000002384,banana,900,I,z,z,None,553,354.0,199.0,2,1,1995.6000000238419,491178.5,7107,banana,NF,C,485357,485357,483728,484641,483729,485723,485158,485158,485723,109
109,test,1,inc,1,m,Fri Apr 11 2025 15:02:25 GMT-0500 (Central Daylight Time),495506.39999997616,raisin,1100,I,m,m,None,679,464.0,215.0,72,1,2312.0,493194.39999997616,7107,bronze,NF,C,487590,487590,485743,486857,485745,488055,487373,487374,488055,110
110,test,1,inc,1,z,Fri Apr 11 2025 15:02:25 GMT-0500 (Central Daylight Time),497755.6999999285,cobalt,1100,I,z,z,None,588,389.0,199.0,24,1,2229.899999976158,495525.7999999523,7107,orange,NF,C,489906,489906,488075,489190,488077,490305,489706,489706,490305,111
111,test,1,con,1,m,Fri Apr 11 2025 15:02:25 GMT-0500 (Central Daylight Time),499738.6999999285,cobalt,800,I,m,m,None,623,424.0,199.0,89,1,1963.0,497775.6999999285,7107,cobalt,NF,C,491855,491855,490325,491139,490326,492288,491655,491655,492288,112
112,test,1,inc,1,z,Fri Apr 11 2025 15:02:25 GMT-0500 (Central Daylight Time),501971.0,cobalt,1100,I,z,z,None,580,381.0,199.0,32,1,2210.600000023842,499760.39999997616,7107,raisin,NF,C,494138,494138,492309,493421,492311,494520,493938,493938,494520,113
113,test,1,inc,1,m,Fri Apr 11 2025 15:02:25 GMT-0500 (Central Daylight Time),504053.7999999523,orange,1000,I,m,m,None,527,312.0,215.0,71,1,2061.2999999523163,501992.5,7107,bronze,NF,C,496287,496287,494542,495554,494543,496603,496071,496071,496603,114
114,test,1,inc,1,z,Fri Apr 11 2025 15:02:25 GMT-0500 (Central Daylight Time),506186.6999999285,zinc,1000,I,z,z,None,582,382.0,200.0,55,1,2113.0,504073.6999999285,7107,kiwi,NF,C,498353,498353,496623,497637,496624,498736,498152,498152,498736,115
115,test,1,inc,1,z,Fri Apr 11 2025 15:02:25 GMT-0500 (Central Daylight Time),508235.39999997616,copper,900,I,z,z,None,596,397.0,199.0,30,1,2028.8999999761581,506206.5,7107,raisin,NF,C,500385,500386,498756,499669,498757,500785,500186,500186,500784,116
116,test,1,inc,1,z,Fri Apr 11 2025 15:02:25 GMT-0500 (Central Daylight Time),510535.10000002384,zinc,1000,I,z,z,None,743,544.0,199.0,39,1,2279.4000000953674,508255.6999999285,7107,lime,NF,C,502535,502535,500805,501819,500806,503084,502335,502335,503084,117
117,test,1,con,1,z,Fri Apr 11 2025 15:02:25 GMT-0500 (Central Daylight Time),512600.39999997616,pear,1000,I,z,z,None,509,309.0,200.0,43,1,2043.6000000238419,510556.7999999523,7107,pear,NF,C,504833,504833,503106,504117,503107,505150,504633,504633,505149,118
118,test,1,con,1,z,Fri Apr 11 2025 15:02:25 GMT-0500 (Central Daylight Time),514717.0,raisin,1000,I,z,z,None,571,372.0,199.0,27,1,2111.100000023842,512605.89999997616,7107,raisin,NF,C,506883,506883,505155,506167,505155,507266,506684,506684,507266,119
119,test,1,con,1,m,Fri Apr 11 2025 15:02:25 GMT-0500 (Central Daylight Time),516816.2999999523,iron,900,I,m,m,None,642,443.0,199.0,106,1,2078.7999999523163,514737.5,7107,iron,NF,C,508916,508916,507287,508200,507288,509365,508716,508716,509365,120
120,test,1,inc,1,m,Fri Apr 11 2025 15:02:25 GMT-0500 (Central Daylight Time),518849.10000002384,lime,800,I,m,m,None,675,476.0,199.0,117,1,2015.2000000476837,516833.89999997616,7107,zinc,NF,C,510915,510915,509383,510199,509384,511398,510716,510716,511398,121
121,test,1,con,1,m,Fri Apr 11 2025 15:02:25 GMT-0500 (Central Daylight Time),520998.10000002384,copper,1100,I,m,m,None,494,295.0,199.0,76,1,2130.0,518868.10000002384,7107,copper,NF,C,513248,513248,511417,512532,511419,513547,513048,513048,513547,122
122,test,1,inc,1,m,Fri Apr 11 2025 15:02:25 GMT-0500 (Central Daylight Time),522863.7999999523,banana,800,I,m,m,None,510,309.0,201.0,77,1,1846.0,521017.7999999523,7107,copper,NF,C,515097,515097,513567,514381,513568,515413,514896,514896,515413,123
123,test,1,inc,1,m,Fri Apr 11 2025 15:02:25 GMT-0500 (Central Daylight Time),524696.2999999523,banana,800,I,m,m,None,491,292.0,199.0,69,1,1820.3999999761581,522875.89999997616,7107,bronze,NF,C,516946,516946,515425,516229,515426,517245,516746,516746,517245,124
124,test,1,inc,1,m,Fri Apr 11 2025 15:02:25 GMT-0500 (Central Daylight Time),526879.6999999285,plum,1100,I,m,m,None,543,344.0,199.0,104,1,2178.2999999523163,524701.3999999762,7107,gold,NF,C,519079,519079,517250,518362,517251,519429,518880,518880,519429,125
125,test,1,inc,1,m,Fri Apr 11 2025 15:02:25 GMT-0500 (Central Daylight Time),529078.8999999762,plum,1100,I,m,m,None,535,336.0,199.0,128,1,2179.0,526899.8999999762,7107,lead,NF,C,521279,521279,519449,520562,519451,521628,521079,521079,521628,126
126,test,1,con,1,z,Fri Apr 11 2025 15:02:25 GMT-0500 (Central Daylight Time),531044.2999999523,cherry,1000,I,z,z,None,410,196.0,214.0,11,1,1945.1000000238419,529099.1999999285,7107,cherry,NF,C,523394,523394,521648,522661,521650,523593,523178,523179,523593,127
127,test,1,inc,1,z,Fri Apr 11 2025 15:02:25 GMT-0500 (Central Daylight Time),533360.7999999523,cobalt,1100,I,z,z,None,675,476.0,199.0,8,1,2311.399999976158,531049.3999999762,7107,banana,NF,C,525427,525427,523598,524711,523599,525910,525228,525228,525910,128
