Number,acc_sum,block,block_c,block_cond,con_img,correct,correct_response,datetime,endtime,jitter,project,response,response_time,row_sel,session_number,start_end,starttime,subject_id,task,task_vers,trial
9,0,prac,1,A,circle.png,0,m,Wed Apr 02 2025 17:35:19 GMT-0500 (Central Daylight Time),78548.69999998808,1500,O,None,1512,8,1,3800.5,74748.19999998808,7116,NTS,A,1
7,1,prac,1,A,circle.png,1,m,Wed Apr 02 2025 17:35:19 GMT-0500 (Central Daylight Time),81931.0,1700,O,m,862,6,1,3348.5,78582.5,7116,NTS,A,2
9,2,prac,1,A,circle.png,1,m,Wed Apr 02 2025 17:35:19 GMT-0500 (Central Daylight Time),84863.19999998808,1500,O,m,625,8,1,2912.2999999821186,81950.90000000596,7116,NTS,A,3
3,3,prac,1,A,circle.png,1,z,Wed Apr 02 2025 17:35:19 GMT-0500 (Central Daylight Time),87579.09999999404,1200,O,z,705,3,1,2687.5,84891.59999999404,7116,NTS,A,4
4,4,prac,1,A,circle.png,1,z,Wed Apr 02 2025 17:35:19 GMT-0500 (Central Daylight Time),90446.19999998808,1400,O,z,642,4,1,2837.0999999940395,87609.09999999404,7116,NTS,A,5
8,5,prac,1,A,circle.png,1,m,Wed Apr 02 2025 17:35:19 GMT-0500 (Central Daylight Time),93427.09999999404,1600,O,m,572,7,1,2956.699999988079,90470.40000000596,7116,NTS,A,6
3,6,prac,1,A,circle.png,1,z,Wed Apr 02 2025 17:35:19 GMT-0500 (Central Daylight Time),96075.30000001192,1200,O,z,628,3,1,2617.5,93457.80000001192,7116,NTS,A,7
2,7,prac,1,A,circle.png,1,z,Wed Apr 02 2025 17:35:19 GMT-0500 (Central Daylight Time),99875.09999999404,2000,O,z,997,2,1,3791.4000000059605,96083.69999998808,7116,NTS,A,8
7,8,prac,1,A,circle.png,1,m,Wed Apr 02 2025 17:35:19 GMT-0500 (Central Daylight Time),103157.5,1700,O,m,752,6,1,3252.699999988079,99904.80000001192,7116,NTS,A,9
6,9,prac,1,A,circle.png,1,m,Wed Apr 02 2025 17:35:19 GMT-0500 (Central Daylight Time),106771.90000000596,1900,O,m,912,5,1,3584.800000011921,103187.09999999404,7116,NTS,A,10
6,9,prac,1,A,circle.png,0,m,Wed Apr 02 2025 17:35:19 GMT-0500 (Central Daylight Time),110320.69999998808,1900,O,z,856,5,1,3540.699999988079,106780.0,7116,NTS,A,11
1,10,prac,1,A,circle.png,1,z,Wed Apr 02 2025 17:35:19 GMT-0500 (Central Daylight Time),112936.5,1000,O,z,817,1,1,2608.199999988079,110328.30000001192,7116,NTS,A,12
8,1,prac,1,B,triangle.png,1,m,Wed Apr 02 2025 17:35:19 GMT-0500 (Central Daylight Time),149791.0,1200,O,m,1200,7,1,3192.5999999940395,146598.40000000596,7116,NTS,A,1
6,2,prac,1,B,triangle.png,1,m,Wed Apr 02 2025 17:35:19 GMT-0500 (Central Daylight Time),152240.19999998808,1000,O,m,657,5,1,2442.199999988079,149798.0,7116,NTS,A,2
2,3,prac,1,B,triangle.png,1,m,Wed Apr 02 2025 17:35:19 GMT-0500 (Central Daylight Time),155522.5,1700,O,m,788,2,1,3275.0999999940395,152247.40000000596,7116,NTS,A,3
9,3,prac,1,B,triangle.png,0,z,Wed Apr 02 2025 17:35:19 GMT-0500 (Central Daylight Time),159221.30000001192,1400,O,None,1514,8,1,3691.300000011921,155530.0,7116,NTS,A,4
8,4,prac,1,B,triangle.png,1,m,Wed Apr 02 2025 17:35:19 GMT-0500 (Central Daylight Time),162086.90000000596,1200,O,m,869,7,1,2857.5,159229.40000000596,7116,NTS,A,5
4,5,prac,1,B,triangle.png,1,m,Wed Apr 02 2025 17:35:19 GMT-0500 (Central Daylight Time),165152.59999999404,1500,O,m,775,4,1,3057.699999988079,162094.90000000596,7116,NTS,A,6
4,6,prac,1,B,triangle.png,1,m,Wed Apr 02 2025 17:35:19 GMT-0500 (Central Daylight Time),168135.0,1500,O,m,694,4,1,2974.4000000059605,165160.59999999404,7116,NTS,A,7
9,7,prac,1,B,triangle.png,1,z,Wed Apr 02 2025 17:35:19 GMT-0500 (Central Daylight Time),171167.30000001192,1400,O,z,833,8,1,3025.0,168142.30000001192,7116,NTS,A,8
3,8,prac,1,B,triangle.png,1,z,Wed Apr 02 2025 17:35:19 GMT-0500 (Central Daylight Time),174482.80000001192,1600,O,z,931,3,1,3308.0,171174.80000001192,7116,NTS,A,9
7,9,prac,1,B,triangle.png,1,z,Wed Apr 02 2025 17:35:19 GMT-0500 (Central Daylight Time),178199.19999998808,2000,O,z,928,6,1,3708.2999999821186,174490.90000000596,7116,NTS,A,10
1,10,prac,1,B,triangle.png,1,z,Wed Apr 02 2025 17:35:19 GMT-0500 (Central Daylight Time),181547.19999998808,1900,O,z,639,1,1,3319.199999988079,178228.0,7116,NTS,A,11
6,11,prac,1,B,triangle.png,1,m,Wed Apr 02 2025 17:35:19 GMT-0500 (Central Daylight Time),184463.69999998808,1000,O,m,1127,5,1,2909.699999988079,181554.0,7116,NTS,A,12
9,1,test,1,A,circle.png,1,m,Wed Apr 02 2025 17:35:19 GMT-0500 (Central Daylight Time),214953.90000000596,1500,O,m,1108,8,1,2624.5999999940395,212329.30000001192,7116,NTS,A,1
1,2,test,1,A,circle.png,1,z,Wed Apr 02 2025 17:35:19 GMT-0500 (Central Daylight Time),216936.80000001192,1000,O,z,935,1,1,1962.5,214974.30000001192,7116,NTS,A,2
6,3,test,1,A,circle.png,1,m,Wed Apr 02 2025 17:35:19 GMT-0500 (Central Daylight Time),220118.69999998808,1900,O,m,1244,5,1,3162.0999999940395,216956.59999999404,7116,NTS,A,3
3,4,test,1,A,circle.png,1,z,Wed Apr 02 2025 17:35:19 GMT-0500 (Central Daylight Time),222018.19999998808,1200,O,z,648,3,1,1880.5999999940395,220137.59999999404,7116,NTS,A,4
8,5,test,1,A,circle.png,1,m,Wed Apr 02 2025 17:35:19 GMT-0500 (Central Daylight Time),224283.90000000596,1600,O,m,623,7,1,2244.5,222039.40000000596,7116,NTS,A,5
1,6,test,1,A,circle.png,1,z,Wed Apr 02 2025 17:35:19 GMT-0500 (Central Daylight Time),225916.09999999404,1000,O,z,598,1,1,1613.0,224303.09999999404,7116,NTS,A,6
6,7,test,1,A,circle.png,1,m,Wed Apr 02 2025 17:35:19 GMT-0500 (Central Daylight Time),228516.09999999404,1900,O,m,664,5,1,2594.5,225921.59999999404,7116,NTS,A,7
2,8,test,1,A,circle.png,1,z,Wed Apr 02 2025 17:35:19 GMT-0500 (Central Daylight Time),231248.40000000596,2000,O,z,693,2,1,2710.9000000059605,228537.5,7116,NTS,A,8
4,9,test,1,A,circle.png,1,z,Wed Apr 02 2025 17:35:19 GMT-0500 (Central Daylight Time),233631.0,1400,O,z,944,4,1,2363.5999999940395,231267.40000000596,7116,NTS,A,9
4,10,test,1,A,circle.png,1,z,Wed Apr 02 2025 17:35:19 GMT-0500 (Central Daylight Time),235696.80000001192,1400,O,z,617,4,1,2045.800000011921,233651.0,7116,NTS,A,10
2,11,test,1,A,circle.png,1,z,Wed Apr 02 2025 17:35:19 GMT-0500 (Central Daylight Time),238346.19999998808,2000,O,z,598,2,1,2629.0,235717.19999998808,7116,NTS,A,11
3,11,test,1,A,circle.png,0,z,Wed Apr 02 2025 17:35:19 GMT-0500 (Central Daylight Time),240261.19999998808,1200,O,m,678,3,1,1894.2999999821186,238366.90000000596,7116,NTS,A,12
8,12,test,1,A,circle.png,1,m,Wed Apr 02 2025 17:35:19 GMT-0500 (Central Daylight Time),242694.80000001192,1600,O,m,803,7,1,2427.4000000059605,240267.40000000596,7116,NTS,A,13
1,13,test,1,A,circle.png,1,z,Wed Apr 02 2025 17:35:19 GMT-0500 (Central Daylight Time),244427.40000000596,1000,O,z,682,1,1,1712.7000000178814,242714.69999998808,7116,NTS,A,14
9,14,test,1,A,circle.png,1,m,Wed Apr 02 2025 17:35:19 GMT-0500 (Central Daylight Time),246593.30000001192,1500,O,m,626,8,1,2146.300000011921,244447.0,7116,NTS,A,15
4,15,test,1,A,circle.png,1,z,Wed Apr 02 2025 17:35:19 GMT-0500 (Central Daylight Time),248693.19999998808,1400,O,z,663,4,1,2080.399999976158,246612.80000001192,7116,NTS,A,16
9,16,test,1,A,circle.png,1,m,Wed Apr 02 2025 17:35:19 GMT-0500 (Central Daylight Time),250891.19999998808,1500,O,m,647,8,1,2179.899999976158,248711.30000001192,7116,NTS,A,17
8,17,test,1,A,circle.png,1,m,Wed Apr 02 2025 17:35:19 GMT-0500 (Central Daylight Time),253174.40000000596,1600,O,m,660,7,1,2278.0999999940395,250896.30000001192,7116,NTS,A,18
2,18,test,1,A,circle.png,1,z,Wed Apr 02 2025 17:35:19 GMT-0500 (Central Daylight Time),255923.80000001192,2000,O,z,699,2,1,2729.7000000178814,253194.09999999404,7116,NTS,A,19
7,19,test,1,A,circle.png,1,m,Wed Apr 02 2025 17:35:19 GMT-0500 (Central Daylight Time),258422.69999998808,1700,O,m,760,6,1,2479.5999999940395,255943.09999999404,7116,NTS,A,20
2,20,test,1,A,circle.png,1,z,Wed Apr 02 2025 17:35:19 GMT-0500 (Central Daylight Time),261105.40000000596,2000,O,z,642,2,1,2665.7000000178814,258439.69999998808,7116,NTS,A,21
1,21,test,1,A,circle.png,1,z,Wed Apr 02 2025 17:35:19 GMT-0500 (Central Daylight Time),262838.09999999404,1000,O,z,687,1,1,1712.199999988079,261125.90000000596,7116,NTS,A,22
3,22,test,1,A,circle.png,1,z,Wed Apr 02 2025 17:35:19 GMT-0500 (Central Daylight Time),264687.59999999404,1200,O,z,602,3,1,1830.0999999940395,262857.5,7116,NTS,A,23
7,23,test,1,A,circle.png,1,m,Wed Apr 02 2025 17:35:19 GMT-0500 (Central Daylight Time),267003.40000000596,1700,O,m,565,6,1,2297.5999999940395,264705.8000000119,7116,NTS,A,24
7,1,test,1,B,triangle.png,1,z,Wed Apr 02 2025 17:35:19 GMT-0500 (Central Daylight Time),295743.90000000596,2000,O,z,902,6,1,2931.800000011921,292812.09999999404,7116,NTS,A,1
2,2,test,1,B,triangle.png,1,m,Wed Apr 02 2025 17:35:19 GMT-0500 (Central Daylight Time),297743.40000000596,1200,O,m,763,10,1,1979.0999999940395,295764.3000000119,7116,NTS,A,2
9,3,test,1,B,triangle.png,1,z,Wed Apr 02 2025 17:35:19 GMT-0500 (Central Daylight Time),300909.0,1900,O,z,1222,16,1,3145.0,297764.0,7116,NTS,A,3
7,4,test,1,B,triangle.png,1,z,Wed Apr 02 2025 17:35:19 GMT-0500 (Central Daylight Time),303258.3000000119,1600,O,z,702,14,1,2329.2000000178814,300929.09999999404,7116,NTS,A,4
9,5,test,1,B,triangle.png,1,z,Wed Apr 02 2025 17:35:19 GMT-0500 (Central Daylight Time),305907.3000000119,1900,O,z,707,16,1,2628.800000011921,303278.5,7116,NTS,A,5
3,6,test,1,B,triangle.png,1,z,Wed Apr 02 2025 17:35:19 GMT-0500 (Central Daylight Time),308639.8000000119,2000,O,z,694,11,1,2713.0,305926.8000000119,7116,NTS,A,6
9,7,test,1,B,triangle.png,1,z,Wed Apr 02 2025 17:35:19 GMT-0500 (Central Daylight Time),311005.59999999404,1400,O,z,922,8,1,2347.5,308658.09999999404,7116,NTS,A,7
2,8,test,1,B,triangle.png,1,m,Wed Apr 02 2025 17:35:19 GMT-0500 (Central Daylight Time),313005.40000000596,1200,O,m,765,10,1,1980.5,311024.90000000596,7116,NTS,A,8
8,9,test,1,B,triangle.png,1,m,Wed Apr 02 2025 17:35:19 GMT-0500 (Central Daylight Time),314771.3000000119,1200,O,m,526,7,1,1745.9000000059605,313025.40000000596,7116,NTS,A,9
1,10,test,1,B,triangle.png,1,z,Wed Apr 02 2025 17:35:19 GMT-0500 (Central Daylight Time),316837.5,1400,O,z,631,9,1,2046.699999988079,314790.8000000119,7116,NTS,A,10
7,11,test,1,B,triangle.png,1,z,Wed Apr 02 2025 17:35:19 GMT-0500 (Central Daylight Time),319936.1999999881,2000,O,z,1053,6,1,3080.0,316856.1999999881,7116,NTS,A,11
4,12,test,1,B,triangle.png,1,m,Wed Apr 02 2025 17:35:19 GMT-0500 (Central Daylight Time),321635.40000000596,1000,O,m,657,12,1,1680.5999999940395,319954.8000000119,7116,NTS,A,12
3,13,test,1,B,triangle.png,1,z,Wed Apr 02 2025 17:35:19 GMT-0500 (Central Daylight Time),324034.6999999881,1600,O,z,750,3,1,2379.699999988079,321655.0,7116,NTS,A,13
7,14,test,1,B,triangle.png,1,z,Wed Apr 02 2025 17:35:19 GMT-0500 (Central Daylight Time),326567.3000000119,1600,O,z,896,14,1,2513.9000000059605,324053.40000000596,7116,NTS,A,14
4,15,test,1,B,triangle.png,1,m,Wed Apr 02 2025 17:35:19 GMT-0500 (Central Daylight Time),328999.5,1500,O,m,886,4,1,2412.0999999940395,326587.40000000596,7116,NTS,A,15
4,16,test,1,B,triangle.png,1,m,Wed Apr 02 2025 17:35:19 GMT-0500 (Central Daylight Time),331415.8000000119,1500,O,m,870,4,1,2389.9000000059605,329025.90000000596,7116,NTS,A,16
6,17,test,1,B,triangle.png,1,m,Wed Apr 02 2025 17:35:19 GMT-0500 (Central Daylight Time),333081.59999999404,1000,O,m,626,5,1,1647.199999988079,331434.40000000596,7116,NTS,A,17
8,18,test,1,B,triangle.png,1,m,Wed Apr 02 2025 17:35:19 GMT-0500 (Central Daylight Time),335413.5,1700,O,m,597,15,1,2313.300000011921,333100.1999999881,7116,NTS,A,18
1,19,test,1,B,triangle.png,1,z,Wed Apr 02 2025 17:35:19 GMT-0500 (Central Daylight Time),337962.59999999404,1900,O,z,617,1,1,2543.199999988079,335419.40000000596,7116,NTS,A,19
4,20,test,1,B,triangle.png,1,m,Wed Apr 02 2025 17:35:19 GMT-0500 (Central Daylight Time),340096.0,1000,O,m,1103,12,1,2127.5999999940395,337968.40000000596,7116,NTS,A,20
6,21,test,1,B,triangle.png,1,m,Wed Apr 02 2025 17:35:19 GMT-0500 (Central Daylight Time),342412.0,1500,O,m,774,13,1,2294.699999988079,340117.3000000119,7116,NTS,A,21
1,22,test,1,B,triangle.png,1,z,Wed Apr 02 2025 17:35:19 GMT-0500 (Central Daylight Time),345027.6999999881,1900,O,z,667,1,1,2596.5,342431.1999999881,7116,NTS,A,22
2,23,test,1,B,triangle.png,1,m,Wed Apr 02 2025 17:35:19 GMT-0500 (Central Daylight Time),347593.59999999404,1700,O,m,826,2,1,2546.0,345047.59999999404,7116,NTS,A,23
2,24,test,1,B,triangle.png,1,m,Wed Apr 02 2025 17:35:19 GMT-0500 (Central Daylight Time),350341.90000000596,1700,O,m,1003,2,1,2726.4000000059605,347615.5,7116,NTS,A,24
8,0,prac,1,C,triangle.png,0,m,Wed Apr 02 2025 17:35:19 GMT-0500 (Central Daylight Time),412255.90000000596,1400,O,None,1514,7,1,3692.800000011921,408563.09999999404,7116,NTS,A,1
7,0,prac,1,C,triangle.png,0,z,Wed Apr 02 2025 17:35:19 GMT-0500 (Central Daylight Time),415771.09999999404,1200,O,None,1515,6,1,3491.699999988079,412279.40000000596,7116,NTS,A,2
3,0,prac,1,C,triangle.png,0,z,Wed Apr 02 2025 17:35:19 GMT-0500 (Central Daylight Time),419586.5,1500,O,None,1514,3,1,3793.9000000059605,415792.59999999404,7116,NTS,A,3
4,0,prac,1,C,circle.png,0,z,Wed Apr 02 2025 17:35:19 GMT-0500 (Central Daylight Time),422902.0,1000,O,None,1515,4,1,3287.0999999940395,419614.90000000596,7116,NTS,A,4
4,0,prac,1,C,circle.png,0,z,Wed Apr 02 2025 17:35:19 GMT-0500 (Central Daylight Time),425734.5,1000,O,m,1019,4,1,2806.4000000059605,422928.09999999404,7116,NTS,A,5
2,0,prac,1,C,triangle.png,0,m,Wed Apr 02 2025 17:35:19 GMT-0500 (Central Daylight Time),429650.09999999404,1600,O,None,1514,2,1,3889.4000000059605,425760.6999999881,7116,NTS,A,6
6,0,prac,1,C,circle.png,0,m,Wed Apr 02 2025 17:35:19 GMT-0500 (Central Daylight Time),433965.40000000596,2000,O,None,1514,5,1,4287.9000000059605,429677.5,7116,NTS,A,7
6,1,prac,1,C,circle.png,1,m,Wed Apr 02 2025 17:35:19 GMT-0500 (Central Daylight Time),437680.59999999404,2000,O,m,910,5,1,3687.7999999821186,433992.8000000119,7116,NTS,A,8
1,2,prac,1,C,circle.png,1,z,Wed Apr 02 2025 17:35:19 GMT-0500 (Central Daylight Time),441196.09999999404,1700,O,z,1014,1,1,3489.5,437706.59999999404,7116,NTS,A,9
7,2,prac,1,C,triangle.png,0,z,Wed Apr 02 2025 17:35:19 GMT-0500 (Central Daylight Time),444711.5,1200,O,None,1514,6,1,3488.300000011921,441223.1999999881,7116,NTS,A,10
3,3,prac,1,C,triangle.png,1,z,Wed Apr 02 2025 17:35:19 GMT-0500 (Central Daylight Time),447860.6999999881,1500,O,z,839,3,1,3120.199999988079,444740.5,7116,NTS,A,11
9,4,prac,1,C,circle.png,1,m,Wed Apr 02 2025 17:35:19 GMT-0500 (Central Daylight Time),451659.5,1900,O,m,1098,8,1,3772.699999988079,447886.8000000119,7116,NTS,A,12
6,1,prac,2,C,circle.png,1,m,Wed Apr 02 2025 17:35:19 GMT-0500 (Central Daylight Time),467054.5,2000,O,m,786,5,1,3571.800000011921,463482.6999999881,7116,NTS,A,1
8,1,prac,2,C,triangle.png,0,m,Wed Apr 02 2025 17:35:19 GMT-0500 (Central Daylight Time),470769.6999999881,1400,O,None,1516,7,1,3687.7999999821186,467081.90000000596,7116,NTS,A,2
9,2,prac,2,C,circle.png,1,m,Wed Apr 02 2025 17:35:19 GMT-0500 (Central Daylight Time),474817.6999999881,1900,O,m,1333,8,1,4021.7999999821186,470795.90000000596,7116,NTS,A,3
1,3,prac,2,C,circle.png,1,z,Wed Apr 02 2025 17:35:19 GMT-0500 (Central Daylight Time),478017.5,1700,O,z,709,1,1,3188.5,474829.0,7116,NTS,A,4
2,4,prac,2,C,triangle.png,1,m,Wed Apr 02 2025 17:35:19 GMT-0500 (Central Daylight Time),481849.59999999404,1600,O,m,1416,2,1,3808.9000000059605,478040.6999999881,7116,NTS,A,5
4,4,prac,2,C,circle.png,0,z,Wed Apr 02 2025 17:35:19 GMT-0500 (Central Daylight Time),484831.90000000596,1000,O,m,1177,4,1,2955.7000000178814,481876.1999999881,7116,NTS,A,6
9,4,prac,2,C,circle.png,0,m,Wed Apr 02 2025 17:35:19 GMT-0500 (Central Daylight Time),489047.09999999404,1900,O,None,1515,8,1,4193.699999988079,484853.40000000596,7116,NTS,A,7
1,5,prac,2,C,circle.png,1,z,Wed Apr 02 2025 17:35:19 GMT-0500 (Central Daylight Time),492514.3000000119,1700,O,z,991,1,1,3454.9000000059605,489059.40000000596,7116,NTS,A,8
6,6,prac,2,C,circle.png,1,m,Wed Apr 02 2025 17:35:19 GMT-0500 (Central Daylight Time),496344.6999999881,2000,O,m,1018,5,1,3804.399999976158,492540.3000000119,7116,NTS,A,9
3,7,prac,2,C,triangle.png,1,z,Wed Apr 02 2025 17:35:19 GMT-0500 (Central Daylight Time),499759.59999999404,1500,O,z,1101,3,1,3389.5999999940395,496370.0,7116,NTS,A,10
7,7,prac,2,C,triangle.png,0,z,Wed Apr 02 2025 17:35:19 GMT-0500 (Central Daylight Time),503076.1999999881,1200,O,m,1332,6,1,3309.399999976158,499766.8000000119,7116,NTS,A,11
7,7,prac,2,C,triangle.png,0,z,Wed Apr 02 2025 17:35:19 GMT-0500 (Central Daylight Time),506591.3000000119,1200,O,None,1514,6,1,3489.4000000059605,503101.90000000596,7116,NTS,A,12
3,1,test,1,C,circle.png,1,z,Wed Apr 02 2025 17:35:19 GMT-0500 (Central Daylight Time),558241.0,1600,O,z,1161,11,1,2769.699999988079,555471.3000000119,7116,NTS,A,1
7,2,test,1,C,triangle.png,1,z,Wed Apr 02 2025 17:35:19 GMT-0500 (Central Daylight Time),560840.1999999881,1700,O,z,861,22,1,2580.5999999940395,558259.599999994,7116,NTS,A,2
4,2,test,1,C,triangle.png,0,m,Wed Apr 02 2025 17:35:19 GMT-0500 (Central Daylight Time),563505.599999994,1500,O,z,1118,12,1,2646.5999999940395,560859.0,7116,NTS,A,3
2,2,test,1,C,circle.png,0,z,Wed Apr 02 2025 17:35:19 GMT-0500 (Central Daylight Time),566738.1999999881,1700,O,None,1514,18,1,3222.0999999940395,563516.099999994,7116,NTS,A,4
8,3,test,1,C,triangle.png,1,m,Wed Apr 02 2025 17:35:19 GMT-0500 (Central Daylight Time),569820.1999999881,1600,O,m,1447,23,1,3063.199999988079,566757.0,7116,NTS,A,5
3,4,test,1,C,triangle.png,1,z,Wed Apr 02 2025 17:35:19 GMT-0500 (Central Daylight Time),571936.599999994,1200,O,z,896,3,1,2105.4000000059605,569831.1999999881,7116,NTS,A,6
6,5,test,1,C,circle.png,1,m,Wed Apr 02 2025 17:35:19 GMT-0500 (Central Daylight Time),575101.3000000119,1900,O,m,1222,5,1,3145.9000000059605,571955.400000006,7116,NTS,A,7
8,6,test,1,C,circle.png,1,m,Wed Apr 02 2025 17:35:19 GMT-0500 (Central Daylight Time),577102.3000000119,1200,O,m,783,15,1,1995.800000011921,575106.5,7116,NTS,A,8
9,6,test,1,C,triangle.png,0,z,Wed Apr 02 2025 17:35:19 GMT-0500 (Central Daylight Time),580050.3000000119,1400,O,None,1516,16,1,2927.9000000059605,577122.400000006,7116,NTS,A,9
1,7,test,1,C,triangle.png,1,z,Wed Apr 02 2025 17:35:19 GMT-0500 (Central Daylight Time),582883.400000006,1900,O,z,883,17,1,2815.5,580067.900000006,7116,NTS,A,10
9,8,test,1,C,circle.png,1,m,Wed Apr 02 2025 17:35:19 GMT-0500 (Central Daylight Time),585348.8000000119,1500,O,m,931,24,1,2444.4000000059605,582904.400000006,7116,NTS,A,11
3,9,test,1,C,circle.png,1,z,Wed Apr 02 2025 17:35:19 GMT-0500 (Central Daylight Time),587964.6999999881,1600,O,z,991,19,1,2604.2999999821186,585360.400000006,7116,NTS,A,12
7,10,test,1,C,triangle.png,1,z,Wed Apr 02 2025 17:35:19 GMT-0500 (Central Daylight Time),590813.8000000119,1700,O,z,1106,6,1,2829.0,587984.8000000119,7116,NTS,A,13
4,11,test,1,C,triangle.png,1,m,Wed Apr 02 2025 17:35:19 GMT-0500 (Central Daylight Time),593346.1999999881,1500,O,m,985,20,1,2513.5,590832.6999999881,7116,NTS,A,14
8,12,test,1,C,triangle.png,1,m,Wed Apr 02 2025 17:35:19 GMT-0500 (Central Daylight Time),596012.0,1600,O,m,1015,7,1,2645.800000011921,593366.1999999881,7116,NTS,A,15
2,13,test,1,C,triangle.png,1,m,Wed Apr 02 2025 17:35:19 GMT-0500 (Central Daylight Time),599244.6999999881,2000,O,m,1199,2,1,3220.5,596024.1999999881,7116,NTS,A,16
1,14,test,1,C,triangle.png,1,z,Wed Apr 02 2025 17:35:19 GMT-0500 (Central Daylight Time),601927.0,1900,O,z,738,9,1,2663.0999999940395,599263.900000006,7116,NTS,A,17
6,15,test,1,C,triangle.png,1,m,Wed Apr 02 2025 17:35:19 GMT-0500 (Central Daylight Time),604426.0,1000,O,m,1451,13,1,2479.4000000059605,601946.599999994,7116,NTS,A,18
4,15,test,1,C,circle.png,0,z,Wed Apr 02 2025 17:35:19 GMT-0500 (Central Daylight Time),606909.099999994,1400,O,m,1048,4,1,2462.699999988079,604446.400000006,7116,NTS,A,19
1,16,test,1,C,circle.png,1,z,Wed Apr 02 2025 17:35:19 GMT-0500 (Central Daylight Time),609074.400000006,1000,O,z,1123,1,1,2145.5999999940395,606928.8000000119,7116,NTS,A,20
6,17,test,1,C,circle.png,1,m,Wed Apr 02 2025 17:35:19 GMT-0500 (Central Daylight Time),612090.099999994,1900,O,m,1077,21,1,2996.2999999821186,609093.8000000119,7116,NTS,A,21
2,18,test,1,C,circle.png,1,z,Wed Apr 02 2025 17:35:19 GMT-0500 (Central Daylight Time),614572.8000000119,1700,O,z,740,10,1,2463.4000000059605,612109.400000006,7116,NTS,A,22
9,19,test,1,C,circle.png,1,m,Wed Apr 02 2025 17:35:19 GMT-0500 (Central Daylight Time),616821.400000006,1500,O,m,714,8,1,2227.5,614593.900000006,7116,NTS,A,23
7,20,test,1,C,circle.png,1,m,Wed Apr 02 2025 17:35:19 GMT-0500 (Central Daylight Time),620170.8000000119,2000,O,m,1308,14,1,3331.4000000059605,616839.400000006,7116,NTS,A,24
2,0,test,2,C,circle.png,0,z,Wed Apr 02 2025 17:35:19 GMT-0500 (Central Daylight Time),636165.900000006,1700,O,None,1514,10,1,3230.5,632935.400000006,7116,NTS,A,1
3,1,test,2,C,circle.png,1,z,Wed Apr 02 2025 17:35:19 GMT-0500 (Central Daylight Time),638848.400000006,1600,O,z,1047,11,1,2655.2000000178814,636193.1999999881,7116,NTS,A,2
1,1,test,2,C,triangle.png,0,z,Wed Apr 02 2025 17:35:19 GMT-0500 (Central Daylight Time),642297.099999994,1900,O,None,1515,17,1,3428.7999999821186,638868.3000000119,7116,NTS,A,3
7,1,test,2,C,circle.png,0,m,Wed Apr 02 2025 17:35:19 GMT-0500 (Central Daylight Time),645845.599999994,2000,O,None,1515,22,1,3527.9000000059605,642317.6999999881,7116,NTS,A,4
9,2,test,2,C,circle.png,1,m,Wed Apr 02 2025 17:35:19 GMT-0500 (Central Daylight Time),648511.5,1500,O,m,1129,8,1,2646.0,645865.5,7116,NTS,A,5
8,3,test,2,C,circle.png,1,m,Wed Apr 02 2025 17:35:19 GMT-0500 (Central Daylight Time),650510.8000000119,1200,O,m,755,23,1,1980.7000000178814,648530.099999994,7116,NTS,A,6
4,3,test,2,C,triangle.png,0,m,Wed Apr 02 2025 17:35:19 GMT-0500 (Central Daylight Time),653559.8000000119,1500,O,None,1515,12,1,3030.4000000059605,650529.400000006,7116,NTS,A,7
2,4,test,2,C,circle.png,1,z,Wed Apr 02 2025 17:35:19 GMT-0500 (Central Daylight Time),656542.0,1700,O,z,1247,18,1,2963.4000000059605,653578.599999994,7116,NTS,A,8
1,5,test,2,C,triangle.png,1,z,Wed Apr 02 2025 17:35:19 GMT-0500 (Central Daylight Time),659441.1999999881,1900,O,z,953,9,1,2880.5,656560.6999999881,7116,NTS,A,9
4,6,test,2,C,circle.png,1,z,Wed Apr 02 2025 17:35:19 GMT-0500 (Central Daylight Time),661957.8000000119,1400,O,z,1082,4,1,2497.100000023842,659460.6999999881,7116,NTS,A,10
7,6,test,2,C,triangle.png,0,z,Wed Apr 02 2025 17:35:19 GMT-0500 (Central Daylight Time),664589.6999999881,1700,O,m,891,6,1,2612.399999976158,661977.3000000119,7116,NTS,A,11
6,6,test,2,C,triangle.png,0,m,Wed Apr 02 2025 17:35:19 GMT-0500 (Central Daylight Time),667138.6999999881,1000,O,None,1515,21,1,2528.899999976158,664609.8000000119,7116,NTS,A,12
8,6,test,2,C,triangle.png,0,m,Wed Apr 02 2025 17:35:19 GMT-0500 (Central Daylight Time),670287.599999994,1600,O,None,1514,7,1,3128.4000000059605,667159.1999999881,7116,NTS,A,13
3,7,test,2,C,circle.png,1,z,Wed Apr 02 2025 17:35:19 GMT-0500 (Central Daylight Time),672936.8000000119,1600,O,z,1011,19,1,2628.5,670308.3000000119,7116,NTS,A,14
9,7,test,2,C,triangle.png,0,z,Wed Apr 02 2025 17:35:19 GMT-0500 (Central Daylight Time),675236.099999994,1400,O,m,849,16,1,2280.7999999821186,672955.3000000119,7116,NTS,A,15
4,7,test,2,C,triangle.png,0,m,Wed Apr 02 2025 17:35:19 GMT-0500 (Central Daylight Time),678285.0,1500,O,None,1513,20,1,3030.199999988079,675254.8000000119,7116,NTS,A,16
6,7,test,2,C,triangle.png,0,m,Wed Apr 02 2025 17:35:19 GMT-0500 (Central Daylight Time),680834.3000000119,1000,O,None,1514,13,1,2528.2000000178814,678306.099999994,7116,NTS,A,17
6,8,test,2,C,circle.png,1,m,Wed Apr 02 2025 17:35:19 GMT-0500 (Central Daylight Time),683900.0,1900,O,m,1117,5,1,3047.300000011921,680852.6999999881,7116,NTS,A,18
3,9,test,2,C,triangle.png,1,z,Wed Apr 02 2025 17:35:19 GMT-0500 (Central Daylight Time),686032.400000006,1200,O,z,895,3,1,2112.7000000178814,683919.6999999881,7116,NTS,A,19
8,10,test,2,C,circle.png,1,m,Wed Apr 02 2025 17:35:19 GMT-0500 (Central Daylight Time),688231.8000000119,1200,O,m,962,15,1,2180.2000000178814,686051.599999994,7116,NTS,A,20
1,10,test,2,C,circle.png,0,z,Wed Apr 02 2025 17:35:19 GMT-0500 (Central Daylight Time),690781.5,1000,O,None,1515,1,1,2532.300000011921,688249.1999999881,7116,NTS,A,21
2,10,test,2,C,triangle.png,0,m,Wed Apr 02 2025 17:35:19 GMT-0500 (Central Daylight Time),694329.599999994,2000,O,None,1515,2,1,3530.5999999940395,690799.0,7116,NTS,A,22
7,11,test,2,C,circle.png,1,m,Wed Apr 02 2025 17:35:19 GMT-0500 (Central Daylight Time),697528.8000000119,2000,O,m,1153,14,1,3180.2000000178814,694348.599999994,7116,NTS,A,23
9,11,test,2,C,triangle.png,0,z,Wed Apr 02 2025 17:35:19 GMT-0500 (Central Daylight Time),700477.6999999881,1400,O,None,1514,24,1,2929.899999976158,697547.8000000119,7116,NTS,A,24
9,1,test,3,C,circle.png,1,m,Wed Apr 02 2025 17:35:19 GMT-0500 (Central Daylight Time),715923.099999994,1500,O,m,834,8,1,2359.7999999821186,713563.3000000119,7116,NTS,A,1
9,1,test,3,C,triangle.png,0,z,Wed Apr 02 2025 17:35:19 GMT-0500 (Central Daylight Time),718871.900000006,1400,O,None,1515,16,1,2928.0999999940395,715943.8000000119,7116,NTS,A,2
6,2,test,3,C,triangle.png,1,m,Wed Apr 02 2025 17:35:19 GMT-0500 (Central Daylight Time),720803.599999994,1000,O,m,891,13,1,1911.699999988079,718891.900000006,7116,NTS,A,3
3,3,test,3,C,circle.png,1,z,Wed Apr 02 2025 17:35:19 GMT-0500 (Central Daylight Time),723486.6999999881,1600,O,z,1063,11,1,2676.699999988079,720810.0,7116,NTS,A,4
4,3,test,3,C,triangle.png,0,m,Wed Apr 02 2025 17:35:19 GMT-0500 (Central Daylight Time),726352.6999999881,1500,O,z,1328,12,1,2846.5,723506.1999999881,7116,NTS,A,5
3,3,test,3,C,triangle.png,0,z,Wed Apr 02 2025 17:35:19 GMT-0500 (Central Daylight Time),729101.599999994,1200,O,None,1514,19,1,2730.199999988079,726371.400000006,7116,NTS,A,6
2,3,test,3,C,triangle.png,0,m,Wed Apr 02 2025 17:35:19 GMT-0500 (Central Daylight Time),732650.599999994,2000,O,None,1514,2,1,3530.0999999940395,729120.5,7116,NTS,A,7
7,4,test,3,C,triangle.png,1,z,Wed Apr 02 2025 17:35:19 GMT-0500 (Central Daylight Time),735682.8000000119,1700,O,z,1284,22,1,3011.9000000059605,732670.900000006,7116,NTS,A,8
3,5,test,3,C,triangle.png,1,z,Wed Apr 02 2025 17:35:19 GMT-0500 (Central Daylight Time),738082.1999999881,1200,O,z,1160,3,1,2381.0,735701.1999999881,7116,NTS,A,9
1,5,test,3,C,circle.png,0,z,Wed Apr 02 2025 17:35:19 GMT-0500 (Central Daylight Time),739998.3000000119,1000,O,m,872,17,1,1895.5,738102.8000000119,7116,NTS,A,10
1,6,test,3,C,circle.png,1,z,Wed Apr 02 2025 17:35:19 GMT-0500 (Central Daylight Time),742114.099999994,1000,O,z,1076,1,1,2094.7999999821186,740019.3000000119,7116,NTS,A,11
7,6,test,3,C,triangle.png,0,z,Wed Apr 02 2025 17:35:19 GMT-0500 (Central Daylight Time),745364.5,1700,O,None,1515,6,1,3225.9000000059605,742138.599999994,7116,NTS,A,12
6,7,test,3,C,circle.png,1,m,Wed Apr 02 2025 17:35:19 GMT-0500 (Central Daylight Time),748245.5,1900,O,m,931,5,1,2861.800000011921,745383.6999999881,7116,NTS,A,13
7,8,test,3,C,circle.png,1,m,Wed Apr 02 2025 17:35:19 GMT-0500 (Central Daylight Time),751660.1999999881,2000,O,m,1379,14,1,3396.0999999940395,748264.099999994,7116,NTS,A,14
2,8,test,3,C,triangle.png,0,m,Wed Apr 02 2025 17:35:19 GMT-0500 (Central Daylight Time),755193.400000006,2000,O,None,1514,18,1,3527.7000000178814,751665.6999999881,7116,NTS,A,15
8,9,test,3,C,circle.png,1,m,Wed Apr 02 2025 17:35:19 GMT-0500 (Central Daylight Time),757425.8000000119,1200,O,m,993,15,1,2215.7000000178814,755210.099999994,7116,NTS,A,16
9,10,test,3,C,circle.png,1,m,Wed Apr 02 2025 17:35:19 GMT-0500 (Central Daylight Time),759625.0,1500,O,m,661,24,1,2178.0999999940395,757446.900000006,7116,NTS,A,17
4,11,test,3,C,circle.png,1,z,Wed Apr 02 2025 17:35:19 GMT-0500 (Central Daylight Time),762124.3000000119,1400,O,z,1050,4,1,2478.7000000178814,759645.599999994,7116,NTS,A,18
1,11,test,3,C,triangle.png,0,z,Wed Apr 02 2025 17:35:19 GMT-0500 (Central Daylight Time),765573.1999999881,1900,O,None,1514,9,1,3429.0,762144.1999999881,7116,NTS,A,19
2,11,test,3,C,circle.png,0,z,Wed Apr 02 2025 17:35:19 GMT-0500 (Central Daylight Time),768821.900000006,1700,O,None,1514,10,1,3232.7000000178814,765589.1999999881,7116,NTS,A,20
4,11,test,3,C,circle.png,0,z,Wed Apr 02 2025 17:35:19 GMT-0500 (Central Daylight Time),771771.099999994,1400,O,None,1515,20,1,2930.5999999940395,768840.5,7116,NTS,A,21
8,12,test,3,C,triangle.png,1,m,Wed Apr 02 2025 17:35:19 GMT-0500 (Central Daylight Time),774803.1999999881,1600,O,m,1392,23,1,3013.5999999940395,771789.599999994,7116,NTS,A,22
6,13,test,3,C,circle.png,1,m,Wed Apr 02 2025 17:35:19 GMT-0500 (Central Daylight Time),777968.8000000119,1900,O,m,1218,21,1,3145.5,774823.3000000119,7116,NTS,A,23
8,14,test,3,C,triangle.png,1,m,Wed Apr 02 2025 17:35:19 GMT-0500 (Central Daylight Time),780551.1999999881,1600,O,m,945,7,1,2563.5,777987.6999999881,7116,NTS,A,24
8,1,test,4,C,circle.png,1,m,Wed Apr 02 2025 17:35:19 GMT-0500 (Central Daylight Time),788549.900000006,1200,O,m,898,15,1,2113.2000000178814,786436.6999999881,7116,NTS,A,1
8,1,test,4,C,triangle.png,0,m,Wed Apr 02 2025 17:35:19 GMT-0500 (Central Daylight Time),791698.1999999881,1600,O,None,1515,23,1,3128.399999976158,788569.8000000119,7116,NTS,A,2
1,2,test,4,C,circle.png,1,z,Wed Apr 02 2025 17:35:19 GMT-0500 (Central Daylight Time),793713.900000006,1000,O,z,977,17,1,1996.2000000178814,791717.6999999881,7116,NTS,A,3
4,2,test,4,C,circle.png,0,z,Wed Apr 02 2025 17:35:19 GMT-0500 (Central Daylight Time),796662.6999999881,1400,O,None,1515,20,1,2929.2999999821186,793733.400000006,7116,NTS,A,4
6,3,test,4,C,circle.png,1,m,Wed Apr 02 2025 17:35:19 GMT-0500 (Central Daylight Time),799528.8000000119,1900,O,m,920,21,1,2846.300000011921,796682.5,7116,NTS,A,5
7,4,test,4,C,triangle.png,1,z,Wed Apr 02 2025 17:35:19 GMT-0500 (Central Daylight Time),802461.900000006,1700,O,z,1189,6,1,2913.300000011921,799548.599999994,7116,NTS,A,6
1,5,test,4,C,circle.png,1,z,Wed Apr 02 2025 17:35:19 GMT-0500 (Central Daylight Time),804727.0,1000,O,z,1222,1,1,2245.0,802482.0,7116,NTS,A,7
4,6,test,4,C,circle.png,1,z,Wed Apr 02 2025 17:35:19 GMT-0500 (Central Daylight Time),807510.0,1400,O,z,1348,4,1,2764.4000000059605,804745.599999994,7116,NTS,A,8
2,6,test,4,C,triangle.png,0,m,Wed Apr 02 2025 17:35:19 GMT-0500 (Central Daylight Time),810258.3000000119,2000,O,z,701,2,1,2729.5,807528.8000000119,7116,NTS,A,9
4,6,test,4,C,triangle.png,0,m,Wed Apr 02 2025 17:35:19 GMT-0500 (Central Daylight Time),813307.400000006,1500,O,None,1514,12,1,3030.4000000059605,810277.0,7116,NTS,A,10
3,7,test,4,C,triangle.png,1,z,Wed Apr 02 2025 17:35:19 GMT-0500 (Central Daylight Time),815357.6999999881,1200,O,z,815,19,1,2031.5,813326.1999999881,7116,NTS,A,11
9,7,test,4,C,triangle.png,0,z,Wed Apr 02 2025 17:35:19 GMT-0500 (Central Daylight Time),817756.0,1400,O,m,958,16,1,2380.0999999940395,815375.900000006,7116,NTS,A,12
6,8,test,4,C,triangle.png,1,m,Wed Apr 02 2025 17:35:19 GMT-0500 (Central Daylight Time),819805.099999994,1000,O,m,1006,13,1,2024.5,817780.599999994,7116,NTS,A,13
2,9,test,4,C,triangle.png,1,m,Wed Apr 02 2025 17:35:19 GMT-0500 (Central Daylight Time),822620.6999999881,2000,O,m,773,18,1,2795.7999999821186,819824.900000006,7116,NTS,A,14
6,10,test,4,C,circle.png,1,m,Wed Apr 02 2025 17:35:19 GMT-0500 (Central Daylight Time),825453.6999999881,1900,O,m,898,5,1,2814.0999999940395,822639.599999994,7116,NTS,A,15
7,11,test,4,C,triangle.png,1,z,Wed Apr 02 2025 17:35:19 GMT-0500 (Central Daylight Time),828202.6999999881,1700,O,z,1000,22,1,2733.2999999821186,825469.400000006,7116,NTS,A,16
2,11,test,4,C,circle.png,0,z,Wed Apr 02 2025 17:35:19 GMT-0500 (Central Daylight Time),831201.599999994,1700,O,m,1252,10,1,2979.9000000059605,828221.6999999881,7116,NTS,A,17
8,12,test,4,C,triangle.png,1,m,Wed Apr 02 2025 17:35:19 GMT-0500 (Central Daylight Time),833867.5,1600,O,m,1025,7,1,2647.5,831220.0,7116,NTS,A,18
9,13,test,4,C,circle.png,1,m,Wed Apr 02 2025 17:35:19 GMT-0500 (Central Daylight Time),836349.8000000119,1500,O,m,939,8,1,2462.600000023842,833887.1999999881,7116,NTS,A,19
7,13,test,4,C,circle.png,0,m,Wed Apr 02 2025 17:35:19 GMT-0500 (Central Daylight Time),839482.0,2000,O,z,1085,14,1,3112.5,836369.5,7116,NTS,A,20
9,14,test,4,C,circle.png,1,m,Wed Apr 02 2025 17:35:19 GMT-0500 (Central Daylight Time),842314.5,1500,O,m,1292,24,1,2813.300000011921,839501.1999999881,7116,NTS,A,21
3,14,test,4,C,circle.png,0,z,Wed Apr 02 2025 17:35:19 GMT-0500 (Central Daylight Time),845463.5,1600,O,None,1514,11,1,3129.9000000059605,842333.599999994,7116,NTS,A,22
1,14,test,4,C,triangle.png,0,z,Wed Apr 02 2025 17:35:19 GMT-0500 (Central Daylight Time),848912.400000006,1900,O,None,1514,9,1,3431.4000000059605,845481.0,7116,NTS,A,23
3,15,test,4,C,triangle.png,1,z,Wed Apr 02 2025 17:35:19 GMT-0500 (Central Daylight Time),851161.6999999881,1200,O,z,1002,3,1,2232.199999988079,848929.5,7116,NTS,A,24
