block_c,block_dur,condition,countdown,datetime,endtime,list,multichar_response,project,response,response_time,session_number,start_end,starttime,subject_id,task,task_vers,trial
,,,,Wed Jan 15 2025 10:52:05 GMT-0500 (Eastern Standard Time),,,,I,space,1124,3,,,9003,WL,C,
prac,,0,,Wed Jan 15 2025 10:52:05 GMT-0500 (Eastern Standard Time),,NA,b,I,b,4844,3,,,9003,WL,C,1.0
prac,,0,,Wed Jan 15 2025 10:52:05 GMT-0500 (Eastern Standard Time),,NA,bo,I,o,233,3,,,9003,WL,C,1.0
prac,,0,,Wed Jan 15 2025 10:52:05 GMT-0500 (Eastern Standard Time),,NA,boo,I,o,192,3,,,9003,WL,C,1.0
prac,,0,,Wed Jan 15 2025 10:52:05 GMT-0500 (Eastern Standard Time),,NA,boos,I,s,165,3,,,9003,WL,C,1.0
prac,,0,,Wed Jan 15 2025 10:52:05 GMT-0500 (Eastern Standard Time),,NA,boost,I,t,275,3,,,9003,WL,C,1.0
prac,,0,,Wed Jan 15 2025 10:52:05 GMT-0500 (Eastern Standard Time),,NA,boostenter,I,enter,2083,3,,,9003,WL,C,1.0
1,0.6840000152587891,learn,59315.99998474121,Wed Jan 15 2025 10:52:05 GMT-0500 (Eastern Standard Time),128886.79999923706,A,t,I,t,655,3,683.0,128203.79999923706,9003,WL,C,1.0
1,0.8339998722076416,learn,59166.00012779236,Wed Jan 15 2025 10:52:05 GMT-0500 (Eastern Standard Time),129037.0,A,to,I,o,130,3,833.2000007629395,128203.79999923706,9003,WL,C,1.0
1,1.1159999370574951,learn,58884.000062942505,Wed Jan 15 2025 10:52:05 GMT-0500 (Eastern Standard Time),129319.39999961853,A,tow,I,w,242,3,1115.6000003814697,128203.79999923706,9003,WL,C,1.0
1,1.3999998569488525,learn,58600.00014305115,Wed Jan 15 2025 10:52:05 GMT-0500 (Eastern Standard Time),129603.10000038147,A,towr,I,r,262,3,1399.3000011444092,128203.79999923706,9003,WL,C,1.0
1,2.2339999675750732,learn,57766.00003242493,Wed Jan 15 2025 10:52:05 GMT-0500 (Eastern Standard Time),130436.60000038147,A,tow,I,backspace,807,3,2232.800001144409,128203.79999923706,9003,WL,C,1.0
1,2.434000015258789,learn,57565.99998474121,Wed Jan 15 2025 10:52:05 GMT-0500 (Eastern Standard Time),130636.70000076294,A,towe,I,e,181,3,2432.900001525879,128203.79999923706,9003,WL,C,1.0
1,2.5839998722076416,learn,57416.00012779236,Wed Jan 15 2025 10:52:05 GMT-0500 (Eastern Standard Time),130786.60000038147,A,tower,I,r,116,3,2582.800001144409,128203.79999923706,9003,WL,C,1.0
1,3.2170000076293945,learn,56782.999992370605,Wed Jan 15 2025 10:52:05 GMT-0500 (Eastern Standard Time),131419.39999961853,A,towerenter,I,enter,614,3,3215.6000003814697,128203.79999923706,9003,WL,C,1.0
1,3.9170000553131104,learn,56082.99994468689,Wed Jan 15 2025 10:52:05 GMT-0500 (Eastern Standard Time),132119.79999923706,A,w,I,w,690,3,699.6999988555908,131420.10000038147,9003,WL,C,2.0
1,4.200000047683716,learn,55799.999952316284,Wed Jan 15 2025 10:52:05 GMT-0500 (Eastern Standard Time),132403.10000038147,A,wh,I,h,259,3,983.0,131420.10000038147,9003,WL,C,2.0
1,4.366999864578247,learn,55633.00013542175,Wed Jan 15 2025 10:52:05 GMT-0500 (Eastern Standard Time),132569.89999961853,A,whe,I,e,148,3,1149.7999992370605,131420.10000038147,9003,WL,C,2.0
1,4.5,learn,55500.0,Wed Jan 15 2025 10:52:05 GMT-0500 (Eastern Standard Time),132703.20000076294,A,whea,I,a,102,3,1283.1000003814697,131420.10000038147,9003,WL,C,2.0
1,4.6499998569488525,learn,55350.00014305115,Wed Jan 15 2025 10:52:05 GMT-0500 (Eastern Standard Time),132853.29999923706,A,wheat,I,t,119,3,1433.1999988555908,131420.10000038147,9003,WL,C,2.0
1,4.983000040054321,learn,55016.99995994568,Wed Jan 15 2025 10:52:05 GMT-0500 (Eastern Standard Time),133186.10000038147,A,wheatenter,I,enter,308,3,1766.0,131420.10000038147,9003,WL,C,2.0
1,5.6499998569488525,learn,54350.00014305115,Wed Jan 15 2025 10:52:05 GMT-0500 (Eastern Standard Time),133853.0,A,q,I,q,652,3,666.3999996185303,133186.60000038147,9003,WL,C,3.0
1,5.901000022888184,learn,54098.99997711182,Wed Jan 15 2025 10:52:05 GMT-0500 (Eastern Standard Time),134103.39999961853,A,qu,I,u,237,3,916.7999992370605,133186.60000038147,9003,WL,C,3.0
1,6.1499998569488525,learn,53850.00014305115,Wed Jan 15 2025 10:52:05 GMT-0500 (Eastern Standard Time),134353.20000076294,A,que,I,e,228,3,1166.6000003814697,133186.60000038147,9003,WL,C,3.0
1,6.33299994468689,learn,53667.00005531311,Wed Jan 15 2025 10:52:05 GMT-0500 (Eastern Standard Time),134536.10000038147,A,quee,I,e,160,3,1349.5,133186.60000038147,9003,WL,C,3.0
1,6.434000015258789,learn,53565.99998474121,Wed Jan 15 2025 10:52:05 GMT-0500 (Eastern Standard Time),134636.5,A,queen,I,n,83,3,1449.8999996185303,133186.60000038147,9003,WL,C,3.0
1,6.83299994468689,learn,53167.00005531311,Wed Jan 15 2025 10:52:05 GMT-0500 (Eastern Standard Time),135036.10000038147,A,queenenter,I,enter,372,3,1849.5,133186.60000038147,9003,WL,C,3.0
1,8.33299994468689,learn,51667.00005531311,Wed Jan 15 2025 10:52:05 GMT-0500 (Eastern Standard Time),136536.39999961853,A,s,I,s,1490,3,1499.6999988555908,135036.70000076294,9003,WL,C,4.0
1,8.549999952316284,learn,51450.000047683716,Wed Jan 15 2025 10:52:05 GMT-0500 (Eastern Standard Time),136753.29999923706,A,su,I,u,195,3,1716.599998474121,135036.70000076294,9003,WL,C,4.0
1,8.783999919891357,learn,51216.00008010864,Wed Jan 15 2025 10:52:05 GMT-0500 (Eastern Standard Time),136986.60000038147,A,sug,I,g,208,3,1949.8999996185303,135036.70000076294,9003,WL,C,4.0
1,8.967000007629395,learn,51032.999992370605,Wed Jan 15 2025 10:52:05 GMT-0500 (Eastern Standard Time),137169.5,A,suga,I,a,160,3,2132.7999992370605,135036.70000076294,9003,WL,C,4.0
1,9.133999824523926,learn,50866.000175476074,Wed Jan 15 2025 10:52:05 GMT-0500 (Eastern Standard Time),137336.39999961853,A,sugar,I,r,151,3,2299.699998855591,135036.70000076294,9003,WL,C,4.0
1,9.483000040054321,learn,50516.99995994568,Wed Jan 15 2025 10:52:05 GMT-0500 (Eastern Standard Time),137686.0,A,sugarenter,I,enter,322,3,2649.2999992370605,135036.70000076294,9003,WL,C,4.0
1,10.083999872207642,learn,49916.00012779236,Wed Jan 15 2025 10:52:05 GMT-0500 (Eastern Standard Time),138286.60000038147,A,b,I,b,583,3,600.1000003814697,137686.5,9003,WL,C,5.0
1,10.633999824523926,learn,49366.000175476074,Wed Jan 15 2025 10:52:05 GMT-0500 (Eastern Standard Time),138836.60000038147,A,bo,I,o,524,3,1150.1000003814697,137686.5,9003,WL,C,5.0
1,10.91599988937378,learn,49084.00011062622,Wed Jan 15 2025 10:52:05 GMT-0500 (Eastern Standard Time),139119.10000038147,A,boy,I,y,262,3,1432.6000003814697,137686.5,9003,WL,C,5.0
1,11.233000040054321,learn,48766.99995994568,Wed Jan 15 2025 10:52:05 GMT-0500 (Eastern Standard Time),139436.10000038147,A,boyenter,I,enter,302,3,1749.6000003814697,137686.5,9003,WL,C,5.0
1,11.783999919891357,learn,48216.00008010864,Wed Jan 15 2025 10:52:05 GMT-0500 (Eastern Standard Time),139986.70000076294,A,h,I,h,529,3,550.0,139436.70000076294,9003,WL,C,6.0
1,11.983000040054321,learn,48016.99995994568,Wed Jan 15 2025 10:52:05 GMT-0500 (Eastern Standard Time),140186.10000038147,A,ho,I,o,183,3,749.3999996185303,139436.70000076294,9003,WL,C,6.0
1,12.266999959945679,learn,47733.00004005432,Wed Jan 15 2025 10:52:05 GMT-0500 (Eastern Standard Time),140469.79999923706,A,hom,I,m,260,3,1033.099998474121,139436.70000076294,9003,WL,C,6.0
1,12.566999912261963,learn,47433.00008773804,Wed Jan 15 2025 10:52:05 GMT-0500 (Eastern Standard Time),140769.89999961853,A,home,I,e,277,3,1333.1999988555908,139436.70000076294,9003,WL,C,6.0
1,12.866999864578247,learn,47133.00013542175,Wed Jan 15 2025 10:52:05 GMT-0500 (Eastern Standard Time),141069.39999961853,A,homeenter,I,enter,277,3,1632.6999988555908,139436.70000076294,9003,WL,C,6.0
1,15.033999919891357,learn,44966.00008010864,Wed Jan 15 2025 10:52:05 GMT-0500 (Eastern Standard Time),143236.70000076294,A,c,I,c,2145,3,2166.900001525879,141069.79999923706,9003,WL,C,7.0
1,15.25,learn,44750.0,Wed Jan 15 2025 10:52:05 GMT-0500 (Eastern Standard Time),143453.29999923706,A,ca,I,a,196,3,2383.5,141069.79999923706,9003,WL,C,7.0
1,15.467000007629395,learn,44532.999992370605,Wed Jan 15 2025 10:52:05 GMT-0500 (Eastern Standard Time),143669.89999961853,A,cat,I,t,189,3,2600.1000003814697,141069.79999923706,9003,WL,C,7.0
1,15.615999937057495,learn,44384.000062942505,Wed Jan 15 2025 10:52:05 GMT-0500 (Eastern Standard Time),143819.29999923706,A,catt,I,t,132,3,2749.5,141069.79999923706,9003,WL,C,7.0
1,15.783999919891357,learn,44216.00008010864,Wed Jan 15 2025 10:52:05 GMT-0500 (Eastern Standard Time),143986.70000076294,A,cattl,I,l,143,3,2916.900001525879,141069.79999923706,9003,WL,C,7.0
1,15.932999849319458,learn,44067.00015068054,Wed Jan 15 2025 10:52:05 GMT-0500 (Eastern Standard Time),144136.20000076294,A,cattle,I,e,136,3,3066.400001525879,141069.79999923706,9003,WL,C,7.0
1,16.23300004005432,learn,43766.99995994568,Wed Jan 15 2025 10:52:05 GMT-0500 (Eastern Standard Time),144436.10000038147,A,cattleenter,I,enter,275,3,3366.300001144409,141069.79999923706,9003,WL,C,7.0
1,21.66700005531311,learn,38332.99994468689,Wed Jan 15 2025 10:52:05 GMT-0500 (Eastern Standard Time),149869.79999923706,A,h,I,h,5418,3,5433.299999237061,144436.5,9003,WL,C,8.0
1,21.866999864578247,learn,38133.00013542175,Wed Jan 15 2025 10:52:05 GMT-0500 (Eastern Standard Time),150069.70000076294,A,ho,I,o,173,3,5633.200000762939,144436.5,9003,WL,C,8.0
1,22.08399987220764,learn,37916.00012779236,Wed Jan 15 2025 10:52:05 GMT-0500 (Eastern Standard Time),150286.60000038147,A,hom,I,m,198,3,5850.10000038147,144436.5,9003,WL,C,8.0
1,22.282999992370605,learn,37717.000007629395,Wed Jan 15 2025 10:52:05 GMT-0500 (Eastern Standard Time),150486.39999961853,A,home,I,e,164,3,6049.89999961853,144436.5,9003,WL,C,8.0
1,22.5,learn,37500.0,Wed Jan 15 2025 10:52:05 GMT-0500 (Eastern Standard Time),150702.79999923706,A,homeenter,I,enter,195,3,6266.299999237061,144436.5,9003,WL,C,8.0
1,39.51699995994568,learn,20483.00004005432,Wed Jan 15 2025 10:52:05 GMT-0500 (Eastern Standard Time),167719.89999961853,A,c,I,c,17007,3,17016.69999885559,150703.20000076294,9003,WL,C,9.0
1,39.66700005531311,learn,20332.99994468689,Wed Jan 15 2025 10:52:05 GMT-0500 (Eastern Standard Time),167869.70000076294,A,co,I,o,131,3,17166.5,150703.20000076294,9003,WL,C,9.0
1,39.865999937057495,learn,20134.000062942505,Wed Jan 15 2025 10:52:05 GMT-0500 (Eastern Standard Time),168069.29999923706,A,cor,I,r,164,3,17366.09999847412,150703.20000076294,9003,WL,C,9.0
1,40.11699986457825,learn,19883.000135421753,Wed Jan 15 2025 10:52:05 GMT-0500 (Eastern Standard Time),168320.0,A,corn,I,n,234,3,17616.79999923706,150703.20000076294,9003,WL,C,9.0
1,40.467000007629395,learn,19532.999992370605,Wed Jan 15 2025 10:52:05 GMT-0500 (Eastern Standard Time),168669.5,A,cornenter,I,enter,321,3,17966.29999923706,150703.20000076294,9003,WL,C,9.0
1,49.23399996757507,learn,10766.000032424927,Wed Jan 15 2025 10:52:05 GMT-0500 (Eastern Standard Time),177436.60000038147,A,n,I,n,8752,3,8766.80000114441,168669.79999923706,9003,WL,C,10.0
1,49.43400001525879,learn,10565.999984741211,Wed Jan 15 2025 10:52:05 GMT-0500 (Eastern Standard Time),177636.5,A,na,I,a,173,3,8966.70000076294,168669.79999923706,9003,WL,C,10.0
1,49.68299984931946,learn,10317.000150680542,Wed Jan 15 2025 10:52:05 GMT-0500 (Eastern Standard Time),177886.0,A,nai,I,i,220,3,9216.20000076294,168669.79999923706,9003,WL,C,10.0
1,49.91700005531311,learn,10082.99994468689,Wed Jan 15 2025 10:52:05 GMT-0500 (Eastern Standard Time),178119.89999961853,A,nail,I,l,209,3,9450.10000038147,168669.79999923706,9003,WL,C,10.0
1,50.200000047683716,learn,9799.999952316284,Wed Jan 15 2025 10:52:05 GMT-0500 (Eastern Standard Time),178402.79999923706,A,nailenter,I,enter,259,3,9733.0,168669.79999923706,9003,WL,C,10.0
1,55.24899983406067,learn,4751.000165939331,Wed Jan 15 2025 10:52:05 GMT-0500 (Eastern Standard Time),183452.39999961853,A,f,I,f,5035,3,5049.299999237061,178403.10000038147,9003,WL,C,11.0
1,55.41700005531311,learn,4582.99994468689,Wed Jan 15 2025 10:52:05 GMT-0500 (Eastern Standard Time),183619.60000038147,A,fl,I,l,145,3,5216.5,178403.10000038147,9003,WL,C,11.0
1,55.633999824523926,learn,4366.000175476074,Wed Jan 15 2025 10:52:05 GMT-0500 (Eastern Standard Time),183836.79999923706,A,fla,I,a,199,3,5433.699998855591,178403.10000038147,9003,WL,C,11.0
1,55.882999897003174,learn,4117.000102996826,Wed Jan 15 2025 10:52:05 GMT-0500 (Eastern Standard Time),184086.10000038147,A,flag,I,g,222,3,5683.0,178403.10000038147,9003,WL,C,11.0
1,56.132999897003174,learn,3867.000102996826,Wed Jan 15 2025 10:52:05 GMT-0500 (Eastern Standard Time),184336.10000038147,A,flagenter,I,enter,232,3,5933.0,178403.10000038147,9003,WL,C,11.0
1,60.01699995994568,learn,-16.99995994567871,Wed Jan 15 2025 10:52:05 GMT-0500 (Eastern Standard Time),188219.60000038147,A,None,I,None,3874,3,3883.1000003814697,184336.5,9003,WL,C,12.0
2,1.0499999523162842,learn,58950.000047683716,Wed Jan 15 2025 10:52:05 GMT-0500 (Eastern Standard Time),259919.79999923706,A,t,I,t,1027,3,1049.3999996185303,258870.39999961853,9003,WL,C,1.0
2,1.2659997940063477,learn,58734.00020599365,Wed Jan 15 2025 10:52:05 GMT-0500 (Eastern Standard Time),260135.79999923706,A,to,I,o,195,3,1265.3999996185303,258870.39999961853,9003,WL,C,1.0
2,1.432999849319458,learn,58567.00015068054,Wed Jan 15 2025 10:52:05 GMT-0500 (Eastern Standard Time),260302.60000038147,A,tow,I,w,150,3,1432.2000007629395,258870.39999961853,9003,WL,C,1.0
2,1.6329998970031738,learn,58367.000102996826,Wed Jan 15 2025 10:52:05 GMT-0500 (Eastern Standard Time),260503.10000038147,A,towr,I,r,176,3,1632.7000007629395,258870.39999961853,9003,WL,C,1.0
2,1.7669999599456787,learn,58233.00004005432,Wed Jan 15 2025 10:52:05 GMT-0500 (Eastern Standard Time),260636.60000038147,A,towre,I,e,107,3,1766.2000007629395,258870.39999961853,9003,WL,C,1.0
2,2.5169999599456787,learn,57483.00004005432,Wed Jan 15 2025 10:52:05 GMT-0500 (Eastern Standard Time),261386.70000076294,A,towr,I,backspace,724,3,2516.300001144409,258870.39999961853,9003,WL,C,1.0
2,2.732999801635742,learn,57267.00019836426,Wed Jan 15 2025 10:52:05 GMT-0500 (Eastern Standard Time),261603.39999961853,A,tow,I,backspace,191,3,2733.0,258870.39999961853,9003,WL,C,1.0
2,2.8999998569488525,learn,57100.00014305115,Wed Jan 15 2025 10:52:05 GMT-0500 (Eastern Standard Time),261769.5,A,towe,I,e,151,3,2899.1000003814697,258870.39999961853,9003,WL,C,1.0
2,3.049999952316284,learn,56950.000047683716,Wed Jan 15 2025 10:52:05 GMT-0500 (Eastern Standard Time),261919.70000076294,A,tower,I,r,133,3,3049.300001144409,258870.39999961853,9003,WL,C,1.0
2,3.3989999294281006,learn,56601.0000705719,Wed Jan 15 2025 10:52:05 GMT-0500 (Eastern Standard Time),262269.39999961853,A,towerenter,I,enter,332,3,3399.0,258870.39999961853,9003,WL,C,1.0
2,6.099999904632568,learn,53900.00009536743,Wed Jan 15 2025 10:52:05 GMT-0500 (Eastern Standard Time),264969.89999961853,A,q,I,q,2689,3,2700.1000003814697,262269.79999923706,9003,WL,C,2.0
2,6.349999904632568,learn,53650.00009536743,Wed Jan 15 2025 10:52:05 GMT-0500 (Eastern Standard Time),265220.10000038147,A,qu,I,u,223,3,2950.300001144409,262269.79999923706,9003,WL,C,2.0
2,6.58299994468689,learn,53417.00005531311,Wed Jan 15 2025 10:52:05 GMT-0500 (Eastern Standard Time),265453.29999923706,A,que,I,e,215,3,3183.5,262269.79999923706,9003,WL,C,2.0
2,6.7829999923706055,learn,53217.000007629395,Wed Jan 15 2025 10:52:05 GMT-0500 (Eastern Standard Time),265653.39999961853,A,quee,I,e,164,3,3383.6000003814697,262269.79999923706,9003,WL,C,2.0
2,6.915999889373779,learn,53084.00011062622,Wed Jan 15 2025 10:52:05 GMT-0500 (Eastern Standard Time),265786.20000076294,A,queen,I,n,118,3,3516.400001525879,262269.79999923706,9003,WL,C,2.0
2,7.2829999923706055,learn,52717.000007629395,Wed Jan 15 2025 10:52:05 GMT-0500 (Eastern Standard Time),266152.79999923706,A,queenenter,I,enter,354,3,3883.0,262269.79999923706,9003,WL,C,2.0
2,7.8999998569488525,learn,52100.00014305115,Wed Jan 15 2025 10:52:05 GMT-0500 (Eastern Standard Time),266769.39999961853,A,b,I,b,596,3,616.1999988555908,266153.20000076294,9003,WL,C,3.0
2,8.166999816894531,learn,51833.00018310547,Wed Jan 15 2025 10:52:05 GMT-0500 (Eastern Standard Time),267036.60000038147,A,bo,I,o,253,3,883.3999996185303,266153.20000076294,9003,WL,C,3.0
2,8.366999864578247,learn,51633.00013542175,Wed Jan 15 2025 10:52:05 GMT-0500 (Eastern Standard Time),267236.79999923706,A,bod,I,d,175,3,1083.599998474121,266153.20000076294,9003,WL,C,3.0
2,8.566999912261963,learn,51433.00008773804,Wed Jan 15 2025 10:52:05 GMT-0500 (Eastern Standard Time),267436.70000076294,A,body,I,y,179,3,1283.5,266153.20000076294,9003,WL,C,3.0
2,9.632999897003174,learn,50367.000102996826,Wed Jan 15 2025 10:52:05 GMT-0500 (Eastern Standard Time),268502.79999923706,A,bodyenter,I,enter,1045,3,2349.599998474121,266153.20000076294,9003,WL,C,3.0
2,10.666999816894531,learn,49333.00018310547,Wed Jan 15 2025 10:52:05 GMT-0500 (Eastern Standard Time),269536.79999923706,A,c,I,c,1016,3,1033.6999988555908,268503.10000038147,9003,WL,C,4.0
2,10.899999856948853,learn,49100.00014305115,Wed Jan 15 2025 10:52:05 GMT-0500 (Eastern Standard Time),269769.89999961853,A,ca,I,a,219,3,1266.7999992370605,268503.10000038147,9003,WL,C,4.0
2,11.116999864578247,learn,48883.00013542175,Wed Jan 15 2025 10:52:05 GMT-0500 (Eastern Standard Time),269986.60000038147,A,cat,I,t,185,3,1483.5,268503.10000038147,9003,WL,C,4.0
2,11.25,learn,48750.0,Wed Jan 15 2025 10:52:05 GMT-0500 (Eastern Standard Time),270119.60000038147,A,catt,I,t,115,3,1616.5,268503.10000038147,9003,WL,C,4.0
2,11.449999809265137,learn,48550.00019073486,Wed Jan 15 2025 10:52:05 GMT-0500 (Eastern Standard Time),270320.0,A,cattl,I,l,169,3,1816.8999996185303,268503.10000038147,9003,WL,C,4.0
2,11.615999937057495,learn,48384.000062942505,Wed Jan 15 2025 10:52:05 GMT-0500 (Eastern Standard Time),270486.20000076294,A,cattle,I,e,138,3,1983.1000003814697,268503.10000038147,9003,WL,C,4.0
2,11.865999937057495,learn,48134.000062942505,Wed Jan 15 2025 10:52:05 GMT-0500 (Eastern Standard Time),270736.20000076294,A,cattleenter,I,enter,227,3,2233.1000003814697,268503.10000038147,9003,WL,C,4.0
2,13.25,learn,46750.0,Wed Jan 15 2025 10:52:05 GMT-0500 (Eastern Standard Time),272119.79999923706,A,d,I,d,1374,3,1383.2999992370605,270736.5,9003,WL,C,5.0
2,13.449999809265137,learn,46550.00019073486,Wed Jan 15 2025 10:52:05 GMT-0500 (Eastern Standard Time),272320.10000038147,A,do,I,o,180,3,1583.6000003814697,270736.5,9003,WL,C,5.0
2,13.615999937057495,learn,46384.000062942505,Wed Jan 15 2025 10:52:05 GMT-0500 (Eastern Standard Time),272486.20000076294,A,doc,I,c,139,3,1749.7000007629395,270736.5,9003,WL,C,5.0
2,13.916999816894531,learn,46083.00018310547,Wed Jan 15 2025 10:52:05 GMT-0500 (Eastern Standard Time),272786.79999923706,A,doct,I,t,278,3,2050.2999992370605,270736.5,9003,WL,C,5.0
2,14.099999904632568,learn,45900.00009536743,Wed Jan 15 2025 10:52:05 GMT-0500 (Eastern Standard Time),272970.0,A,docto,I,o,167,3,2233.5,270736.5,9003,WL,C,5.0
2,14.266999959945679,learn,45733.00004005432,Wed Jan 15 2025 10:52:05 GMT-0500 (Eastern Standard Time),273136.60000038147,A,doctor,I,r,143,3,2400.1000003814697,270736.5,9003,WL,C,5.0
2,14.515999794006348,learn,45484.00020599365,Wed Jan 15 2025 10:52:05 GMT-0500 (Eastern Standard Time),273386.0,A,doctorenter,I,enter,233,3,2649.5,270736.5,9003,WL,C,5.0
2,15.149999856948853,learn,44850.00014305115,Wed Jan 15 2025 10:52:05 GMT-0500 (Eastern Standard Time),274019.60000038147,A,c,I,c,611,3,633.3000011444092,273386.29999923706,9003,WL,C,6.0
2,15.33299994468689,learn,44667.00005531311,Wed Jan 15 2025 10:52:05 GMT-0500 (Eastern Standard Time),274203.0,A,ca,I,a,170,3,816.7000007629395,273386.29999923706,9003,WL,C,6.0
2,15.75,learn,44250.0,Wed Jan 15 2025 10:52:05 GMT-0500 (Eastern Standard Time),274620.0,A,cam,I,m,404,3,1233.7000007629395,273386.29999923706,9003,WL,C,6.0
2,15.982999801635742,learn,44017.00019836426,Wed Jan 15 2025 10:52:05 GMT-0500 (Eastern Standard Time),274852.79999923706,A,camp,I,p,199,3,1466.5,273386.29999923706,9003,WL,C,6.0
2,16.699999809265137,learn,43300.00019073486,Wed Jan 15 2025 10:52:05 GMT-0500 (Eastern Standard Time),275569.39999961853,A,campenter,I,enter,697,3,2183.1000003814697,273386.29999923706,9003,WL,C,6.0
2,17.632999897003174,learn,42367.000102996826,Wed Jan 15 2025 10:52:05 GMT-0500 (Eastern Standard Time),276502.89999961853,A,l,I,l,909,3,933.1000003814697,275569.79999923706,9003,WL,C,7.0
2,17.83299994468689,learn,42167.00005531311,Wed Jan 15 2025 10:52:05 GMT-0500 (Eastern Standard Time),276703.0,A,le,I,e,181,3,1133.2000007629395,275569.79999923706,9003,WL,C,7.0
2,18.132999897003174,learn,41867.000102996826,Wed Jan 15 2025 10:52:05 GMT-0500 (Eastern Standard Time),277003.29999923706,A,let,I,t,284,3,1433.5,275569.79999923706,9003,WL,C,7.0
2,18.299999952316284,learn,41700.000047683716,Wed Jan 15 2025 10:52:05 GMT-0500 (Eastern Standard Time),277169.60000038147,A,lett,I,t,135,3,1599.8000011444092,275569.79999923706,9003,WL,C,7.0
2,18.615999937057495,learn,41384.000062942505,Wed Jan 15 2025 10:52:05 GMT-0500 (Eastern Standard Time),277486.39999961853,A,lettl,I,l,298,3,1916.6000003814697,275569.79999923706,9003,WL,C,7.0
2,19.098999977111816,learn,40901.00002288818,Wed Jan 15 2025 10:52:05 GMT-0500 (Eastern Standard Time),277969.20000076294,A,lett,I,backspace,461,3,2399.400001525879,275569.79999923706,9003,WL,C,7.0
2,19.25,learn,40750.0,Wed Jan 15 2025 10:52:05 GMT-0500 (Eastern Standard Time),278119.89999961853,A,lette,I,e,141,3,2550.1000003814697,275569.79999923706,9003,WL,C,7.0
2,19.432999849319458,learn,40567.00015068054,Wed Jan 15 2025 10:52:05 GMT-0500 (Eastern Standard Time),278303.39999961853,A,letter,I,r,155,3,2733.6000003814697,275569.79999923706,9003,WL,C,7.0
2,19.765999794006348,learn,40234.00020599365,Wed Jan 15 2025 10:52:05 GMT-0500 (Eastern Standard Time),278636.10000038147,A,letterenter,I,enter,317,3,3066.300001144409,275569.79999923706,9003,WL,C,7.0
2,21.182999849319458,learn,38817.00015068054,Wed Jan 15 2025 10:52:05 GMT-0500 (Eastern Standard Time),280053.20000076294,A,b,I,b,1394,3,1416.7000007629395,278636.5,9003,WL,C,8.0
2,21.482999801635742,learn,38517.00019836426,Wed Jan 15 2025 10:52:05 GMT-0500 (Eastern Standard Time),280353.39999961853,A,bo,I,o,279,3,1716.8999996185303,278636.5,9003,WL,C,8.0
2,21.765999794006348,learn,38234.00020599365,Wed Jan 15 2025 10:52:05 GMT-0500 (Eastern Standard Time),280635.89999961853,A,boy,I,y,259,3,1999.3999996185303,278636.5,9003,WL,C,8.0
2,22.115999937057495,learn,37884.000062942505,Wed Jan 15 2025 10:52:05 GMT-0500 (Eastern Standard Time),280985.79999923706,A,boyenter,I,enter,338,3,2349.2999992370605,278636.5,9003,WL,C,8.0
2,22.51699995994568,learn,37483.00004005432,Wed Jan 15 2025 10:52:05 GMT-0500 (Eastern Standard Time),281386.70000076294,A,s,I,s,389,3,400.6000003814697,280986.10000038147,9003,WL,C,9.0
2,22.732999801635742,learn,37267.00019836426,Wed Jan 15 2025 10:52:05 GMT-0500 (Eastern Standard Time),281603.20000076294,A,su,I,u,192,3,617.1000003814697,280986.10000038147,9003,WL,C,9.0
2,22.949999809265137,learn,37050.00019073486,Wed Jan 15 2025 10:52:05 GMT-0500 (Eastern Standard Time),281819.89999961853,A,sug,I,g,191,3,833.7999992370605,280986.10000038147,9003,WL,C,9.0
2,23.132999897003174,learn,36867.000102996826,Wed Jan 15 2025 10:52:05 GMT-0500 (Eastern Standard Time),282003.29999923706,A,suga,I,a,153,3,1017.1999988555908,280986.10000038147,9003,WL,C,9.0
2,23.265999794006348,learn,36734.00020599365,Wed Jan 15 2025 10:52:05 GMT-0500 (Eastern Standard Time),282136.29999923706,A,sugar,I,r,120,3,1150.1999988555908,280986.10000038147,9003,WL,C,9.0
2,23.56599998474121,learn,36434.00001525879,Wed Jan 15 2025 10:52:05 GMT-0500 (Eastern Standard Time),282436.10000038147,A,sugarenter,I,enter,273,3,1450.0,280986.10000038147,9003,WL,C,9.0
2,27.316999912261963,learn,32683.000087738037,Wed Jan 15 2025 10:52:05 GMT-0500 (Eastern Standard Time),286186.70000076294,A,c,I,c,3738,3,3750.2000007629395,282436.5,9003,WL,C,10.0
2,27.949999809265137,learn,32050.000190734863,Wed Jan 15 2025 10:52:05 GMT-0500 (Eastern Standard Time),286819.89999961853,A,,I,backspace,607,3,4383.39999961853,282436.5,9003,WL,C,10.0
2,29.216999769210815,learn,30783.000230789185,Wed Jan 15 2025 10:52:05 GMT-0500 (Eastern Standard Time),288086.60000038147,A,s,I,s,1240,3,5650.10000038147,282436.5,9003,WL,C,10.0
2,29.399999856948853,learn,30600.000143051147,Wed Jan 15 2025 10:52:05 GMT-0500 (Eastern Standard Time),288270.0,A,sh,I,h,157,3,5833.5,282436.5,9003,WL,C,10.0
2,29.59999990463257,learn,30400.00009536743,Wed Jan 15 2025 10:52:05 GMT-0500 (Eastern Standard Time),288469.89999961853,A,sho,I,o,163,3,6033.39999961853,282436.5,9003,WL,C,10.0
2,29.799999952316284,learn,30200.000047683716,Wed Jan 15 2025 10:52:05 GMT-0500 (Eastern Standard Time),288669.39999961853,A,shor,I,r,180,3,6232.89999961853,282436.5,9003,WL,C,10.0
2,29.982999801635742,learn,30017.000198364258,Wed Jan 15 2025 10:52:05 GMT-0500 (Eastern Standard Time),288852.60000038147,A,shore,I,e,160,3,6416.10000038147,282436.5,9003,WL,C,10.0
2,30.215999841690063,learn,29784.000158309937,Wed Jan 15 2025 10:52:05 GMT-0500 (Eastern Standard Time),289085.89999961853,A,shoreenter,I,enter,218,3,6649.39999961853,282436.5,9003,WL,C,10.0
2,35.19999980926514,learn,24800.000190734863,Wed Jan 15 2025 10:52:05 GMT-0500 (Eastern Standard Time),294069.89999961853,A,h,I,h,4960,3,4983.699998855591,289086.20000076294,9003,WL,C,11.0
2,35.41699981689453,learn,24583.00018310547,Wed Jan 15 2025 10:52:05 GMT-0500 (Eastern Standard Time),294286.79999923706,A,ho,I,o,197,3,5200.599998474121,289086.20000076294,9003,WL,C,11.0
2,35.64999985694885,learn,24350.000143051147,Wed Jan 15 2025 10:52:05 GMT-0500 (Eastern Standard Time),294520.10000038147,A,hom,I,m,195,3,5433.89999961853,289086.20000076294,9003,WL,C,11.0
2,35.882999897003174,learn,24117.000102996826,Wed Jan 15 2025 10:52:05 GMT-0500 (Eastern Standard Time),294752.89999961853,A,home,I,e,210,3,5666.699998855591,289086.20000076294,9003,WL,C,11.0
2,36.1489999294281,learn,23851.0000705719,Wed Jan 15 2025 10:52:05 GMT-0500 (Eastern Standard Time),295019.20000076294,A,homeenter,I,enter,251,3,5933.0,289086.20000076294,9003,WL,C,11.0
2,38.01699995994568,learn,21983.00004005432,Wed Jan 15 2025 10:52:05 GMT-0500 (Eastern Standard Time),296886.70000076294,A,s,I,s,1845,3,1867.2000007629395,295019.5,9003,WL,C,12.0
2,38.19999980926514,learn,21800.000190734863,Wed Jan 15 2025 10:52:05 GMT-0500 (Eastern Standard Time),297069.89999961853,A,su,I,u,163,3,2050.3999996185303,295019.5,9003,WL,C,12.0
2,38.382999897003174,learn,21617.000102996826,Wed Jan 15 2025 10:52:05 GMT-0500 (Eastern Standard Time),297252.79999923706,A,sug,I,g,156,3,2233.2999992370605,295019.5,9003,WL,C,12.0
2,38.532999992370605,learn,21467.000007629395,Wed Jan 15 2025 10:52:05 GMT-0500 (Eastern Standard Time),297403.39999961853,A,suga,I,a,138,3,2383.8999996185303,295019.5,9003,WL,C,12.0
2,38.716999769210815,learn,21283.000230789185,Wed Jan 15 2025 10:52:05 GMT-0500 (Eastern Standard Time),297586.60000038147,A,sugar,I,r,154,3,2567.1000003814697,295019.5,9003,WL,C,12.0
2,39.01599979400635,learn,20984.000205993652,Wed Jan 15 2025 10:52:05 GMT-0500 (Eastern Standard Time),297886.39999961853,A,sugarenter,I,enter,272,3,2866.8999996185303,295019.5,9003,WL,C,12.0
2,42.69999980926514,learn,17300.000190734863,Wed Jan 15 2025 10:52:05 GMT-0500 (Eastern Standard Time),301569.5,A,c,I,c,3663,3,3682.7000007629395,297886.79999923706,9003,WL,C,13.0
2,42.882999897003174,learn,17117.000102996826,Wed Jan 15 2025 10:52:05 GMT-0500 (Eastern Standard Time),301752.60000038147,A,ca,I,a,172,3,3865.800001144409,297886.79999923706,9003,WL,C,13.0
2,43.098999977111816,learn,16901.000022888184,Wed Jan 15 2025 10:52:05 GMT-0500 (Eastern Standard Time),301969.20000076294,A,cat,I,t,196,3,4082.400001525879,297886.79999923706,9003,WL,C,13.0
2,43.282999992370605,learn,16717.000007629395,Wed Jan 15 2025 10:52:05 GMT-0500 (Eastern Standard Time),302152.60000038147,A,catt,I,t,173,3,4265.800001144409,297886.79999923706,9003,WL,C,13.0
2,43.44999980926514,learn,16550.000190734863,Wed Jan 15 2025 10:52:05 GMT-0500 (Eastern Standard Time),302319.5,A,cattl,I,l,149,3,4432.700000762939,297886.79999923706,9003,WL,C,13.0
2,43.58299994468689,learn,16417.00005531311,Wed Jan 15 2025 10:52:05 GMT-0500 (Eastern Standard Time),302452.70000076294,A,cattle,I,e,109,3,4565.900001525879,297886.79999923706,9003,WL,C,13.0
2,43.91599988937378,learn,16084.00011062622,Wed Jan 15 2025 10:52:05 GMT-0500 (Eastern Standard Time),302785.89999961853,A,cattleenter,I,enter,313,3,4899.10000038147,297886.79999923706,9003,WL,C,13.0
2,49.98399996757507,learn,10016.000032424927,Wed Jan 15 2025 10:52:05 GMT-0500 (Eastern Standard Time),308853.5,A,c,I,c,6045,3,6067.200000762939,302786.29999923706,9003,WL,C,14.0
2,50.11699986457825,learn,9883.000135421753,Wed Jan 15 2025 10:52:05 GMT-0500 (Eastern Standard Time),308986.70000076294,A,co,I,o,115,3,6200.400001525879,302786.29999923706,9003,WL,C,14.0
2,50.299999952316284,learn,9700.000047683716,Wed Jan 15 2025 10:52:05 GMT-0500 (Eastern Standard Time),309169.89999961853,A,cor,I,r,153,3,6383.60000038147,302786.29999923706,9003,WL,C,14.0
2,50.632999897003174,learn,9367.000102996826,Wed Jan 15 2025 10:52:05 GMT-0500 (Eastern Standard Time),309503.20000076294,A,corn,I,n,314,3,6716.900001525879,302786.29999923706,9003,WL,C,14.0
2,50.94999980926514,learn,9050.000190734863,Wed Jan 15 2025 10:52:05 GMT-0500 (Eastern Standard Time),309819.39999961853,A,cornenter,I,enter,291,3,7033.10000038147,302786.29999923706,9003,WL,C,14.0
2,57.66599988937378,learn,2334.0001106262207,Wed Jan 15 2025 10:52:05 GMT-0500 (Eastern Standard Time),316536.20000076294,A,w,I,w,6705,3,6716.300001144409,309819.89999961853,9003,WL,C,15.0
2,57.865999937057495,learn,2134.000062942505,Wed Jan 15 2025 10:52:05 GMT-0500 (Eastern Standard Time),316736.0,A,wh,I,h,181,3,6916.10000038147,309819.89999961853,9003,WL,C,15.0
2,57.98299980163574,learn,2017.0001983642578,Wed Jan 15 2025 10:52:05 GMT-0500 (Eastern Standard Time),316853.10000038147,A,wha,I,a,94,3,7033.200000762939,309819.89999961853,9003,WL,C,15.0
2,58.41599988937378,learn,1584.0001106262207,Wed Jan 15 2025 10:52:05 GMT-0500 (Eastern Standard Time),317286.29999923706,A,wh,I,backspace,400,3,7466.39999961853,309819.89999961853,9003,WL,C,15.0
2,58.59999990463257,learn,1400.0000953674316,Wed Jan 15 2025 10:52:05 GMT-0500 (Eastern Standard Time),317469.60000038147,A,whe,I,e,159,3,7649.700000762939,309819.89999961853,9003,WL,C,15.0
2,58.71599984169006,learn,1284.0001583099365,Wed Jan 15 2025 10:52:05 GMT-0500 (Eastern Standard Time),317586.29999923706,A,whea,I,a,97,3,7766.39999961853,309819.89999961853,9003,WL,C,15.0
2,58.865999937057495,learn,1134.0000629425049,Wed Jan 15 2025 10:52:05 GMT-0500 (Eastern Standard Time),317736.10000038147,A,wheat,I,t,132,3,7916.200000762939,309819.89999961853,9003,WL,C,15.0
2,59.282999992370605,learn,717.0000076293945,Wed Jan 15 2025 10:52:05 GMT-0500 (Eastern Standard Time),318152.60000038147,A,wheatenter,I,enter,406,3,8332.70000076294,309819.89999961853,9003,WL,C,15.0
3,0.8169999122619629,learn,59183.00008773804,Wed Jan 15 2025 10:52:05 GMT-0500 (Eastern Standard Time),388486.79999923706,A,t,I,t,790,3,816.3999996185303,387670.39999961853,9003,WL,C,1.0
3,0.9830000400543213,learn,59016.99995994568,Wed Jan 15 2025 10:52:05 GMT-0500 (Eastern Standard Time),388653.29999923706,A,to,I,o,149,3,982.8999996185303,387670.39999961853,9003,WL,C,1.0
3,1.2170000076293945,learn,58782.999992370605,Wed Jan 15 2025 10:52:05 GMT-0500 (Eastern Standard Time),388886.60000038147,A,tow,I,w,203,3,1216.2000007629395,387670.39999961853,9003,WL,C,1.0
3,1.3659999370574951,learn,58634.000062942505,Wed Jan 15 2025 10:52:05 GMT-0500 (Eastern Standard Time),389036.29999923706,A,towe,I,e,133,3,1365.8999996185303,387670.39999961853,9003,WL,C,1.0
3,1.5329999923706055,learn,58467.000007629395,Wed Jan 15 2025 10:52:05 GMT-0500 (Eastern Standard Time),389203.29999923706,A,tower,I,r,147,3,1532.8999996185303,387670.39999961853,9003,WL,C,1.0
3,2.2829999923706055,learn,57717.000007629395,Wed Jan 15 2025 10:52:05 GMT-0500 (Eastern Standard Time),389953.0,A,towerenter,I,enter,729,3,2282.6000003814697,387670.39999961853,9003,WL,C,1.0
3,3.25,learn,56750.0,Wed Jan 15 2025 10:52:05 GMT-0500 (Eastern Standard Time),390919.39999961853,A,w,I,w,958,3,966.0,389953.39999961853,9003,WL,C,2.0
3,3.5,learn,56500.0,Wed Jan 15 2025 10:52:05 GMT-0500 (Eastern Standard Time),391170.10000038147,A,wh,I,h,226,3,1216.7000007629395,389953.39999961853,9003,WL,C,2.0
3,3.75,learn,56250.0,Wed Jan 15 2025 10:52:05 GMT-0500 (Eastern Standard Time),391419.89999961853,A,whe,I,e,232,3,1466.5,389953.39999961853,9003,WL,C,2.0
3,3.9670000076293945,learn,56032.999992370605,Wed Jan 15 2025 10:52:05 GMT-0500 (Eastern Standard Time),391636.89999961853,A,whea,I,a,191,3,1683.5,389953.39999961853,9003,WL,C,2.0
3,4.166999816894531,learn,55833.00018310547,Wed Jan 15 2025 10:52:05 GMT-0500 (Eastern Standard Time),391836.70000076294,A,wheat,I,t,184,3,1883.3000011444092,389953.39999961853,9003,WL,C,2.0
3,4.5329999923706055,learn,55467.000007629395,Wed Jan 15 2025 10:52:05 GMT-0500 (Eastern Standard Time),392203.0,A,wheatenter,I,enter,349,3,2249.6000003814697,389953.39999961853,9003,WL,C,2.0
3,5.266000032424927,learn,54733.99996757507,Wed Jan 15 2025 10:52:05 GMT-0500 (Eastern Standard Time),392936.29999923706,A,q,I,q,724,3,732.8999996185303,392203.39999961853,9003,WL,C,3.0
3,5.516999959945679,learn,54483.00004005432,Wed Jan 15 2025 10:52:05 GMT-0500 (Eastern Standard Time),393186.89999961853,A,qu,I,u,230,3,983.5,392203.39999961853,9003,WL,C,3.0
3,5.983000040054321,learn,54016.99995994568,Wed Jan 15 2025 10:52:05 GMT-0500 (Eastern Standard Time),393653.29999923706,A,que,I,e,440,3,1449.8999996185303,392203.39999961853,9003,WL,C,3.0
3,6.450000047683716,learn,53549.999952316284,Wed Jan 15 2025 10:52:05 GMT-0500 (Eastern Standard Time),394119.89999961853,A,quee,I,e,430,3,1916.5,392203.39999961853,9003,WL,C,3.0
3,6.7170000076293945,learn,53282.999992370605,Wed Jan 15 2025 10:52:05 GMT-0500 (Eastern Standard Time),394386.89999961853,A,queen,I,n,244,3,2183.5,392203.39999961853,9003,WL,C,3.0
3,7.2829999923706055,learn,52717.000007629395,Wed Jan 15 2025 10:52:05 GMT-0500 (Eastern Standard Time),394952.89999961853,A,queenenter,I,enter,550,3,2749.5,392203.39999961853,9003,WL,C,3.0
3,8.049999952316284,learn,51950.000047683716,Wed Jan 15 2025 10:52:05 GMT-0500 (Eastern Standard Time),395720.0,A,s,I,s,757,3,766.7000007629395,394953.29999923706,9003,WL,C,4.0
3,8.282999992370605,learn,51717.000007629395,Wed Jan 15 2025 10:52:05 GMT-0500 (Eastern Standard Time),395953.39999961853,A,su,I,u,202,3,1000.1000003814697,394953.29999923706,9003,WL,C,4.0
3,8.649999856948853,learn,51350.00014305115,Wed Jan 15 2025 10:52:05 GMT-0500 (Eastern Standard Time),396320.29999923706,A,sug,I,g,346,3,1367.0,394953.29999923706,9003,WL,C,4.0
3,8.849999904632568,learn,51150.00009536743,Wed Jan 15 2025 10:52:05 GMT-0500 (Eastern Standard Time),396519.89999961853,A,suga,I,a,171,3,1566.6000003814697,394953.29999923706,9003,WL,C,4.0
3,9.049999952316284,learn,50950.000047683716,Wed Jan 15 2025 10:52:05 GMT-0500 (Eastern Standard Time),396720.10000038147,A,sugar,I,r,180,3,1766.8000011444092,394953.29999923706,9003,WL,C,4.0
3,9.432999849319458,learn,50567.00015068054,Wed Jan 15 2025 10:52:05 GMT-0500 (Eastern Standard Time),397103.10000038147,A,sugarenter,I,enter,354,3,2149.800001144409,394953.29999923706,9003,WL,C,4.0
3,10.616999864578247,learn,49383.00013542175,Wed Jan 15 2025 10:52:05 GMT-0500 (Eastern Standard Time),398286.79999923706,A,b,I,b,1168,3,1183.5,397103.29999923706,9003,WL,C,5.0
3,10.866999864578247,learn,49133.00013542175,Wed Jan 15 2025 10:52:05 GMT-0500 (Eastern Standard Time),398536.60000038147,A,bo,I,o,236,3,1433.3000011444092,397103.29999923706,9003,WL,C,5.0
3,11.049999952316284,learn,48950.000047683716,Wed Jan 15 2025 10:52:05 GMT-0500 (Eastern Standard Time),398720.10000038147,A,bod,I,d,164,3,1616.8000011444092,397103.29999923706,9003,WL,C,5.0
3,11.483000040054321,learn,48516.99995994568,Wed Jan 15 2025 10:52:05 GMT-0500 (Eastern Standard Time),399153.0,A,body,I,y,411,3,2049.7000007629395,397103.29999923706,9003,WL,C,5.0
3,11.932999849319458,learn,48067.00015068054,Wed Jan 15 2025 10:52:05 GMT-0500 (Eastern Standard Time),399603.0,A,bodyenter,I,enter,429,3,2499.7000007629395,397103.29999923706,9003,WL,C,5.0
3,13.75,learn,46250.0,Wed Jan 15 2025 10:52:05 GMT-0500 (Eastern Standard Time),401420.10000038147,A,c,I,c,1804,3,1816.7000007629395,399603.39999961853,9003,WL,C,6.0
3,13.950000047683716,learn,46049.999952316284,Wed Jan 15 2025 10:52:05 GMT-0500 (Eastern Standard Time),401620.10000038147,A,ca,I,a,174,3,2016.7000007629395,399603.39999961853,9003,WL,C,6.0
3,14.099999904632568,learn,45900.00009536743,Wed Jan 15 2025 10:52:05 GMT-0500 (Eastern Standard Time),401770.0,A,cam,I,m,135,3,2166.6000003814697,399603.39999961853,9003,WL,C,6.0
3,14.349999904632568,learn,45650.00009536743,Wed Jan 15 2025 10:52:05 GMT-0500 (Eastern Standard Time),402020.20000076294,A,camp,I,p,216,3,2416.800001144409,399603.39999961853,9003,WL,C,6.0
3,14.66599988937378,learn,45334.00011062622,Wed Jan 15 2025 10:52:05 GMT-0500 (Eastern Standard Time),402336.0,A,campenter,I,enter,296,3,2732.6000003814697,399603.39999961853,9003,WL,C,6.0
3,15.217000007629395,learn,44782.999992370605,Wed Jan 15 2025 10:52:05 GMT-0500 (Eastern Standard Time),402887.0,A,c,I,c,526,3,550.6000003814697,402336.39999961853,9003,WL,C,7.0
3,15.983999967575073,learn,44016.00003242493,Wed Jan 15 2025 10:52:05 GMT-0500 (Eastern Standard Time),403653.5,A,,I,backspace,740,3,1317.1000003814697,402336.39999961853,9003,WL,C,7.0
3,16.217000007629395,learn,43782.999992370605,Wed Jan 15 2025 10:52:05 GMT-0500 (Eastern Standard Time),403886.89999961853,A,d,I,d,213,3,1550.5,402336.39999961853,9003,WL,C,7.0
3,16.450000047683716,learn,43549.999952316284,Wed Jan 15 2025 10:52:05 GMT-0500 (Eastern Standard Time),404120.0,A,do,I,o,202,3,1783.6000003814697,402336.39999961853,9003,WL,C,7.0
3,16.566999912261963,learn,43433.00008773804,Wed Jan 15 2025 10:52:05 GMT-0500 (Eastern Standard Time),404236.70000076294,A,doc,I,c,98,3,1900.3000011444092,402336.39999961853,9003,WL,C,7.0
3,16.84999990463257,learn,43150.00009536743,Wed Jan 15 2025 10:52:05 GMT-0500 (Eastern Standard Time),404520.0,A,doct,I,t,271,3,2183.6000003814697,402336.39999961853,9003,WL,C,7.0
3,17.0,learn,43000.0,Wed Jan 15 2025 10:52:05 GMT-0500 (Eastern Standard Time),404670.29999923706,A,docto,I,o,131,3,2333.8999996185303,402336.39999961853,9003,WL,C,7.0
3,17.16699981689453,learn,42833.00018310547,Wed Jan 15 2025 10:52:05 GMT-0500 (Eastern Standard Time),404836.60000038147,A,doctor,I,r,140,3,2500.2000007629395,402336.39999961853,9003,WL,C,7.0
3,17.549999952316284,learn,42450.000047683716,Wed Jan 15 2025 10:52:05 GMT-0500 (Eastern Standard Time),405219.60000038147,A,doctorenter,I,enter,359,3,2883.2000007629395,402336.39999961853,9003,WL,C,7.0
3,18.75,learn,41250.0,Wed Jan 15 2025 10:52:05 GMT-0500 (Eastern Standard Time),406420.0,A,m,I,m,1178,3,1200.0,405220.0,9003,WL,C,8.0
3,19.182999849319458,learn,40817.00015068054,Wed Jan 15 2025 10:52:05 GMT-0500 (Eastern Standard Time),406853.10000038147,A,,I,backspace,407,3,1633.1000003814697,405220.0,9003,WL,C,8.0
3,19.5,learn,40500.0,Wed Jan 15 2025 10:52:05 GMT-0500 (Eastern Standard Time),407170.10000038147,A,n,I,n,299,3,1950.1000003814697,405220.0,9003,WL,C,8.0
3,19.700000047683716,learn,40299.999952316284,Wed Jan 15 2025 10:52:05 GMT-0500 (Eastern Standard Time),407369.79999923706,A,na,I,a,184,3,2149.7999992370605,405220.0,9003,WL,C,8.0
3,19.883999824523926,learn,40116.000175476074,Wed Jan 15 2025 10:52:05 GMT-0500 (Eastern Standard Time),407553.60000038147,A,nai,I,i,165,3,2333.6000003814697,405220.0,9003,WL,C,8.0
3,20.09999990463257,learn,39900.00009536743,Wed Jan 15 2025 10:52:05 GMT-0500 (Eastern Standard Time),407770.10000038147,A,nail,I,l,191,3,2550.1000003814697,405220.0,9003,WL,C,8.0
3,20.41699981689453,learn,39583.00018310547,Wed Jan 15 2025 10:52:05 GMT-0500 (Eastern Standard Time),408086.5,A,nailenter,I,enter,290,3,2866.5,405220.0,9003,WL,C,8.0
3,20.983999967575073,learn,39016.00003242493,Wed Jan 15 2025 10:52:05 GMT-0500 (Eastern Standard Time),408653.39999961853,A,s,I,s,553,3,566.6000003814697,408086.79999923706,9003,WL,C,9.0
3,21.16699981689453,learn,38833.00018310547,Wed Jan 15 2025 10:52:05 GMT-0500 (Eastern Standard Time),408836.89999961853,A,sh,I,h,155,3,750.1000003814697,408086.79999923706,9003,WL,C,9.0
3,21.299999952316284,learn,38700.000047683716,Wed Jan 15 2025 10:52:05 GMT-0500 (Eastern Standard Time),408969.79999923706,A,sha,I,a,119,3,883.0,408086.79999923706,9003,WL,C,9.0
3,21.766000032424927,learn,38233.99996757507,Wed Jan 15 2025 10:52:05 GMT-0500 (Eastern Standard Time),409436.29999923706,A,sh,I,backspace,449,3,1349.5,408086.79999923706,9003,WL,C,9.0
3,22.066999912261963,learn,37933.00008773804,Wed Jan 15 2025 10:52:05 GMT-0500 (Eastern Standard Time),409736.60000038147,A,sho,I,o,290,3,1649.8000011444092,408086.79999923706,9003,WL,C,9.0
3,22.233999967575073,learn,37766.00003242493,Wed Jan 15 2025 10:52:05 GMT-0500 (Eastern Standard Time),409903.5,A,shor,I,r,147,3,1816.7000007629395,408086.79999923706,9003,WL,C,9.0
3,22.382999897003174,learn,37617.000102996826,Wed Jan 15 2025 10:52:05 GMT-0500 (Eastern Standard Time),410052.89999961853,A,shore,I,e,116,3,1966.1000003814697,408086.79999923706,9003,WL,C,9.0
3,22.682999849319458,learn,37317.00015068054,Wed Jan 15 2025 10:52:05 GMT-0500 (Eastern Standard Time),410353.10000038147,A,shoreenter,I,enter,280,3,2266.300001144409,408086.79999923706,9003,WL,C,9.0
3,24.983999967575073,learn,35016.00003242493,Wed Jan 15 2025 10:52:05 GMT-0500 (Eastern Standard Time),412653.60000038147,A,c,I,c,2286,3,2300.2000007629395,410353.39999961853,9003,WL,C,10.0
3,25.116999864578247,learn,34883.00013542175,Wed Jan 15 2025 10:52:05 GMT-0500 (Eastern Standard Time),412786.89999961853,A,co,I,o,108,3,2433.5,410353.39999961853,9003,WL,C,10.0
3,25.299999952316284,learn,34700.000047683716,Wed Jan 15 2025 10:52:05 GMT-0500 (Eastern Standard Time),412970.0,A,cor,I,r,159,3,2616.6000003814697,410353.39999961853,9003,WL,C,10.0
3,25.532999992370605,learn,34467.000007629395,Wed Jan 15 2025 10:52:05 GMT-0500 (Eastern Standard Time),413203.20000076294,A,corn,I,n,209,3,2849.800001144409,410353.39999961853,9003,WL,C,10.0
3,25.84999990463257,learn,34150.00009536743,Wed Jan 15 2025 10:52:05 GMT-0500 (Eastern Standard Time),413519.70000076294,A,cornenter,I,enter,298,3,3166.300001144409,410353.39999961853,9003,WL,C,10.0
3,26.450000047683716,learn,33549.999952316284,Wed Jan 15 2025 10:52:05 GMT-0500 (Eastern Standard Time),414119.39999961853,A,l,I,l,591,3,599.2999992370605,413520.10000038147,9003,WL,C,11.0
3,26.649999856948853,learn,33350.00014305115,Wed Jan 15 2025 10:52:05 GMT-0500 (Eastern Standard Time),414320.29999923706,A,le,I,e,182,3,800.1999988555908,413520.10000038147,9003,WL,C,11.0
3,27.033999919891357,learn,32966.00008010864,Wed Jan 15 2025 10:52:05 GMT-0500 (Eastern Standard Time),414703.5,A,let,I,t,364,3,1183.3999996185303,413520.10000038147,9003,WL,C,11.0
3,27.25,learn,32750.0,Wed Jan 15 2025 10:52:05 GMT-0500 (Eastern Standard Time),414920.29999923706,A,lett,I,t,188,3,1400.1999988555908,413520.10000038147,9003,WL,C,11.0
3,27.532999992370605,learn,32467.000007629395,Wed Jan 15 2025 10:52:05 GMT-0500 (Eastern Standard Time),415203.20000076294,A,lette,I,e,260,3,1683.1000003814697,413520.10000038147,9003,WL,C,11.0
3,27.649999856948853,learn,32350.000143051147,Wed Jan 15 2025 10:52:05 GMT-0500 (Eastern Standard Time),415320.0,A,letter,I,r,104,3,1799.8999996185303,413520.10000038147,9003,WL,C,11.0
3,27.98300004005432,learn,32016.99995994568,Wed Jan 15 2025 10:52:05 GMT-0500 (Eastern Standard Time),415653.0,A,letterenter,I,enter,297,3,2132.8999996185303,413520.10000038147,9003,WL,C,11.0
3,45.5,learn,14500.0,Wed Jan 15 2025 10:52:05 GMT-0500 (Eastern Standard Time),433170.29999923706,A,h,I,h,17499,3,17516.89999961853,415653.39999961853,9003,WL,C,12.0
3,45.717000007629395,learn,14282.999992370605,Wed Jan 15 2025 10:52:05 GMT-0500 (Eastern Standard Time),433386.79999923706,A,ho,I,o,199,3,17733.39999961853,415653.39999961853,9003,WL,C,12.0
3,45.967000007629395,learn,14032.999992370605,Wed Jan 15 2025 10:52:05 GMT-0500 (Eastern Standard Time),433637.0,A,hom,I,m,216,3,17983.60000038147,415653.39999961853,9003,WL,C,12.0
3,46.18299984931946,learn,13817.000150680542,Wed Jan 15 2025 10:52:05 GMT-0500 (Eastern Standard Time),433853.29999923706,A,home,I,e,199,3,18199.89999961853,415653.39999961853,9003,WL,C,12.0
3,46.41599988937378,learn,13584.00011062622,Wed Jan 15 2025 10:52:05 GMT-0500 (Eastern Standard Time),434086.29999923706,A,homeenter,I,enter,198,3,18432.89999961853,415653.39999961853,9003,WL,C,12.0
3,53.53399991989136,learn,6466.000080108643,Wed Jan 15 2025 10:52:05 GMT-0500 (Eastern Standard Time),441203.39999961853,A,f,I,f,7096,3,7116.699998855591,434086.70000076294,9003,WL,C,13.0
3,53.73399996757507,learn,6266.000032424927,Wed Jan 15 2025 10:52:05 GMT-0500 (Eastern Standard Time),441403.5,A,fl,I,l,183,3,7316.799999237061,434086.70000076294,9003,WL,C,13.0
3,53.950000047683716,learn,6049.999952316284,Wed Jan 15 2025 10:52:05 GMT-0500 (Eastern Standard Time),441620.29999923706,A,fla,I,a,183,3,7533.599998474121,434086.70000076294,9003,WL,C,13.0
3,54.25,learn,5750.0,Wed Jan 15 2025 10:52:05 GMT-0500 (Eastern Standard Time),441920.29999923706,A,flag,I,g,277,3,7833.599998474121,434086.70000076294,9003,WL,C,13.0
3,54.46599984169006,learn,5534.0001583099365,Wed Jan 15 2025 10:52:05 GMT-0500 (Eastern Standard Time),442136.29999923706,A,flagenter,I,enter,204,3,8049.599998474121,434086.70000076294,9003,WL,C,13.0
3,60.01699995994568,learn,-16.99995994567871,Wed Jan 15 2025 10:52:05 GMT-0500 (Eastern Standard Time),447686.39999961853,A,None,I,None,5542,3,5549.699998855591,442136.70000076294,9003,WL,C,14.0
4,2.5160000324249268,learn,57483.99996757507,Wed Jan 15 2025 10:52:05 GMT-0500 (Eastern Standard Time),519270.10000038147,A,t,I,t,2491,3,2516.2000007629395,516753.89999961853,9003,WL,C,1.0
4,2.683000087738037,learn,57316.99991226196,Wed Jan 15 2025 10:52:05 GMT-0500 (Eastern Standard Time),519437.0,A,to,I,o,149,3,2683.1000003814697,516753.89999961853,9003,WL,C,1.0
4,2.866000175476074,learn,57133.999824523926,Wed Jan 15 2025 10:52:05 GMT-0500 (Eastern Standard Time),519620.20000076294,A,tow,I,w,149,3,2866.300001144409,516753.89999961853,9003,WL,C,1.0
4,3.065999984741211,learn,56934.00001525879,Wed Jan 15 2025 10:52:05 GMT-0500 (Eastern Standard Time),519820.29999923706,A,towe,I,e,183,3,3066.3999996185303,516753.89999961853,9003,WL,C,1.0
4,3.183000087738037,learn,56816.99991226196,Wed Jan 15 2025 10:52:05 GMT-0500 (Eastern Standard Time),519936.89999961853,A,tower,I,r,95,3,3183.0,516753.89999961853,9003,WL,C,1.0
4,3.9660000801086426,learn,56033.99991989136,Wed Jan 15 2025 10:52:05 GMT-0500 (Eastern Standard Time),520719.79999923706,A,towerenter,I,enter,758,3,3965.8999996185303,516753.89999961853,9003,WL,C,1.0
4,4.799999952316284,learn,55200.000047683716,Wed Jan 15 2025 10:52:05 GMT-0500 (Eastern Standard Time),521553.5,A,w,I,w,815,3,833.3999996185303,520720.10000038147,9003,WL,C,2.0
4,5.08299994468689,learn,54917.00005531311,Wed Jan 15 2025 10:52:05 GMT-0500 (Eastern Standard Time),521837.0,A,wh,I,h,266,3,1116.8999996185303,520720.10000038147,9003,WL,C,2.0
4,5.216000080108643,learn,54783.99991989136,Wed Jan 15 2025 10:52:05 GMT-0500 (Eastern Standard Time),521970.20000076294,A,whe,I,e,109,3,1250.1000003814697,520720.10000038147,9003,WL,C,2.0
4,5.366000175476074,learn,54633.999824523926,Wed Jan 15 2025 10:52:05 GMT-0500 (Eastern Standard Time),522120.20000076294,A,whea,I,a,121,3,1400.1000003814697,520720.10000038147,9003,WL,C,2.0
4,5.5,learn,54500.0,Wed Jan 15 2025 10:52:05 GMT-0500 (Eastern Standard Time),522253.79999923706,A,wheat,I,t,108,3,1533.6999988555908,520720.10000038147,9003,WL,C,2.0
4,5.815999984741211,learn,54184.00001525879,Wed Jan 15 2025 10:52:05 GMT-0500 (Eastern Standard Time),522569.79999923706,A,wheatenter,I,enter,301,3,1849.6999988555908,520720.10000038147,9003,WL,C,2.0
4,6.58299994468689,learn,53417.00005531311,Wed Jan 15 2025 10:52:05 GMT-0500 (Eastern Standard Time),523336.70000076294,A,q,I,q,757,3,766.6000003814697,522570.10000038147,9003,WL,C,3.0
4,6.866000175476074,learn,53133.999824523926,Wed Jan 15 2025 10:52:05 GMT-0500 (Eastern Standard Time),523619.89999961853,A,qu,I,u,259,3,1049.7999992370605,522570.10000038147,9003,WL,C,3.0
4,7.133000135421753,learn,52866.99986457825,Wed Jan 15 2025 10:52:05 GMT-0500 (Eastern Standard Time),523887.0,A,que,I,e,248,3,1316.8999996185303,522570.10000038147,9003,WL,C,3.0
4,7.299000024795532,learn,52700.99997520447,Wed Jan 15 2025 10:52:05 GMT-0500 (Eastern Standard Time),524053.0,A,quee,I,e,140,3,1482.8999996185303,522570.10000038147,9003,WL,C,3.0
4,7.433000087738037,learn,52566.99991226196,Wed Jan 15 2025 10:52:05 GMT-0500 (Eastern Standard Time),524187.0,A,queen,I,n,120,3,1616.8999996185303,522570.10000038147,9003,WL,C,3.0
4,7.7829999923706055,learn,52217.000007629395,Wed Jan 15 2025 10:52:05 GMT-0500 (Eastern Standard Time),524536.5,A,queenenter,I,enter,328,3,1966.3999996185303,522570.10000038147,9003,WL,C,3.0
4,8.666000127792358,learn,51333.99987220764,Wed Jan 15 2025 10:52:05 GMT-0500 (Eastern Standard Time),525420.3999996185,A,s,I,s,870,3,883.6000003814697,524536.7999992371,9003,WL,C,4.0
4,8.900000095367432,learn,51099.99990463257,Wed Jan 15 2025 10:52:05 GMT-0500 (Eastern Standard Time),525653.5,A,su,I,u,206,3,1116.7000007629395,524536.7999992371,9003,WL,C,4.0
4,9.133000135421753,learn,50866.99986457825,Wed Jan 15 2025 10:52:05 GMT-0500 (Eastern Standard Time),525886.8999996185,A,sug,I,g,205,3,1350.1000003814697,524536.7999992371,9003,WL,C,4.0
4,9.315999984741211,learn,50684.00001525879,Wed Jan 15 2025 10:52:05 GMT-0500 (Eastern Standard Time),526070.2000007629,A,suga,I,a,151,3,1533.400001525879,524536.7999992371,9003,WL,C,4.0
4,9.466000080108643,learn,50533.99991989136,Wed Jan 15 2025 10:52:05 GMT-0500 (Eastern Standard Time),526219.8999996185,A,sugar,I,r,133,3,1683.1000003814697,524536.7999992371,9003,WL,C,4.0
4,9.749000072479248,learn,50250.99992752075,Wed Jan 15 2025 10:52:05 GMT-0500 (Eastern Standard Time),526503.2000007629,A,sugarenter,I,enter,275,3,1966.400001525879,524536.7999992371,9003,WL,C,4.0
4,10.350000143051147,learn,49649.99985694885,Wed Jan 15 2025 10:52:05 GMT-0500 (Eastern Standard Time),527103.5,A,b,I,b,584,3,600.1000003814697,526503.3999996185,9003,WL,C,5.0
4,10.633000135421753,learn,49366.99986457825,Wed Jan 15 2025 10:52:05 GMT-0500 (Eastern Standard Time),527387.0,A,bo,I,o,268,3,883.6000003814697,526503.3999996185,9003,WL,C,5.0
4,10.900000095367432,learn,49099.99990463257,Wed Jan 15 2025 10:52:05 GMT-0500 (Eastern Standard Time),527653.7000007629,A,boy,I,y,241,3,1150.3000011444092,526503.3999996185,9003,WL,C,5.0
4,11.332000017166138,learn,48667.99998283386,Wed Jan 15 2025 10:52:05 GMT-0500 (Eastern Standard Time),528086.3999996185,A,boyenter,I,enter,405,3,1583.0,526503.3999996185,9003,WL,C,5.0
4,11.867000102996826,learn,48132.999897003174,Wed Jan 15 2025 10:52:05 GMT-0500 (Eastern Standard Time),528620.7000007629,A,f,I,f,520,3,533.9000015258789,528086.7999992371,9003,WL,C,6.0
4,12.016999959945679,learn,47983.00004005432,Wed Jan 15 2025 10:52:05 GMT-0500 (Eastern Standard Time),528770.6000003815,A,fl,I,l,127,3,683.8000011444092,528086.7999992371,9003,WL,C,6.0
4,12.166000127792358,learn,47833.99987220764,Wed Jan 15 2025 10:52:05 GMT-0500 (Eastern Standard Time),528920.0,A,fla,I,a,138,3,833.2000007629395,528086.7999992371,9003,WL,C,6.0
4,12.383000135421753,learn,47616.99986457825,Wed Jan 15 2025 10:52:05 GMT-0500 (Eastern Standard Time),529137.0,A,flag,I,g,187,3,1050.2000007629395,528086.7999992371,9003,WL,C,6.0
4,12.631999969482422,learn,47368.00003051758,Wed Jan 15 2025 10:52:05 GMT-0500 (Eastern Standard Time),529386.3999996185,A,flagenter,I,enter,235,3,1299.6000003814697,528086.7999992371,9003,WL,C,6.0
4,13.383000135421753,learn,46616.99986457825,Wed Jan 15 2025 10:52:05 GMT-0500 (Eastern Standard Time),530136.7000007629,A,d,I,d,740,3,750.0,529386.7000007629,9003,WL,C,7.0
4,13.666000127792358,learn,46333.99987220764,Wed Jan 15 2025 10:52:05 GMT-0500 (Eastern Standard Time),530420.2000007629,A,do,I,o,259,3,1033.5,529386.7000007629,9003,WL,C,7.0
4,13.850000143051147,learn,46149.99985694885,Wed Jan 15 2025 10:52:05 GMT-0500 (Eastern Standard Time),530603.5,A,doc,I,c,161,3,1216.7999992370605,529386.7000007629,9003,WL,C,7.0
4,14.266000032424927,learn,45733.99996757507,Wed Jan 15 2025 10:52:05 GMT-0500 (Eastern Standard Time),531020.2999992371,A,doct,I,t,400,3,1633.599998474121,529386.7000007629,9003,WL,C,7.0
4,14.64900016784668,learn,45350.99983215332,Wed Jan 15 2025 10:52:05 GMT-0500 (Eastern Standard Time),531403.2000007629,A,docto,I,o,361,3,2016.5,529386.7000007629,9003,WL,C,7.0
4,14.83299994468689,learn,45167.00005531311,Wed Jan 15 2025 10:52:05 GMT-0500 (Eastern Standard Time),531587.0,A,doctor,I,r,164,3,2200.2999992370605,529386.7000007629,9003,WL,C,7.0
4,15.133000135421753,learn,44866.99986457825,Wed Jan 15 2025 10:52:05 GMT-0500 (Eastern Standard Time),531886.5,A,doctorenter,I,enter,279,3,2499.7999992370605,529386.7000007629,9003,WL,C,7.0
4,15.633000135421753,learn,44366.99986457825,Wed Jan 15 2025 10:52:05 GMT-0500 (Eastern Standard Time),532386.8999996185,A,c,I,c,481,3,500.1000003814697,531886.7999992371,9003,WL,C,8.0
4,15.782999992370605,learn,44217.000007629395,Wed Jan 15 2025 10:52:05 GMT-0500 (Eastern Standard Time),532536.7000007629,A,ca,I,a,136,3,649.9000015258789,531886.7999992371,9003,WL,C,8.0
4,16.199000120162964,learn,43800.999879837036,Wed Jan 15 2025 10:52:05 GMT-0500 (Eastern Standard Time),532953.1000003815,A,cam,I,m,395,3,1066.3000011444092,531886.7999992371,9003,WL,C,8.0
4,16.499000072479248,learn,43500.99992752075,Wed Jan 15 2025 10:52:05 GMT-0500 (Eastern Standard Time),533253.2999992371,A,camp,I,p,277,3,1366.5,531886.7999992371,9003,WL,C,8.0
4,16.949000120162964,learn,43050.999879837036,Wed Jan 15 2025 10:52:05 GMT-0500 (Eastern Standard Time),533703.0,A,campenter,I,enter,439,3,1816.2000007629395,531886.7999992371,9003,WL,C,8.0
4,17.56599998474121,learn,42434.00001525879,Wed Jan 15 2025 10:52:05 GMT-0500 (Eastern Standard Time),534320.5,A,l,I,l,599,3,617.2000007629395,533703.2999992371,9003,WL,C,9.0
4,17.749000072479248,learn,42250.99992752075,Wed Jan 15 2025 10:52:05 GMT-0500 (Eastern Standard Time),534503.2000007629,A,le,I,e,171,3,799.9000015258789,533703.2999992371,9003,WL,C,9.0
4,18.0,learn,42000.0,Wed Jan 15 2025 10:52:05 GMT-0500 (Eastern Standard Time),534753.6000003815,A,let,I,t,231,3,1050.3000011444092,533703.2999992371,9003,WL,C,9.0
4,18.16600012779236,learn,41833.99987220764,Wed Jan 15 2025 10:52:05 GMT-0500 (Eastern Standard Time),534920.1000003815,A,lett,I,t,156,3,1216.8000011444092,533703.2999992371,9003,WL,C,9.0
4,18.41600012779236,learn,41583.99987220764,Wed Jan 15 2025 10:52:05 GMT-0500 (Eastern Standard Time),535170.2999992371,A,lette,I,e,227,3,1467.0,533703.2999992371,9003,WL,C,9.0
4,18.549999952316284,learn,41450.000047683716,Wed Jan 15 2025 10:52:05 GMT-0500 (Eastern Standard Time),535303.8999996185,A,letter,I,r,121,3,1600.6000003814697,533703.2999992371,9003,WL,C,9.0
4,18.881999969482422,learn,41118.00003051758,Wed Jan 15 2025 10:52:05 GMT-0500 (Eastern Standard Time),535636.2999992371,A,letterenter,I,enter,306,3,1933.0,533703.2999992371,9003,WL,C,9.0
4,19.716000080108643,learn,40283.99991989136,Wed Jan 15 2025 10:52:05 GMT-0500 (Eastern Standard Time),536470.2000007629,A,s,I,s,811,3,833.6000003814697,535636.6000003815,9003,WL,C,10.0
4,19.90000009536743,learn,40099.99990463257,Wed Jan 15 2025 10:52:05 GMT-0500 (Eastern Standard Time),536653.5,A,sh,I,h,166,3,1016.8999996185303,535636.6000003815,9003,WL,C,10.0
4,20.100000143051147,learn,39899.99985694885,Wed Jan 15 2025 10:52:05 GMT-0500 (Eastern Standard Time),536853.5,A,sho,I,o,174,3,1216.8999996185303,535636.6000003815,9003,WL,C,10.0
4,20.266000032424927,learn,39733.99996757507,Wed Jan 15 2025 10:52:05 GMT-0500 (Eastern Standard Time),537020.2999992371,A,shor,I,r,141,3,1383.6999988555908,535636.6000003815,9003,WL,C,10.0
4,20.466000080108643,learn,39533.99991989136,Wed Jan 15 2025 10:52:05 GMT-0500 (Eastern Standard Time),537220.2999992371,A,shore,I,e,177,3,1583.6999988555908,535636.6000003815,9003,WL,C,10.0
4,20.749000072479248,learn,39250.99992752075,Wed Jan 15 2025 10:52:05 GMT-0500 (Eastern Standard Time),537503.1000003815,A,shoreenter,I,enter,260,3,1866.5,535636.6000003815,9003,WL,C,10.0
4,21.633000135421753,learn,38366.99986457825,Wed Jan 15 2025 10:52:05 GMT-0500 (Eastern Standard Time),538387.1000003815,A,n,I,n,865,3,883.6000003814697,537503.5,9003,WL,C,11.0
4,21.799999952316284,learn,38200.000047683716,Wed Jan 15 2025 10:52:05 GMT-0500 (Eastern Standard Time),538553.5,A,na,I,a,153,3,1050.0,537503.5,9003,WL,C,11.0
4,22.08299994468689,learn,37917.00005531311,Wed Jan 15 2025 10:52:05 GMT-0500 (Eastern Standard Time),538837.0,A,nai,I,i,258,3,1333.5,537503.5,9003,WL,C,11.0
4,22.850000143051147,learn,37149.99985694885,Wed Jan 15 2025 10:52:05 GMT-0500 (Eastern Standard Time),539603.7000007629,A,nail,I,l,742,3,2100.2000007629395,537503.5,9003,WL,C,11.0
4,23.348999977111816,learn,36651.00002288818,Wed Jan 15 2025 10:52:05 GMT-0500 (Eastern Standard Time),540103.2000007629,A,nailenter,I,enter,489,3,2599.7000007629395,537503.5,9003,WL,C,11.0
4,24.716000080108643,learn,35283.99991989136,Wed Jan 15 2025 10:52:05 GMT-0500 (Eastern Standard Time),541470.3999996185,A,c,I,c,1352,3,1367.0,540103.3999996185,9003,WL,C,12.0
4,24.91600012779236,learn,35083.99987220764,Wed Jan 15 2025 10:52:05 GMT-0500 (Eastern Standard Time),541670.2999992371,A,co,I,o,172,3,1566.8999996185303,540103.3999996185,9003,WL,C,12.0
4,25.100000143051147,learn,34899.99985694885,Wed Jan 15 2025 10:52:05 GMT-0500 (Eastern Standard Time),541853.7000007629,A,cor,I,r,166,3,1750.3000011444092,540103.3999996185,9003,WL,C,12.0
4,25.366000175476074,learn,34633.999824523926,Wed Jan 15 2025 10:52:05 GMT-0500 (Eastern Standard Time),542120.2999992371,A,corm,I,m,229,3,2016.8999996185303,540103.3999996185,9003,WL,C,12.0
4,25.749000072479248,learn,34250.99992752075,Wed Jan 15 2025 10:52:05 GMT-0500 (Eastern Standard Time),542503.0,A,cormenter,I,enter,354,3,2399.6000003814697,540103.3999996185,9003,WL,C,12.0
4,26.91600012779236,learn,33083.99987220764,Wed Jan 15 2025 10:52:05 GMT-0500 (Eastern Standard Time),543670.2999992371,A,c,I,c,1144,3,1166.8999996185303,542503.3999996185,9003,WL,C,13.0
4,27.06599998474121,learn,32934.00001525879,Wed Jan 15 2025 10:52:05 GMT-0500 (Eastern Standard Time),543819.7999992371,A,co,I,o,134,3,1316.3999996185303,542503.3999996185,9003,WL,C,13.0
4,27.282999992370605,learn,32717.000007629395,Wed Jan 15 2025 10:52:05 GMT-0500 (Eastern Standard Time),544037.0,A,cor,I,r,194,3,1533.6000003814697,542503.3999996185,9003,WL,C,13.0
4,27.549999952316284,learn,32450.000047683716,Wed Jan 15 2025 10:52:05 GMT-0500 (Eastern Standard Time),544304.0,A,corn,I,n,248,3,1800.6000003814697,542503.3999996185,9003,WL,C,13.0
4,27.866000175476074,learn,32133.999824523926,Wed Jan 15 2025 10:52:05 GMT-0500 (Eastern Standard Time),544619.8999996185,A,cornenter,I,enter,303,3,2116.5,542503.3999996185,9003,WL,C,13.0
4,28.56599998474121,learn,31434.00001525879,Wed Jan 15 2025 10:52:05 GMT-0500 (Eastern Standard Time),545320.3999996185,A,s,I,s,676,3,700.1999988555908,544620.2000007629,9003,WL,C,14.0
4,28.73300004005432,learn,31266.99995994568,Wed Jan 15 2025 10:52:05 GMT-0500 (Eastern Standard Time),545486.8999996185,A,sh,I,h,147,3,866.6999988555908,544620.2000007629,9003,WL,C,14.0
4,29.33299994468689,learn,30667.00005531311,Wed Jan 15 2025 10:52:05 GMT-0500 (Eastern Standard Time),546087.0,A,s,I,backspace,563,3,1466.7999992370605,544620.2000007629,9003,WL,C,14.0
4,29.532999992370605,learn,30467.000007629395,Wed Jan 15 2025 10:52:05 GMT-0500 (Eastern Standard Time),546287.1000003815,A,,I,backspace,181,3,1666.8999996185303,544620.2000007629,9003,WL,C,14.0
4,29.716000080108643,learn,30283.999919891357,Wed Jan 15 2025 10:52:05 GMT-0500 (Eastern Standard Time),546470.2000007629,A,,I,backspace,149,3,1850.0,544620.2000007629,9003,WL,C,14.0
4,30.5,learn,29500.0,Wed Jan 15 2025 10:52:05 GMT-0500 (Eastern Standard Time),547253.6000003815,A,b,I,b,759,3,2633.3999996185303,544620.2000007629,9003,WL,C,14.0
4,30.83299994468689,learn,29167.00005531311,Wed Jan 15 2025 10:52:05 GMT-0500 (Eastern Standard Time),547587.0,A,bo,I,o,311,3,2966.7999992370605,544620.2000007629,9003,WL,C,14.0
4,31.0,learn,29000.0,Wed Jan 15 2025 10:52:05 GMT-0500 (Eastern Standard Time),547753.5,A,bod,I,d,144,3,3133.2999992370605,544620.2000007629,9003,WL,C,14.0
4,31.282999992370605,learn,28717.000007629395,Wed Jan 15 2025 10:52:05 GMT-0500 (Eastern Standard Time),548037.0,A,body,I,y,257,3,3416.7999992370605,544620.2000007629,9003,WL,C,14.0
4,31.616000175476074,learn,28383.999824523926,Wed Jan 15 2025 10:52:05 GMT-0500 (Eastern Standard Time),548369.8999996185,A,bodyenter,I,enter,311,3,3749.699998855591,544620.2000007629,9003,WL,C,14.0
4,32.21600008010864,learn,27783.999919891357,Wed Jan 15 2025 10:52:05 GMT-0500 (Eastern Standard Time),548969.8999996185,A,h,I,h,589,3,599.7999992370605,548370.1000003815,9003,WL,C,15.0
4,32.450000047683716,learn,27549.999952316284,Wed Jan 15 2025 10:52:05 GMT-0500 (Eastern Standard Time),549203.6000003815,A,ho,I,o,214,3,833.5,548370.1000003815,9003,WL,C,15.0
4,32.66600012779236,learn,27333.99987220764,Wed Jan 15 2025 10:52:05 GMT-0500 (Eastern Standard Time),549420.2000007629,A,hom,I,m,200,3,1050.1000003814697,548370.1000003815,9003,WL,C,15.0
4,32.866000175476074,learn,27133.999824523926,Wed Jan 15 2025 10:52:05 GMT-0500 (Eastern Standard Time),549620.2999992371,A,home,I,e,175,3,1250.1999988555908,548370.1000003815,9003,WL,C,15.0
4,33.116000175476074,learn,26883.999824523926,Wed Jan 15 2025 10:52:05 GMT-0500 (Eastern Standard Time),549869.7999992371,A,homeenter,I,enter,229,3,1499.6999988555908,548370.1000003815,9003,WL,C,15.0
5,1.0339999198913574,learn,60000.0,Wed Jan 15 2025 10:52:05 GMT-0500 (Eastern Standard Time),618237.2000007629,A,t,I,t,1011,3,1033.400001525879,617203.7999992371,9003,WL,C,1.0
5,1.250999927520752,learn,60000.0,Wed Jan 15 2025 10:52:05 GMT-0500 (Eastern Standard Time),618454.0,A,to,I,o,190,3,1250.2000007629395,617203.7999992371,9003,WL,C,1.0
5,1.4509999752044678,learn,60000.0,Wed Jan 15 2025 10:52:05 GMT-0500 (Eastern Standard Time),618653.8999996185,A,tow,I,w,182,3,1450.1000003814697,617203.7999992371,9003,WL,C,1.0
5,1.6670000553131104,learn,60000.0,Wed Jan 15 2025 10:52:05 GMT-0500 (Eastern Standard Time),618870.3999996185,A,towe,I,e,182,3,1666.6000003814697,617203.7999992371,9003,WL,C,1.0
5,1.7839999198913574,learn,60000.0,Wed Jan 15 2025 10:52:05 GMT-0500 (Eastern Standard Time),618987.0,A,tower,I,r,102,3,1783.2000007629395,617203.7999992371,9003,WL,C,1.0
5,2.0999999046325684,learn,60000.0,Wed Jan 15 2025 10:52:05 GMT-0500 (Eastern Standard Time),619303.2000007629,A,towerenter,I,enter,279,3,2099.400001525879,617203.7999992371,9003,WL,C,1.0
5,3.3339998722076416,learn,60000.0,Wed Jan 15 2025 10:52:05 GMT-0500 (Eastern Standard Time),620536.7000007629,A,w,I,w,1225,3,1233.0,619303.7000007629,9003,WL,C,2.0
5,3.5839998722076416,learn,60000.0,Wed Jan 15 2025 10:52:05 GMT-0500 (Eastern Standard Time),620786.6000003815,A,wh,I,h,225,3,1482.8999996185303,619303.7000007629,9003,WL,C,2.0
5,3.7679998874664307,learn,60000.0,Wed Jan 15 2025 10:52:05 GMT-0500 (Eastern Standard Time),620970.3999996185,A,whe,I,e,169,3,1666.6999988555908,619303.7000007629,9003,WL,C,2.0
5,4.016999959945679,learn,60000.0,Wed Jan 15 2025 10:52:05 GMT-0500 (Eastern Standard Time),621220.2000007629,A,whes,I,s,217,3,1916.5,619303.7000007629,9003,WL,C,2.0
5,4.633999824523926,learn,60000.0,Wed Jan 15 2025 10:52:05 GMT-0500 (Eastern Standard Time),621836.7999992371,A,whe,I,backspace,599,3,2533.099998474121,619303.7000007629,9003,WL,C,2.0
5,5.017999887466431,learn,60000.0,Wed Jan 15 2025 10:52:05 GMT-0500 (Eastern Standard Time),622220.5,A,whet,I,t,365,3,2916.7999992370605,619303.7000007629,9003,WL,C,2.0
5,5.700999975204468,learn,60000.0,Wed Jan 15 2025 10:52:05 GMT-0500 (Eastern Standard Time),622903.6000003815,A,whe,I,backspace,654,3,3599.8999996185303,619303.7000007629,9003,WL,C,2.0
5,5.901000022888184,learn,60000.0,Wed Jan 15 2025 10:52:05 GMT-0500 (Eastern Standard Time),623103.6000003815,A,whea,I,a,181,3,3799.8999996185303,619303.7000007629,9003,WL,C,2.0
5,6.083999872207642,learn,60000.0,Wed Jan 15 2025 10:52:05 GMT-0500 (Eastern Standard Time),623287.1000003815,A,wheat,I,t,151,3,3983.3999996185303,619303.7000007629,9003,WL,C,2.0
5,6.41700005531311,learn,60000.0,Wed Jan 15 2025 10:52:05 GMT-0500 (Eastern Standard Time),623620.0,A,wheatenter,I,enter,308,3,4316.299999237061,619303.7000007629,9003,WL,C,2.0
5,7.200000047683716,learn,60000.0,Wed Jan 15 2025 10:52:05 GMT-0500 (Eastern Standard Time),624403.2999992371,A,q,I,q,763,3,783.0,623620.2999992371,9003,WL,C,3.0
5,7.401000022888184,learn,60000.0,Wed Jan 15 2025 10:52:05 GMT-0500 (Eastern Standard Time),624603.7000007629,A,qu,I,u,186,3,983.4000015258789,623620.2999992371,9003,WL,C,3.0
5,7.817999839782715,learn,60000.0,Wed Jan 15 2025 10:52:05 GMT-0500 (Eastern Standard Time),625020.3999996185,A,que,I,e,392,3,1400.1000003814697,623620.2999992371,9003,WL,C,3.0
5,7.983999967575073,learn,60000.0,Wed Jan 15 2025 10:52:05 GMT-0500 (Eastern Standard Time),625187.1000003815,A,quee,I,e,144,3,1566.8000011444092,623620.2999992371,9003,WL,C,3.0
5,8.133999824523926,learn,60000.0,Wed Jan 15 2025 10:52:05 GMT-0500 (Eastern Standard Time),625336.7000007629,A,queen,I,n,137,3,1716.400001525879,623620.2999992371,9003,WL,C,3.0
5,8.467000007629395,learn,60000.0,Wed Jan 15 2025 10:52:05 GMT-0500 (Eastern Standard Time),625669.8999996185,A,queenenter,I,enter,306,3,2049.6000003814697,623620.2999992371,9003,WL,C,3.0
5,8.91700005531311,learn,60000.0,Wed Jan 15 2025 10:52:05 GMT-0500 (Eastern Standard Time),626120.2999992371,A,s,I,s,442,3,450.0,625670.2999992371,9003,WL,C,4.0
5,9.167999982833862,learn,60000.0,Wed Jan 15 2025 10:52:05 GMT-0500 (Eastern Standard Time),626370.5,A,su,I,u,228,3,700.2000007629395,625670.2999992371,9003,WL,C,4.0
5,9.366999864578247,learn,60000.0,Wed Jan 15 2025 10:52:05 GMT-0500 (Eastern Standard Time),626570.3999996185,A,sug,I,g,184,3,900.1000003814697,625670.2999992371,9003,WL,C,4.0
5,9.583999872207642,learn,60000.0,Wed Jan 15 2025 10:52:05 GMT-0500 (Eastern Standard Time),626787.1000003815,A,suga,I,a,194,3,1116.8000011444092,625670.2999992371,9003,WL,C,4.0
5,9.75,learn,60000.0,Wed Jan 15 2025 10:52:05 GMT-0500 (Eastern Standard Time),626953.2000007629,A,sugar,I,r,153,3,1282.900001525879,625670.2999992371,9003,WL,C,4.0
5,10.16700005531311,learn,60000.0,Wed Jan 15 2025 10:52:05 GMT-0500 (Eastern Standard Time),627369.7999992371,A,sugarenter,I,enter,406,3,1699.5,625670.2999992371,9003,WL,C,4.0
5,11.799999952316284,learn,60000.0,Wed Jan 15 2025 10:52:05 GMT-0500 (Eastern Standard Time),629002.8999996185,A,h,I,h,1620,3,1632.6999988555908,627370.2000007629,9003,WL,C,5.0
5,12.033999919891357,learn,60000.0,Wed Jan 15 2025 10:52:05 GMT-0500 (Eastern Standard Time),629236.8999996185,A,ho,I,o,212,3,1866.6999988555908,627370.2000007629,9003,WL,C,5.0
5,12.316999912261963,learn,60000.0,Wed Jan 15 2025 10:52:05 GMT-0500 (Eastern Standard Time),629519.6000003815,A,hom,I,m,255,3,2149.3999996185303,627370.2000007629,9003,WL,C,5.0
5,12.566999912261963,learn,60000.0,Wed Jan 15 2025 10:52:05 GMT-0500 (Eastern Standard Time),629770.3999996185,A,home,I,e,240,3,2400.199998855591,627370.2000007629,9003,WL,C,5.0
5,12.883999824523926,learn,60000.0,Wed Jan 15 2025 10:52:05 GMT-0500 (Eastern Standard Time),630086.5,A,homeenter,I,enter,290,3,2716.2999992370605,627370.2000007629,9003,WL,C,5.0
5,13.583999872207642,learn,60000.0,Wed Jan 15 2025 10:52:05 GMT-0500 (Eastern Standard Time),630787.0,A,b,I,b,681,3,700.1000003814697,630086.8999996185,9003,WL,C,6.0
5,13.783999919891357,learn,60000.0,Wed Jan 15 2025 10:52:05 GMT-0500 (Eastern Standard Time),630987.2000007629,A,bo,I,o,186,3,900.3000011444092,630086.8999996185,9003,WL,C,6.0
5,14.033999919891357,learn,60000.0,Wed Jan 15 2025 10:52:05 GMT-0500 (Eastern Standard Time),631237.0,A,boy,I,y,215,3,1150.1000003814697,630086.8999996185,9003,WL,C,6.0
5,14.816999912261963,learn,60000.0,Wed Jan 15 2025 10:52:05 GMT-0500 (Eastern Standard Time),632019.8999996185,A,boyenter,I,enter,759,3,1933.0,630086.8999996185,9003,WL,C,6.0
5,15.41700005531311,learn,60000.0,Wed Jan 15 2025 10:52:05 GMT-0500 (Eastern Standard Time),632620.1000003815,A,d,I,d,588,3,599.8999996185303,632020.2000007629,9003,WL,C,7.0
5,15.633999824523926,learn,60000.0,Wed Jan 15 2025 10:52:05 GMT-0500 (Eastern Standard Time),632837.1000003815,A,do,I,o,194,3,816.8999996185303,632020.2000007629,9003,WL,C,7.0
5,15.783999919891357,learn,60000.0,Wed Jan 15 2025 10:52:05 GMT-0500 (Eastern Standard Time),632987.0,A,doc,I,c,136,3,966.7999992370605,632020.2000007629,9003,WL,C,7.0
5,16.10099983215332,learn,60000.0,Wed Jan 15 2025 10:52:05 GMT-0500 (Eastern Standard Time),633304.0,A,doct,I,t,283,3,1283.7999992370605,632020.2000007629,9003,WL,C,7.0
5,16.283999919891357,learn,60000.0,Wed Jan 15 2025 10:52:05 GMT-0500 (Eastern Standard Time),633487.1000003815,A,docto,I,o,157,3,1466.8999996185303,632020.2000007629,9003,WL,C,7.0
5,16.450999975204468,learn,60000.0,Wed Jan 15 2025 10:52:05 GMT-0500 (Eastern Standard Time),633653.5,A,doctor,I,r,141,3,1633.2999992370605,632020.2000007629,9003,WL,C,7.0
5,16.75,learn,60000.0,Wed Jan 15 2025 10:52:05 GMT-0500 (Eastern Standard Time),633953.2999992371,A,doctorenter,I,enter,278,3,1933.099998474121,632020.2000007629,9003,WL,C,7.0
5,18.616999864578247,learn,60000.0,Wed Jan 15 2025 10:52:05 GMT-0500 (Eastern Standard Time),635820.2000007629,A,c,I,c,1853,3,1866.5,633953.7000007629,9003,WL,C,8.0
5,18.883999824523926,learn,60000.0,Wed Jan 15 2025 10:52:05 GMT-0500 (Eastern Standard Time),636087.0,A,co,I,o,239,3,2133.2999992370605,633953.7000007629,9003,WL,C,8.0
5,19.049999952316284,learn,60000.0,Wed Jan 15 2025 10:52:05 GMT-0500 (Eastern Standard Time),636253.2999992371,A,cor,I,r,149,3,2299.599998474121,633953.7000007629,9003,WL,C,8.0
5,19.300999879837036,learn,60000.0,Wed Jan 15 2025 10:52:05 GMT-0500 (Eastern Standard Time),636503.6000003815,A,corn,I,n,226,3,2549.8999996185303,633953.7000007629,9003,WL,C,8.0
5,19.782999992370605,learn,60000.0,Wed Jan 15 2025 10:52:05 GMT-0500 (Eastern Standard Time),636986.3999996185,A,cornenter,I,enter,468,3,3032.699998855591,633953.7000007629,9003,WL,C,8.0
5,22.116999864578247,learn,60000.0,Wed Jan 15 2025 10:52:05 GMT-0500 (Eastern Standard Time),639320.3999996185,A,n,I,n,2309,3,2333.7999992370605,636986.6000003815,9003,WL,C,9.0
5,22.33399987220764,learn,60000.0,Wed Jan 15 2025 10:52:05 GMT-0500 (Eastern Standard Time),639537.2000007629,A,na,I,a,196,3,2550.6000003814697,636986.6000003815,9003,WL,C,9.0
5,22.450999975204468,learn,60000.0,Wed Jan 15 2025 10:52:05 GMT-0500 (Eastern Standard Time),639653.7000007629,A,nai,I,i,90,3,2667.1000003814697,636986.6000003815,9003,WL,C,9.0
5,22.700000047683716,learn,60000.0,Wed Jan 15 2025 10:52:05 GMT-0500 (Eastern Standard Time),639903.1000003815,A,nail,I,l,229,3,2916.5,636986.6000003815,9003,WL,C,9.0
5,22.983999967575073,learn,60000.0,Wed Jan 15 2025 10:52:05 GMT-0500 (Eastern Standard Time),640186.6000003815,A,nailenter,I,enter,270,3,3200.0,636986.6000003815,9003,WL,C,9.0
5,24.01799988746643,learn,60000.0,Wed Jan 15 2025 10:52:05 GMT-0500 (Eastern Standard Time),641220.5,A,c,I,c,1013,3,1033.6000003814697,640186.8999996185,9003,WL,C,10.0
5,24.233999967575073,learn,60000.0,Wed Jan 15 2025 10:52:05 GMT-0500 (Eastern Standard Time),641436.6000003815,A,ca,I,a,200,3,1249.7000007629395,640186.8999996185,9003,WL,C,10.0
5,24.467000007629395,learn,60000.0,Wed Jan 15 2025 10:52:05 GMT-0500 (Eastern Standard Time),641670.2000007629,A,cat,I,t,209,3,1483.3000011444092,640186.8999996185,9003,WL,C,10.0
5,24.618000030517578,learn,60000.0,Wed Jan 15 2025 10:52:05 GMT-0500 (Eastern Standard Time),641820.3999996185,A,catt,I,t,134,3,1633.5,640186.8999996185,9003,WL,C,10.0
5,24.783999919891357,learn,60000.0,Wed Jan 15 2025 10:52:05 GMT-0500 (Eastern Standard Time),641986.8999996185,A,cattl,I,l,145,3,1800.0,640186.8999996185,9003,WL,C,10.0
5,24.91700005531311,learn,60000.0,Wed Jan 15 2025 10:52:05 GMT-0500 (Eastern Standard Time),642120.2000007629,A,cattle,I,e,122,3,1933.3000011444092,640186.8999996185,9003,WL,C,10.0
5,25.18400001525879,learn,60000.0,Wed Jan 15 2025 10:52:05 GMT-0500 (Eastern Standard Time),642386.6000003815,A,cattleenter,I,enter,235,3,2199.7000007629395,640186.8999996185,9003,WL,C,10.0
5,25.651000022888184,learn,60000.0,Wed Jan 15 2025 10:52:05 GMT-0500 (Eastern Standard Time),642853.7000007629,A,s,I,s,444,3,466.9000015258789,642386.7999992371,9003,WL,C,11.0
5,25.85099983215332,learn,60000.0,Wed Jan 15 2025 10:52:05 GMT-0500 (Eastern Standard Time),643053.7000007629,A,sh,I,h,183,3,666.9000015258789,642386.7999992371,9003,WL,C,11.0
5,26.116999864578247,learn,60000.0,Wed Jan 15 2025 10:52:05 GMT-0500 (Eastern Standard Time),643320.3999996185,A,sho,I,o,231,3,933.6000003814697,642386.7999992371,9003,WL,C,11.0
5,26.250999927520752,learn,60000.0,Wed Jan 15 2025 10:52:05 GMT-0500 (Eastern Standard Time),643453.7999992371,A,shor,I,r,117,3,1067.0,642386.7999992371,9003,WL,C,11.0
5,26.483999967575073,learn,60000.0,Wed Jan 15 2025 10:52:05 GMT-0500 (Eastern Standard Time),643687.1000003815,A,shore,I,e,197,3,1300.3000011444092,642386.7999992371,9003,WL,C,11.0
5,26.700000047683716,learn,60000.0,Wed Jan 15 2025 10:52:05 GMT-0500 (Eastern Standard Time),643903.2999992371,A,shoreenter,I,enter,195,3,1516.5,642386.7999992371,9003,WL,C,11.0
5,27.250999927520752,learn,60000.0,Wed Jan 15 2025 10:52:05 GMT-0500 (Eastern Standard Time),644453.7000007629,A,b,I,b,527,3,550.1000003814697,643903.6000003815,9003,WL,C,12.0
5,27.41700005531311,learn,60000.0,Wed Jan 15 2025 10:52:05 GMT-0500 (Eastern Standard Time),644620.2000007629,A,bo,I,o,148,3,716.6000003814697,643903.6000003815,9003,WL,C,12.0
5,27.618000030517578,learn,60000.0,Wed Jan 15 2025 10:52:05 GMT-0500 (Eastern Standard Time),644820.5,A,bod,I,d,168,3,916.8999996185303,643903.6000003815,9003,WL,C,12.0
5,27.800999879837036,learn,60000.0,Wed Jan 15 2025 10:52:05 GMT-0500 (Eastern Standard Time),645003.6000003815,A,body,I,y,167,3,1100.0,643903.6000003815,9003,WL,C,12.0
5,28.200000047683716,learn,60000.0,Wed Jan 15 2025 10:52:05 GMT-0500 (Eastern Standard Time),645403.2000007629,A,bodyenter,I,enter,384,3,1499.6000003814697,643903.6000003815,9003,WL,C,12.0
5,31.549999952316284,learn,60000.0,Wed Jan 15 2025 10:52:05 GMT-0500 (Eastern Standard Time),648753.2999992371,A,f,I,f,3332,3,3349.699998855591,645403.6000003815,9003,WL,C,13.0
5,31.717000007629395,learn,60000.0,Wed Jan 15 2025 10:52:05 GMT-0500 (Eastern Standard Time),648920.2000007629,A,fl,I,l,155,3,3516.6000003814697,645403.6000003815,9003,WL,C,13.0
5,31.901000022888184,learn,60000.0,Wed Jan 15 2025 10:52:05 GMT-0500 (Eastern Standard Time),649103.6000003815,A,fla,I,a,164,3,3700.0,645403.6000003815,9003,WL,C,13.0
5,32.10099983215332,learn,60000.0,Wed Jan 15 2025 10:52:05 GMT-0500 (Eastern Standard Time),649303.7999992371,A,flag,I,g,165,3,3900.199998855591,645403.6000003815,9003,WL,C,13.0
5,32.43400001525879,learn,60000.0,Wed Jan 15 2025 10:52:05 GMT-0500 (Eastern Standard Time),649636.7000007629,A,flagenter,I,enter,308,3,4233.10000038147,645403.6000003815,9003,WL,C,13.0
5,34.75099992752075,learn,60000.0,Wed Jan 15 2025 10:52:05 GMT-0500 (Eastern Standard Time),651953.8999996185,A,s,I,s,2299,3,2316.8999996185303,649637.0,9003,WL,C,14.0
5,34.91700005531311,learn,60000.0,Wed Jan 15 2025 10:52:05 GMT-0500 (Eastern Standard Time),652120.2000007629,A,sh,I,h,146,3,2483.2000007629395,649637.0,9003,WL,C,14.0
5,35.067999839782715,learn,60000.0,Wed Jan 15 2025 10:52:05 GMT-0500 (Eastern Standard Time),652270.7999992371,A,sho,I,o,131,3,2633.7999992370605,649637.0,9003,WL,C,14.0
5,35.26799988746643,learn,60000.0,Wed Jan 15 2025 10:52:05 GMT-0500 (Eastern Standard Time),652470.5,A,shor,I,r,176,3,2833.5,649637.0,9003,WL,C,14.0
5,35.41700005531311,learn,60000.0,Wed Jan 15 2025 10:52:05 GMT-0500 (Eastern Standard Time),652620.3999996185,A,shore,I,e,134,3,2983.3999996185303,649637.0,9003,WL,C,14.0
5,35.64999985694885,learn,60000.0,Wed Jan 15 2025 10:52:05 GMT-0500 (Eastern Standard Time),652853.2999992371,A,shoreenter,I,enter,206,3,3216.2999992370605,649637.0,9003,WL,C,14.0
5,42.61699986457825,learn,60000.0,Wed Jan 15 2025 10:52:05 GMT-0500 (Eastern Standard Time),659820.3999996185,A,b,I,b,6954,3,6966.89999961853,652853.5,9003,WL,C,15.0
5,42.85099983215332,learn,60000.0,Wed Jan 15 2025 10:52:05 GMT-0500 (Eastern Standard Time),660053.5,A,bo,I,o,206,3,7200.0,652853.5,9003,WL,C,15.0
5,43.10099983215332,learn,60000.0,Wed Jan 15 2025 10:52:05 GMT-0500 (Eastern Standard Time),660304.1000003815,A,boy,I,y,233,3,7450.60000038147,652853.5,9003,WL,C,15.0
5,43.467000007629395,learn,60000.0,Wed Jan 15 2025 10:52:05 GMT-0500 (Eastern Standard Time),660669.8999996185,A,boyenter,I,enter,348,3,7816.39999961853,652853.5,9003,WL,C,15.0
6,0.9839999675750732,distr,59016.00003242493,Wed Jan 15 2025 10:52:05 GMT-0500 (Eastern Standard Time),738220.7999992371,B,t,I,t,969,3,983.1999988555908,737237.6000003815,9003,WL,C,1.0
6,1.25,distr,58750.0,Wed Jan 15 2025 10:52:05 GMT-0500 (Eastern Standard Time),738487.2000007629,B,to,I,o,239,3,1249.6000003814697,737237.6000003815,9003,WL,C,1.0
6,1.5169999599456787,distr,58483.00004005432,Wed Jan 15 2025 10:52:05 GMT-0500 (Eastern Standard Time),738753.8999996185,B,too,I,o,244,3,1516.2999992370605,737237.6000003815,9003,WL,C,1.0
6,2.0169999599456787,distr,57983.00004005432,Wed Jan 15 2025 10:52:05 GMT-0500 (Eastern Standard Time),739254.0,B,tool,I,l,474,3,2016.3999996185303,737237.6000003815,9003,WL,C,1.0
6,2.633000135421753,distr,57366.99986457825,Wed Jan 15 2025 10:52:05 GMT-0500 (Eastern Standard Time),739870.0,B,toolenter,I,enter,598,3,2632.3999996185303,737237.6000003815,9003,WL,C,1.0
6,3.316999912261963,distr,56683.00008773804,Wed Jan 15 2025 10:52:05 GMT-0500 (Eastern Standard Time),740553.7000007629,B,m,I,m,673,3,683.3000011444092,739870.3999996185,9003,WL,C,2.0
6,3.8499999046325684,distr,56150.00009536743,Wed Jan 15 2025 10:52:05 GMT-0500 (Eastern Standard Time),741087.2000007629,B,mo,I,o,514,3,1216.8000011444092,739870.3999996185,9003,WL,C,2.0
6,4.099999904632568,distr,55900.00009536743,Wed Jan 15 2025 10:52:05 GMT-0500 (Eastern Standard Time),741336.8999996185,B,mon,I,n,237,3,1466.5,739870.3999996185,9003,WL,C,2.0
6,4.349999904632568,distr,55650.00009536743,Wed Jan 15 2025 10:52:05 GMT-0500 (Eastern Standard Time),741587.1000003815,B,mone,I,e,218,3,1716.7000007629395,739870.3999996185,9003,WL,C,2.0
6,4.483000040054321,distr,55516.99995994568,Wed Jan 15 2025 10:52:05 GMT-0500 (Eastern Standard Time),741719.8999996185,B,money,I,y,119,3,1849.5,739870.3999996185,9003,WL,C,2.0
6,4.934000015258789,distr,55065.99998474121,Wed Jan 15 2025 10:52:05 GMT-0500 (Eastern Standard Time),742170.8999996185,B,moneyenter,I,enter,438,3,2300.5,739870.3999996185,9003,WL,C,2.0
6,5.884000062942505,distr,54115.999937057495,Wed Jan 15 2025 10:52:05 GMT-0500 (Eastern Standard Time),743120.5,B,p,I,p,933,3,949.2999992370605,742171.2000007629,9003,WL,C,3.0
6,6.099999904632568,distr,53900.00009536743,Wed Jan 15 2025 10:52:05 GMT-0500 (Eastern Standard Time),743336.8999996185,B,pl,I,l,204,3,1165.6999988555908,742171.2000007629,9003,WL,C,3.0
6,6.266999959945679,distr,53733.00004005432,Wed Jan 15 2025 10:52:05 GMT-0500 (Eastern Standard Time),743503.7999992371,B,pla,I,a,139,3,1332.599998474121,742171.2000007629,9003,WL,C,3.0
6,6.41700005531311,distr,53582.99994468689,Wed Jan 15 2025 10:52:05 GMT-0500 (Eastern Standard Time),743653.7999992371,B,plan,I,n,125,3,1482.599998474121,742171.2000007629,9003,WL,C,3.0
6,6.75,distr,53250.0,Wed Jan 15 2025 10:52:05 GMT-0500 (Eastern Standard Time),743987.2999992371,B,plant,I,t,312,3,1816.099998474121,742171.2000007629,9003,WL,C,3.0
6,7.0,distr,53000.0,Wed Jan 15 2025 10:52:05 GMT-0500 (Eastern Standard Time),744236.7000007629,B,plantenter,I,enter,230,3,2065.5,742171.2000007629,9003,WL,C,3.0
6,7.867000102996826,distr,52132.999897003174,Wed Jan 15 2025 10:52:05 GMT-0500 (Eastern Standard Time),745103.7999992371,B,m,I,m,851,3,866.6999988555908,744237.1000003815,9003,WL,C,4.0
6,8.08299994468689,distr,51917.00005531311,Wed Jan 15 2025 10:52:05 GMT-0500 (Eastern Standard Time),745319.7999992371,B,mo,I,o,205,3,1082.6999988555908,744237.1000003815,9003,WL,C,4.0
6,8.25,distr,51750.0,Wed Jan 15 2025 10:52:05 GMT-0500 (Eastern Standard Time),745487.2999992371,B,mot,I,t,151,3,1250.1999988555908,744237.1000003815,9003,WL,C,4.0
6,8.384000062942505,distr,51615.999937057495,Wed Jan 15 2025 10:52:05 GMT-0500 (Eastern Standard Time),745620.5,B,moth,I,h,109,3,1383.3999996185303,744237.1000003815,9003,WL,C,4.0
6,8.5,distr,51500.0,Wed Jan 15 2025 10:52:05 GMT-0500 (Eastern Standard Time),745736.7999992371,B,mothe,I,e,103,3,1499.6999988555908,744237.1000003815,9003,WL,C,4.0
6,8.617000102996826,distr,51382.999897003174,Wed Jan 15 2025 10:52:05 GMT-0500 (Eastern Standard Time),745853.7999992371,B,mother,I,r,98,3,1616.6999988555908,744237.1000003815,9003,WL,C,4.0
6,8.884000062942505,distr,51115.999937057495,Wed Jan 15 2025 10:52:05 GMT-0500 (Eastern Standard Time),746121.1000003815,B,motherenter,I,enter,255,3,1884.0,744237.1000003815,9003,WL,C,4.0
6,10.08400011062622,distr,49915.99988937378,Wed Jan 15 2025 10:52:05 GMT-0500 (Eastern Standard Time),747320.5,B,s,I,s,1175,3,1199.1000003814697,746121.3999996185,9003,WL,C,5.0
6,10.58400011062622,distr,49415.99988937378,Wed Jan 15 2025 10:52:05 GMT-0500 (Eastern Standard Time),747820.7000007629,B,sk,I,k,483,3,1699.3000011444092,746121.3999996185,9003,WL,C,5.0
6,10.883000135421753,distr,49116.99986457825,Wed Jan 15 2025 10:52:05 GMT-0500 (Eastern Standard Time),748120.3999996185,B,sky,I,y,288,3,1999.0,746121.3999996185,9003,WL,C,5.0
6,11.200000047683716,distr,48799.999952316284,Wed Jan 15 2025 10:52:05 GMT-0500 (Eastern Standard Time),748436.6000003815,B,skyenter,I,enter,292,3,2315.2000007629395,746121.3999996185,9003,WL,C,5.0
6,11.83400011062622,distr,48165.99988937378,Wed Jan 15 2025 10:52:05 GMT-0500 (Eastern Standard Time),749070.5,B,v,I,v,618,3,633.6000003814697,748436.8999996185,9003,WL,C,6.0
6,12.08299994468689,distr,47917.00005531311,Wed Jan 15 2025 10:52:05 GMT-0500 (Eastern Standard Time),749319.7999992371,B,va,I,a,229,3,882.8999996185303,748436.8999996185,9003,WL,C,6.0
6,12.183000087738037,distr,47816.99991226196,Wed Jan 15 2025 10:52:05 GMT-0500 (Eastern Standard Time),749419.8999996185,B,val,I,l,85,3,983.0,748436.8999996185,9003,WL,C,6.0
6,12.383000135421753,distr,47616.99986457825,Wed Jan 15 2025 10:52:05 GMT-0500 (Eastern Standard Time),749620.3999996185,B,vall,I,l,180,3,1183.5,748436.8999996185,9003,WL,C,6.0
6,12.650000095367432,distr,47349.99990463257,Wed Jan 15 2025 10:52:05 GMT-0500 (Eastern Standard Time),749887.2000007629,B,valle,I,e,248,3,1450.3000011444092,748436.8999996185,9003,WL,C,6.0
6,13.58400011062622,distr,46415.99988937378,Wed Jan 15 2025 10:52:05 GMT-0500 (Eastern Standard Time),750820.5,B,vall,I,backspace,908,3,2383.6000003814697,748436.8999996185,9003,WL,C,6.0
6,13.934000015258789,distr,46065.99998474121,Wed Jan 15 2025 10:52:05 GMT-0500 (Eastern Standard Time),751170.6000003815,B,vally,I,y,328,3,2733.7000007629395,748436.8999996185,9003,WL,C,6.0
6,14.316999912261963,distr,45683.00008773804,Wed Jan 15 2025 10:52:05 GMT-0500 (Eastern Standard Time),751553.3999996185,B,vallyenter,I,enter,361,3,3116.5,748436.8999996185,9003,WL,C,6.0
6,35.09999990463257,distr,24900.00009536743,Wed Jan 15 2025 10:52:05 GMT-0500 (Eastern Standard Time),772337.2999992371,B,h,I,h,20766,3,20783.59999847412,751553.7000007629,9003,WL,C,7.0
6,35.301000118255615,distr,24698.999881744385,Wed Jan 15 2025 10:52:05 GMT-0500 (Eastern Standard Time),772538.0,B,ho,I,o,188,3,20984.29999923706,751553.7000007629,9003,WL,C,7.0
6,35.58299994468689,distr,24417.00005531311,Wed Jan 15 2025 10:52:05 GMT-0500 (Eastern Standard Time),772820.2999992371,B,hot,I,t,252,3,21266.59999847412,751553.7000007629,9003,WL,C,7.0
6,35.799999952316284,distr,24200.000047683716,Wed Jan 15 2025 10:52:05 GMT-0500 (Eastern Standard Time),773037.3999996185,B,hote,I,e,201,3,21483.69999885559,751553.7000007629,9003,WL,C,7.0
6,36.0,distr,24000.0,Wed Jan 15 2025 10:52:05 GMT-0500 (Eastern Standard Time),773237.2999992371,B,hotel,I,l,167,3,21683.59999847412,751553.7000007629,9003,WL,C,7.0
6,36.33299994468689,distr,23667.00005531311,Wed Jan 15 2025 10:52:05 GMT-0500 (Eastern Standard Time),773570.1000003815,B,hotelenter,I,enter,310,3,22016.39999961853,751553.7000007629,9003,WL,C,7.0
6,60.01699995994568,distr,-16.99995994567871,Wed Jan 15 2025 10:52:05 GMT-0500 (Eastern Standard Time),797254.2000007629,B,None,I,None,23676,3,23683.80000114441,773570.3999996185,9003,WL,C,8.0
7,4.583999872207642,immed,55416.00012779236,Wed Jan 15 2025 10:52:05 GMT-0500 (Eastern Standard Time),810337.3999996185,A,b,I,b,4567,3,4583.799999237061,805753.6000003815,9003,WL,C,1.0
7,4.766999959945679,immed,55233.00004005432,Wed Jan 15 2025 10:52:05 GMT-0500 (Eastern Standard Time),810520.2000007629,A,bo,I,o,171,3,4766.60000038147,805753.6000003815,9003,WL,C,1.0
7,5.2170000076293945,immed,54782.999992370605,Wed Jan 15 2025 10:52:05 GMT-0500 (Eastern Standard Time),810970.2999992371,A,boy,I,y,436,3,5216.699998855591,805753.6000003815,9003,WL,C,1.0
7,5.568000078201294,immed,54431.999921798706,Wed Jan 15 2025 10:52:05 GMT-0500 (Eastern Standard Time),811321.1000003815,A,boyenter,I,enter,338,3,5567.5,805753.6000003815,9003,WL,C,1.0
7,6.618000030517578,immed,53381.99996948242,Wed Jan 15 2025 10:52:05 GMT-0500 (Eastern Standard Time),812370.7000007629,A,t,I,t,1031,3,1049.3000011444092,811321.3999996185,9003,WL,C,2.0
7,6.766999959945679,immed,53233.00004005432,Wed Jan 15 2025 10:52:05 GMT-0500 (Eastern Standard Time),812520.3999996185,A,to,I,o,120,3,1199.0,811321.3999996185,9003,WL,C,2.0
7,6.917999982833862,immed,53082.00001716614,Wed Jan 15 2025 10:52:05 GMT-0500 (Eastern Standard Time),812670.6000003815,A,tow,I,w,124,3,1349.2000007629395,811321.3999996185,9003,WL,C,2.0
7,7.101000070571899,immed,52898.9999294281,Wed Jan 15 2025 10:52:05 GMT-0500 (Eastern Standard Time),812853.8999996185,A,towe,I,e,158,3,1532.5,811321.3999996185,9003,WL,C,2.0
7,7.2170000076293945,immed,52782.999992370605,Wed Jan 15 2025 10:52:05 GMT-0500 (Eastern Standard Time),812970.2999992371,A,tower,I,r,94,3,1648.8999996185303,811321.3999996185,9003,WL,C,2.0
7,7.550999879837036,immed,52449.000120162964,Wed Jan 15 2025 10:52:05 GMT-0500 (Eastern Standard Time),813303.3999996185,A,towerenter,I,enter,304,3,1982.0,811321.3999996185,9003,WL,C,2.0
7,8.368000030517578,immed,51631.99996948242,Wed Jan 15 2025 10:52:05 GMT-0500 (Eastern Standard Time),814120.6000003815,A,w,I,w,808,3,816.8999996185303,813303.7000007629,9003,WL,C,3.0
7,8.618000030517578,immed,51381.99996948242,Wed Jan 15 2025 10:52:05 GMT-0500 (Eastern Standard Time),814370.7000007629,A,wh,I,h,229,3,1067.0,813303.7000007629,9003,WL,C,3.0
7,8.717999935150146,immed,51282.00006484985,Wed Jan 15 2025 10:52:05 GMT-0500 (Eastern Standard Time),814470.6000003815,A,whe,I,e,73,3,1166.8999996185303,813303.7000007629,9003,WL,C,3.0
7,8.8510000705719,immed,51148.9999294281,Wed Jan 15 2025 10:52:05 GMT-0500 (Eastern Standard Time),814603.7999992371,A,whea,I,a,118,3,1300.099998474121,813303.7000007629,9003,WL,C,3.0
7,9.000999927520752,immed,50999.00007247925,Wed Jan 15 2025 10:52:05 GMT-0500 (Eastern Standard Time),814754.1000003815,A,wheat,I,t,129,3,1450.3999996185303,813303.7000007629,9003,WL,C,3.0
7,9.233999967575073,immed,50766.00003242493,Wed Jan 15 2025 10:52:05 GMT-0500 (Eastern Standard Time),814986.7999992371,A,wheatenter,I,enter,208,3,1683.099998474121,813303.7000007629,9003,WL,C,3.0
7,10.384000062942505,immed,49615.999937057495,Wed Jan 15 2025 10:52:05 GMT-0500 (Eastern Standard Time),816136.7999992371,A,q,I,q,1141,3,1149.6999988555908,814987.1000003815,9003,WL,C,4.0
7,10.634000062942505,immed,49365.999937057495,Wed Jan 15 2025 10:52:05 GMT-0500 (Eastern Standard Time),816387.3999996185,A,qu,I,u,229,3,1400.2999992370605,814987.1000003815,9003,WL,C,4.0
7,10.833999872207642,immed,49166.00012779236,Wed Jan 15 2025 10:52:05 GMT-0500 (Eastern Standard Time),816586.7999992371,A,quu,I,u,182,3,1599.6999988555908,814987.1000003815,9003,WL,C,4.0
7,11.151000022888184,immed,48848.99997711182,Wed Jan 15 2025 10:52:05 GMT-0500 (Eastern Standard Time),816903.6000003815,A,quue,I,e,292,3,1916.5,814987.1000003815,9003,WL,C,4.0
7,11.26799988746643,immed,48732.00011253357,Wed Jan 15 2025 10:52:05 GMT-0500 (Eastern Standard Time),817020.7000007629,A,quuee,I,e,101,3,2033.6000003814697,814987.1000003815,9003,WL,C,4.0
7,11.568000078201294,immed,48431.999921798706,Wed Jan 15 2025 10:52:05 GMT-0500 (Eastern Standard Time),817320.5,A,quue,I,backspace,279,3,2333.3999996185303,814987.1000003815,9003,WL,C,4.0
7,11.750999927520752,immed,48249.00007247925,Wed Jan 15 2025 10:52:05 GMT-0500 (Eastern Standard Time),817503.8999996185,A,quu,I,backspace,164,3,2516.7999992370605,814987.1000003815,9003,WL,C,4.0
7,11.917999982833862,immed,48082.00001716614,Wed Jan 15 2025 10:52:05 GMT-0500 (Eastern Standard Time),817670.6000003815,A,qu,I,backspace,142,3,2683.5,814987.1000003815,9003,WL,C,4.0
7,12.1010000705719,immed,47898.9999294281,Wed Jan 15 2025 10:52:05 GMT-0500 (Eastern Standard Time),817853.7999992371,A,que,I,e,157,3,2866.699998855591,814987.1000003815,9003,WL,C,4.0
7,12.450999975204468,immed,47549.00002479553,Wed Jan 15 2025 10:52:05 GMT-0500 (Eastern Standard Time),818203.7999992371,A,quee,I,e,329,3,3216.699998855591,814987.1000003815,9003,WL,C,4.0
7,12.684000015258789,immed,47315.99998474121,Wed Jan 15 2025 10:52:05 GMT-0500 (Eastern Standard Time),818437.2999992371,A,queen,I,n,210,3,3450.199998855591,814987.1000003815,9003,WL,C,4.0
7,13.117000102996826,immed,46882.999897003174,Wed Jan 15 2025 10:52:05 GMT-0500 (Eastern Standard Time),818870.2000007629,A,queenenter,I,enter,407,3,3883.1000003814697,814987.1000003815,9003,WL,C,4.0
7,13.750999927520752,immed,46249.00007247925,Wed Jan 15 2025 10:52:05 GMT-0500 (Eastern Standard Time),819503.7999992371,A,s,I,s,617,3,633.2999992370605,818870.5,9003,WL,C,5.0
7,13.967999935150146,immed,46032.00006484985,Wed Jan 15 2025 10:52:05 GMT-0500 (Eastern Standard Time),819720.6000003815,A,su,I,u,187,3,850.1000003814697,818870.5,9003,WL,C,5.0
7,14.200999975204468,immed,45799.00002479553,Wed Jan 15 2025 10:52:05 GMT-0500 (Eastern Standard Time),819953.7999992371,A,sug,I,g,203,3,1083.2999992370605,818870.5,9003,WL,C,5.0
7,14.368000030517578,immed,45631.99996948242,Wed Jan 15 2025 10:52:05 GMT-0500 (Eastern Standard Time),820120.7000007629,A,suga,I,a,137,3,1250.2000007629395,818870.5,9003,WL,C,5.0
7,14.483999967575073,immed,45516.00003242493,Wed Jan 15 2025 10:52:05 GMT-0500 (Eastern Standard Time),820237.2000007629,A,sugar,I,r,91,3,1366.7000007629395,818870.5,9003,WL,C,5.0
7,14.76799988746643,immed,45232.00011253357,Wed Jan 15 2025 10:52:05 GMT-0500 (Eastern Standard Time),820521.2000007629,A,sugarenter,I,enter,263,3,1650.7000007629395,818870.5,9003,WL,C,5.0
7,15.384999990463257,immed,44615.00000953674,Wed Jan 15 2025 10:52:05 GMT-0500 (Eastern Standard Time),821137.3999996185,A,h,I,h,598,3,615.7999992370605,820521.6000003815,9003,WL,C,6.0
7,15.568000078201294,immed,44431.999921798706,Wed Jan 15 2025 10:52:05 GMT-0500 (Eastern Standard Time),821320.6000003815,A,ho,I,o,154,3,799.0,820521.6000003815,9003,WL,C,6.0
7,15.783999919891357,immed,44216.00008010864,Wed Jan 15 2025 10:52:05 GMT-0500 (Eastern Standard Time),821537.2999992371,A,hom,I,m,196,3,1015.6999988555908,820521.6000003815,9003,WL,C,6.0
7,15.983999967575073,immed,44016.00003242493,Wed Jan 15 2025 10:52:05 GMT-0500 (Eastern Standard Time),821736.7000007629,A,home,I,e,183,3,1215.1000003814697,820521.6000003815,9003,WL,C,6.0
7,16.300999879837036,immed,43699.000120162964,Wed Jan 15 2025 10:52:05 GMT-0500 (Eastern Standard Time),822053.5,A,homeenter,I,enter,294,3,1531.8999996185303,820521.6000003815,9003,WL,C,6.0
7,19.368000030517578,immed,40631.99996948242,Wed Jan 15 2025 10:52:05 GMT-0500 (Eastern Standard Time),825120.5,A,d,I,d,3050,3,3066.7000007629395,822053.7999992371,9003,WL,C,7.0
7,19.568000078201294,immed,40431.999921798706,Wed Jan 15 2025 10:52:05 GMT-0500 (Eastern Standard Time),825320.6000003815,A,do,I,o,188,3,3266.800001144409,822053.7999992371,9003,WL,C,7.0
7,19.733999967575073,immed,40266.00003242493,Wed Jan 15 2025 10:52:05 GMT-0500 (Eastern Standard Time),825487.3999996185,A,doc,I,c,149,3,3433.6000003814697,822053.7999992371,9003,WL,C,7.0
7,19.983999967575073,immed,40016.00003242493,Wed Jan 15 2025 10:52:05 GMT-0500 (Eastern Standard Time),825736.7999992371,A,doct,I,t,236,3,3683.0,822053.7999992371,9003,WL,C,7.0
7,20.117000102996826,immed,39882.999897003174,Wed Jan 15 2025 10:52:05 GMT-0500 (Eastern Standard Time),825870.2000007629,A,docto,I,o,116,3,3816.400001525879,822053.7999992371,9003,WL,C,7.0
7,20.283999919891357,immed,39716.00008010864,Wed Jan 15 2025 10:52:05 GMT-0500 (Eastern Standard Time),826037.2999992371,A,doctor,I,r,145,3,3983.5,822053.7999992371,9003,WL,C,7.0
7,20.618000030517578,immed,39381.99996948242,Wed Jan 15 2025 10:52:05 GMT-0500 (Eastern Standard Time),826371.0,A,doctorenter,I,enter,301,3,4317.200000762939,822053.7999992371,9003,WL,C,7.0
7,23.134000062942505,immed,36865.999937057495,Wed Jan 15 2025 10:52:05 GMT-0500 (Eastern Standard Time),828887.2999992371,A,l,I,l,2492,3,2516.0,826371.2999992371,9003,WL,C,8.0
7,23.300999879837036,immed,36699.000120162964,Wed Jan 15 2025 10:52:05 GMT-0500 (Eastern Standard Time),829054.1000003815,A,le,I,e,148,3,2682.800001144409,826371.2999992371,9003,WL,C,8.0
7,23.550999879837036,immed,36449.000120162964,Wed Jan 15 2025 10:52:05 GMT-0500 (Eastern Standard Time),829303.8999996185,A,let,I,t,213,3,2932.6000003814697,826371.2999992371,9003,WL,C,8.0
7,23.700999975204468,immed,36299.00002479553,Wed Jan 15 2025 10:52:05 GMT-0500 (Eastern Standard Time),829453.8999996185,A,lett,I,t,133,3,3082.6000003814697,826371.2999992371,9003,WL,C,8.0
7,23.93400001525879,immed,36065.99998474121,Wed Jan 15 2025 10:52:05 GMT-0500 (Eastern Standard Time),829687.2000007629,A,lette,I,e,199,3,3315.900001525879,826371.2999992371,9003,WL,C,8.0
7,24.050999879837036,immed,35949.000120162964,Wed Jan 15 2025 10:52:05 GMT-0500 (Eastern Standard Time),829803.8999996185,A,letter,I,r,101,3,3432.6000003814697,826371.2999992371,9003,WL,C,8.0
7,24.316999912261963,immed,35683.00008773804,Wed Jan 15 2025 10:52:05 GMT-0500 (Eastern Standard Time),830070.0,A,letterenter,I,enter,240,3,3698.7000007629395,826371.2999992371,9003,WL,C,8.0
7,24.750999927520752,immed,35249.00007247925,Wed Jan 15 2025 10:52:05 GMT-0500 (Eastern Standard Time),830503.7000007629,A,c,I,c,410,3,433.4000015258789,830070.2999992371,9003,WL,C,9.0
7,24.93400001525879,immed,35065.99998474121,Wed Jan 15 2025 10:52:05 GMT-0500 (Eastern Standard Time),830687.2000007629,A,ca,I,a,165,3,616.9000015258789,830070.2999992371,9003,WL,C,9.0
7,25.233999967575073,immed,34766.00003242493,Wed Jan 15 2025 10:52:05 GMT-0500 (Eastern Standard Time),830987.1000003815,A,cam,I,m,283,3,916.8000011444092,830070.2999992371,9003,WL,C,9.0
7,25.483999967575073,immed,34516.00003242493,Wed Jan 15 2025 10:52:05 GMT-0500 (Eastern Standard Time),831237.2000007629,A,camp,I,p,225,3,1166.900001525879,830070.2999992371,9003,WL,C,9.0
7,25.750999927520752,immed,34249.00007247925,Wed Jan 15 2025 10:52:05 GMT-0500 (Eastern Standard Time),831503.5,A,campenter,I,enter,247,3,1433.2000007629395,830070.2999992371,9003,WL,C,9.0
7,27.151000022888184,immed,32848.99997711182,Wed Jan 15 2025 10:52:05 GMT-0500 (Eastern Standard Time),832904.1000003815,A,l,I,l,1392,3,1400.3000011444092,831503.7999992371,9003,WL,C,10.0
7,27.367000102996826,immed,32632.999897003174,Wed Jan 15 2025 10:52:05 GMT-0500 (Eastern Standard Time),833120.0,A,le,I,e,197,3,1616.2000007629395,831503.7999992371,9003,WL,C,10.0
7,27.6010000705719,immed,32398.9999294281,Wed Jan 15 2025 10:52:05 GMT-0500 (Eastern Standard Time),833353.7999992371,A,let,I,t,223,3,1850.0,831503.7999992371,9003,WL,C,10.0
7,27.783999919891357,immed,32216.000080108643,Wed Jan 15 2025 10:52:05 GMT-0500 (Eastern Standard Time),833537.2999992371,A,lett,I,t,162,3,2033.5,831503.7999992371,9003,WL,C,10.0
7,27.950999975204468,immed,32049.000024795532,Wed Jan 15 2025 10:52:05 GMT-0500 (Eastern Standard Time),833703.8999996185,A,lette,I,e,140,3,2200.1000003814697,831503.7999992371,9003,WL,C,10.0
7,28.08399987220764,immed,31916.00012779236,Wed Jan 15 2025 10:52:05 GMT-0500 (Eastern Standard Time),833837.2999992371,A,letter,I,r,115,3,2333.5,831503.7999992371,9003,WL,C,10.0
7,28.3510000705719,immed,31648.9999294281,Wed Jan 15 2025 10:52:05 GMT-0500 (Eastern Standard Time),834103.3999996185,A,letterenter,I,enter,245,3,2599.6000003814697,831503.7999992371,9003,WL,C,10.0
7,33.66799998283386,immed,26332.000017166138,Wed Jan 15 2025 10:52:05 GMT-0500 (Eastern Standard Time),839420.5,A,f,I,f,5304,3,5316.799999237061,834103.7000007629,9003,WL,C,11.0
7,33.8510000705719,immed,26148.9999294281,Wed Jan 15 2025 10:52:05 GMT-0500 (Eastern Standard Time),839603.7000007629,A,fl,I,l,161,3,5500.0,834103.7000007629,9003,WL,C,11.0
7,34.00099992752075,immed,25999.000072479248,Wed Jan 15 2025 10:52:05 GMT-0500 (Eastern Standard Time),839753.7000007629,A,fla,I,a,140,3,5650.0,834103.7000007629,9003,WL,C,11.0
7,34.21799993515015,immed,25782.000064849854,Wed Jan 15 2025 10:52:05 GMT-0500 (Eastern Standard Time),839970.6000003815,A,flag,I,g,193,3,5866.89999961853,834103.7000007629,9003,WL,C,11.0
7,34.550999879837036,immed,25449.000120162964,Wed Jan 15 2025 10:52:05 GMT-0500 (Eastern Standard Time),840303.6000003815,A,flagenter,I,enter,313,3,6199.89999961853,834103.7000007629,9003,WL,C,11.0
7,38.63499999046326,immed,21365.000009536743,Wed Jan 15 2025 10:52:05 GMT-0500 (Eastern Standard Time),844387.5,A,n,I,n,4064,3,4083.5,840304.0,9003,WL,C,12.0
7,38.83399987220764,immed,21166.00012779236,Wed Jan 15 2025 10:52:05 GMT-0500 (Eastern Standard Time),844587.3999996185,A,na,I,a,183,3,4283.39999961853,840304.0,9003,WL,C,12.0
7,39.00099992752075,immed,20999.000072479248,Wed Jan 15 2025 10:52:05 GMT-0500 (Eastern Standard Time),844753.8999996185,A,nai,I,i,145,3,4449.89999961853,840304.0,9003,WL,C,12.0
7,39.217000007629395,immed,20782.999992370605,Wed Jan 15 2025 10:52:05 GMT-0500 (Eastern Standard Time),844970.2000007629,A,nail,I,l,199,3,4666.200000762939,840304.0,9003,WL,C,12.0
7,39.51699995994568,immed,20483.00004005432,Wed Jan 15 2025 10:52:05 GMT-0500 (Eastern Standard Time),845270.1000003815,A,nailenter,I,enter,277,3,4966.10000038147,840304.0,9003,WL,C,12.0
7,40.01799988746643,immed,19982.00011253357,Wed Jan 15 2025 10:52:05 GMT-0500 (Eastern Standard Time),845770.7000007629,A,c,I,c,490,3,500.20000076293945,845270.5,9003,WL,C,13.0
7,40.21799993515015,immed,19782.000064849854,Wed Jan 15 2025 10:52:05 GMT-0500 (Eastern Standard Time),845970.6000003815,A,co,I,o,177,3,700.1000003814697,845270.5,9003,WL,C,13.0
7,40.36800003051758,immed,19631.999969482422,Wed Jan 15 2025 10:52:05 GMT-0500 (Eastern Standard Time),846120.6000003815,A,cor,I,r,138,3,850.1000003814697,845270.5,9003,WL,C,13.0
7,40.6010000705719,immed,19398.9999294281,Wed Jan 15 2025 10:52:05 GMT-0500 (Eastern Standard Time),846353.8999996185,A,corn,I,n,203,3,1083.3999996185303,845270.5,9003,WL,C,13.0
7,40.91700005531311,immed,19082.99994468689,Wed Jan 15 2025 10:52:05 GMT-0500 (Eastern Standard Time),846670.1000003815,A,cornenter,I,enter,296,3,1399.6000003814697,845270.5,9003,WL,C,13.0
7,60.01799988746643,immed,-17.999887466430664,Wed Jan 15 2025 10:52:05 GMT-0500 (Eastern Standard Time),865770.7000007629,A,None,I,None,19091,3,19100.20000076294,846670.5,9003,WL,C,14.0
