block_c,block_dur,condition,countdown,datetime,endtime,list,multichar_response,project,response,response_time,session_number,start_end,starttime,subject_id,task,task_vers,trial
,,,,Tue Nov 12 2024 15:07:42 GMT-0500 (Eastern Standard Time),,,,I,space,14877,1,,,9003,WL,A,
prac,,0,,Tue Nov 12 2024 15:07:42 GMT-0500 (Eastern Standard Time),,NA,b,I,b,5654,1,,,9003,WL,A,1.0
prac,,0,,Tue Nov 12 2024 15:07:42 GMT-0500 (Eastern Standard Time),,NA,bo,I,o,421,1,,,9003,WL,A,1.0
prac,,0,,Tue Nov 12 2024 15:07:42 GMT-0500 (Eastern Standard Time),,NA,bos,I,s,193,1,,,9003,WL,A,1.0
prac,,0,,Tue Nov 12 2024 15:07:42 GMT-0500 (Eastern Standard Time),,NA,bost,I,t,290,1,,,9003,WL,A,1.0
prac,,0,,Tue Nov 12 2024 15:07:42 GMT-0500 (Eastern Standard Time),,NA,bos,I,backspace,1212,1,,,9003,WL,A,1.0
prac,,0,,Tue Nov 12 2024 15:07:42 GMT-0500 (Eastern Standard Time),,NA,bo,I,backspace,201,1,,,9003,WL,A,1.0
prac,,0,,Tue Nov 12 2024 15:07:42 GMT-0500 (Eastern Standard Time),,NA,b,I,backspace,132,1,,,9003,WL,A,1.0
prac,,0,,Tue Nov 12 2024 15:07:42 GMT-0500 (Eastern Standard Time),,NA,bo,I,o,656,1,,,9003,WL,A,1.0
prac,,0,,Tue Nov 12 2024 15:07:42 GMT-0500 (Eastern Standard Time),,NA,boo,I,o,160,1,,,9003,WL,A,1.0
prac,,0,,Tue Nov 12 2024 15:07:42 GMT-0500 (Eastern Standard Time),,NA,boos,I,s,186,1,,,9003,WL,A,1.0
prac,,0,,Tue Nov 12 2024 15:07:42 GMT-0500 (Eastern Standard Time),,NA,boost,I,t,339,1,,,9003,WL,A,1.0
prac,,0,,Tue Nov 12 2024 15:07:42 GMT-0500 (Eastern Standard Time),,NA,boostenter,I,enter,2327,1,,,9003,WL,A,1.0
1,1.9500000476837158,learn,58049.999952316284,Tue Nov 12 2024 15:07:42 GMT-0500 (Eastern Standard Time),148772.80000019073,A,b,I,b,1934,1,1949.3000001907349,146823.5,9003,WL,A,1.0
1,2.317000150680542,learn,57682.99984931946,Tue Nov 12 2024 15:07:42 GMT-0500 (Eastern Standard Time),149139.2000002861,A,bo,I,o,347,1,2315.7000002861023,146823.5,9003,WL,A,1.0
1,2.567000150680542,learn,57432.99984931946,Tue Nov 12 2024 15:07:42 GMT-0500 (Eastern Standard Time),149389.2000002861,A,boo,I,o,221,1,2565.7000002861023,146823.5,9003,WL,A,1.0
1,2.9830000400543213,learn,57016.99995994568,Tue Nov 12 2024 15:07:42 GMT-0500 (Eastern Standard Time),149805.59999990463,A,book,I,k,390,1,2982.0999999046326,146823.5,9003,WL,A,1.0
1,3.7330000400543213,learn,56266.99995994568,Tue Nov 12 2024 15:07:42 GMT-0500 (Eastern Standard Time),150555.2000002861,A,bookenter,I,enter,725,1,3731.7000002861023,146823.5,9003,WL,A,1.0
1,5.25,learn,54750.0,Tue Nov 12 2024 15:07:42 GMT-0500 (Eastern Standard Time),152072.40000009537,A,m,I,m,1498,1,1516.5999999046326,150555.80000019073,9003,WL,A,2.0
1,5.4670000076293945,learn,54532.999992370605,Tue Nov 12 2024 15:07:42 GMT-0500 (Eastern Standard Time),152289.09999990463,A,me,I,e,201,1,1733.2999997138977,150555.80000019073,9003,WL,A,2.0
1,5.650000095367432,learn,54349.99990463257,Tue Nov 12 2024 15:07:42 GMT-0500 (Eastern Standard Time),152472.2000002861,A,mea,I,a,154,1,1916.4000000953674,150555.80000019073,9003,WL,A,2.0
1,5.883000135421753,learn,54116.99986457825,Tue Nov 12 2024 15:07:42 GMT-0500 (Eastern Standard Time),152705.80000019073,A,mead,I,d,211,1,2150.0,150555.80000019073,9003,WL,A,2.0
1,6.133000135421753,learn,53866.99986457825,Tue Nov 12 2024 15:07:42 GMT-0500 (Eastern Standard Time),152955.7000002861,A,meado,I,o,216,1,2399.9000000953674,150555.80000019073,9003,WL,A,2.0
1,6.3500001430511475,learn,53649.99985694885,Tue Nov 12 2024 15:07:42 GMT-0500 (Eastern Standard Time),153172.09999990463,A,meadow,I,w,198,1,2616.2999997138977,150555.80000019073,9003,WL,A,2.0
1,6.916000127792358,learn,53083.99987220764,Tue Nov 12 2024 15:07:42 GMT-0500 (Eastern Standard Time),153738.5,A,meadowenter,I,enter,541,1,3182.699999809265,150555.80000019073,9003,WL,A,2.0
1,9.016000032424927,learn,50983.99996757507,Tue Nov 12 2024 15:07:42 GMT-0500 (Eastern Standard Time),155838.7000002861,A,a,I,a,2092,1,2099.7000002861023,153739.0,9003,WL,A,3.0
1,9.282999992370605,learn,50717.000007629395,Tue Nov 12 2024 15:07:42 GMT-0500 (Eastern Standard Time),156105.5,A,ap,I,p,246,1,2366.5,153739.0,9003,WL,A,3.0
1,9.467000007629395,learn,50532.999992370605,Tue Nov 12 2024 15:07:42 GMT-0500 (Eastern Standard Time),156288.80000019073,A,app,I,p,169,1,2549.800000190735,153739.0,9003,WL,A,3.0
1,9.700000047683716,learn,50299.999952316284,Tue Nov 12 2024 15:07:42 GMT-0500 (Eastern Standard Time),156522.30000019073,A,appl,I,l,212,1,2783.300000190735,153739.0,9003,WL,A,3.0
1,12.900000095367432,learn,47099.99990463257,Tue Nov 12 2024 15:07:42 GMT-0500 (Eastern Standard Time),159722.40000009537,A,apple,I,e,3169,1,5983.400000095367,153739.0,9003,WL,A,3.0
1,13.483000040054321,learn,46516.99995994568,Tue Nov 12 2024 15:07:42 GMT-0500 (Eastern Standard Time),160305.2000002861,A,appleenter,I,enter,566,1,6566.200000286102,153739.0,9003,WL,A,3.0
1,17.48300004005432,learn,42516.99995994568,Tue Nov 12 2024 15:07:42 GMT-0500 (Eastern Standard Time),164305.80000019073,A,b,I,b,3990,1,4000.0,160305.80000019073,9003,WL,A,4.0
1,17.716000080108643,learn,42283.99991989136,Tue Nov 12 2024 15:07:42 GMT-0500 (Eastern Standard Time),164538.5,A,bu,I,u,209,1,4232.699999809265,160305.80000019073,9003,WL,A,4.0
1,17.967000007629395,learn,42032.999992370605,Tue Nov 12 2024 15:07:42 GMT-0500 (Eastern Standard Time),164789.09999990463,A,but,I,t,234,1,4483.299999713898,160305.80000019073,9003,WL,A,4.0
1,18.133000135421753,learn,41866.99986457825,Tue Nov 12 2024 15:07:42 GMT-0500 (Eastern Standard Time),164955.7000002861,A,butt,I,t,141,1,4649.900000095367,160305.80000019073,9003,WL,A,4.0
1,18.282999992370605,learn,41717.000007629395,Tue Nov 12 2024 15:07:42 GMT-0500 (Eastern Standard Time),165105.59999990463,A,butto,I,o,128,1,4799.799999713898,160305.80000019073,9003,WL,A,4.0
1,18.532999992370605,learn,41467.000007629395,Tue Nov 12 2024 15:07:42 GMT-0500 (Eastern Standard Time),165355.7000002861,A,button,I,n,226,1,5049.900000095367,160305.80000019073,9003,WL,A,4.0
1,18.866000175476074,learn,41133.999824523926,Tue Nov 12 2024 15:07:42 GMT-0500 (Eastern Standard Time),165688.5,A,buttonenter,I,enter,303,1,5382.699999809265,160305.80000019073,9003,WL,A,4.0
1,22.850000143051147,learn,37149.99985694885,Tue Nov 12 2024 15:07:42 GMT-0500 (Eastern Standard Time),169671.90000009537,A,f,I,f,3965,1,3982.800000190735,165689.09999990463,9003,WL,A,5.0
1,23.067000150680542,learn,36932.99984931946,Tue Nov 12 2024 15:07:42 GMT-0500 (Eastern Standard Time),169888.90000009537,A,fi,I,i,208,1,4199.800000190735,165689.09999990463,9003,WL,A,5.0
1,23.267000198364258,learn,36732.99980163574,Tue Nov 12 2024 15:07:42 GMT-0500 (Eastern Standard Time),170089.2000002861,A,fin,I,n,174,1,4400.10000038147,165689.09999990463,9003,WL,A,5.0
1,23.450000047683716,learn,36549.999952316284,Tue Nov 12 2024 15:07:42 GMT-0500 (Eastern Standard Time),170272.30000019073,A,fing,I,g,171,1,4583.200000286102,165689.09999990463,9003,WL,A,5.0
1,23.65000009536743,learn,36349.99990463257,Tue Nov 12 2024 15:07:42 GMT-0500 (Eastern Standard Time),170472.40000009537,A,finge,I,e,170,1,4783.300000190735,165689.09999990463,9003,WL,A,5.0
1,23.81600022315979,learn,36183.99977684021,Tue Nov 12 2024 15:07:42 GMT-0500 (Eastern Standard Time),170638.7000002861,A,finger,I,r,154,1,4949.60000038147,165689.09999990463,9003,WL,A,5.0
1,24.100000143051147,learn,35899.99985694885,Tue Nov 12 2024 15:07:42 GMT-0500 (Eastern Standard Time),170921.90000009537,A,fingerenter,I,enter,260,1,5232.800000190735,165689.09999990463,9003,WL,A,5.0
1,25.966000080108643,learn,34033.99991989136,Tue Nov 12 2024 15:07:42 GMT-0500 (Eastern Standard Time),172788.40000009537,A,r,I,r,1852,1,1866.1999998092651,170922.2000002861,9003,WL,A,6.0
1,26.200000047683716,learn,33799.999952316284,Tue Nov 12 2024 15:07:42 GMT-0500 (Eastern Standard Time),173022.30000019073,A,ru,I,u,226,1,2100.0999999046326,170922.2000002861,9003,WL,A,6.0
1,26.450000047683716,learn,33549.999952316284,Tue Nov 12 2024 15:07:42 GMT-0500 (Eastern Standard Time),173272.59999990463,A,rug,I,g,230,1,2350.3999996185303,170922.2000002861,9003,WL,A,6.0
1,26.700000047683716,learn,33299.999952316284,Tue Nov 12 2024 15:07:42 GMT-0500 (Eastern Standard Time),173521.90000009537,A,rugenter,I,enter,235,1,2599.699999809265,170922.2000002861,9003,WL,A,6.0
1,34.23300004005432,learn,25766.99995994568,Tue Nov 12 2024 15:07:42 GMT-0500 (Eastern Standard Time),181055.2000002861,A,l,I,l,7524,1,7533.0,173522.2000002861,9003,WL,A,7.0
1,34.48400020599365,learn,25515.999794006348,Tue Nov 12 2024 15:07:42 GMT-0500 (Eastern Standard Time),181306.0,A,lo,I,o,231,1,7783.799999713898,173522.2000002861,9003,WL,A,7.0
1,34.65000009536743,learn,25349.99990463257,Tue Nov 12 2024 15:07:42 GMT-0500 (Eastern Standard Time),181472.2000002861,A,log,I,g,155,1,7950.0,173522.2000002861,9003,WL,A,7.0
1,34.91600012779236,learn,25083.99987220764,Tue Nov 12 2024 15:07:42 GMT-0500 (Eastern Standard Time),181738.5,A,logenter,I,enter,243,1,8216.299999713898,173522.2000002861,9003,WL,A,7.0
1,35.717000007629395,learn,24282.999992370605,Tue Nov 12 2024 15:07:42 GMT-0500 (Eastern Standard Time),182539.09999990463,A,k,I,k,780,1,800.1999998092651,181738.90000009537,9003,WL,A,8.0
1,35.88300013542175,learn,24116.999864578247,Tue Nov 12 2024 15:07:42 GMT-0500 (Eastern Standard Time),182705.59999990463,A,ke,I,e,153,1,966.6999998092651,181738.90000009537,9003,WL,A,8.0
1,36.13300013542175,learn,23866.999864578247,Tue Nov 12 2024 15:07:42 GMT-0500 (Eastern Standard Time),182955.5,A,key,I,y,218,1,1216.5999999046326,181738.90000009537,9003,WL,A,8.0
1,36.450000047683716,learn,23549.999952316284,Tue Nov 12 2024 15:07:42 GMT-0500 (Eastern Standard Time),183271.90000009537,A,keyenter,I,enter,296,1,1533.0,181738.90000009537,9003,WL,A,8.0
1,60.01700019836426,learn,-17.000198364257812,Tue Nov 12 2024 15:07:42 GMT-0500 (Eastern Standard Time),206839.30000019073,A,None,I,None,23560,1,23567.0,183272.30000019073,9003,WL,A,9.0
2,1.4170000553131104,learn,58582.99994468689,Tue Nov 12 2024 15:07:42 GMT-0500 (Eastern Standard Time),285156.0,A,b,I,b,1402,1,1416.5999999046326,283739.40000009537,9003,WL,A,1.0
2,1.6990001201629639,learn,58300.999879837036,Tue Nov 12 2024 15:07:42 GMT-0500 (Eastern Standard Time),285438.59999990463,A,bo,I,o,271,1,1699.1999998092651,283739.40000009537,9003,WL,A,1.0
2,1.9000000953674316,learn,58099.99990463257,Tue Nov 12 2024 15:07:42 GMT-0500 (Eastern Standard Time),285638.90000009537,A,boo,I,o,182,1,1899.5,283739.40000009537,9003,WL,A,1.0
2,2.299999952316284,learn,57700.000047683716,Tue Nov 12 2024 15:07:42 GMT-0500 (Eastern Standard Time),286039.2000002861,A,book,I,k,382,1,2299.800000190735,283739.40000009537,9003,WL,A,1.0
2,2.8329999446868896,learn,57167.00005531311,Tue Nov 12 2024 15:07:42 GMT-0500 (Eastern Standard Time),286572.0,A,bookenter,I,enter,508,1,2832.5999999046326,283739.40000009537,9003,WL,A,1.0
2,5.383000135421753,learn,54616.99986457825,Tue Nov 12 2024 15:07:42 GMT-0500 (Eastern Standard Time),289122.40000009537,A,f,I,f,2539,1,2550.0,286572.40000009537,9003,WL,A,2.0
2,5.633000135421753,learn,54366.99986457825,Tue Nov 12 2024 15:07:42 GMT-0500 (Eastern Standard Time),289372.5,A,fl,I,l,218,1,2800.0999999046326,286572.40000009537,9003,WL,A,2.0
2,5.8500001430511475,learn,54149.99985694885,Tue Nov 12 2024 15:07:42 GMT-0500 (Eastern Standard Time),289588.90000009537,A,flo,I,o,200,1,3016.5,286572.40000009537,9003,WL,A,2.0
2,6.0,learn,54000.0,Tue Nov 12 2024 15:07:42 GMT-0500 (Eastern Standard Time),289739.09999990463,A,flow,I,w,123,1,3166.699999809265,286572.40000009537,9003,WL,A,2.0
2,6.183000087738037,learn,53816.99991226196,Tue Nov 12 2024 15:07:42 GMT-0500 (Eastern Standard Time),289922.30000019073,A,flowe,I,e,169,1,3349.9000000953674,286572.40000009537,9003,WL,A,2.0
2,6.367000102996826,learn,53632.999897003174,Tue Nov 12 2024 15:07:42 GMT-0500 (Eastern Standard Time),290105.90000009537,A,flower,I,r,161,1,3533.5,286572.40000009537,9003,WL,A,2.0
2,6.716000080108643,learn,53283.99991989136,Tue Nov 12 2024 15:07:42 GMT-0500 (Eastern Standard Time),290455.2000002861,A,flowerenter,I,enter,330,1,3882.800000190735,286572.40000009537,9003,WL,A,2.0
2,7.83299994468689,learn,52167.00005531311,Tue Nov 12 2024 15:07:42 GMT-0500 (Eastern Standard Time),291572.40000009537,A,t,I,t,1104,1,1116.5999999046326,290455.80000019073,9003,WL,A,3.0
2,8.049999952316284,learn,51950.000047683716,Tue Nov 12 2024 15:07:42 GMT-0500 (Eastern Standard Time),291789.2000002861,A,tr,I,r,191,1,1333.4000000953674,290455.80000019073,9003,WL,A,3.0
2,8.200000047683716,learn,51799.999952316284,Tue Nov 12 2024 15:07:42 GMT-0500 (Eastern Standard Time),291939.2000002861,A,tra,I,a,127,1,1483.4000000953674,290455.80000019073,9003,WL,A,3.0
2,8.383000135421753,learn,51616.99986457825,Tue Nov 12 2024 15:07:42 GMT-0500 (Eastern Standard Time),292122.0,A,trai,I,i,161,1,1666.1999998092651,290455.80000019073,9003,WL,A,3.0
2,8.565999984741211,learn,51434.00001525879,Tue Nov 12 2024 15:07:42 GMT-0500 (Eastern Standard Time),292305.59999990463,A,train,I,n,174,1,1849.7999997138977,290455.80000019073,9003,WL,A,3.0
2,8.933000087738037,learn,51066.99991226196,Tue Nov 12 2024 15:07:42 GMT-0500 (Eastern Standard Time),292672.0,A,trainenter,I,enter,346,1,2216.199999809265,290455.80000019073,9003,WL,A,3.0
2,10.016999959945679,learn,49983.00004005432,Tue Nov 12 2024 15:07:42 GMT-0500 (Eastern Standard Time),293755.90000009537,A,r,I,r,1063,1,1083.5,292672.40000009537,9003,WL,A,4.0
2,10.25,learn,49750.0,Tue Nov 12 2024 15:07:42 GMT-0500 (Eastern Standard Time),293989.2000002861,A,ru,I,u,216,1,1316.8000001907349,292672.40000009537,9003,WL,A,4.0
2,10.416000127792358,learn,49583.99987220764,Tue Nov 12 2024 15:07:42 GMT-0500 (Eastern Standard Time),294155.80000019073,A,rug,I,g,143,1,1483.4000000953674,292672.40000009537,9003,WL,A,4.0
2,10.633000135421753,learn,49366.99986457825,Tue Nov 12 2024 15:07:42 GMT-0500 (Eastern Standard Time),294372.0,A,rugenter,I,enter,190,1,1699.5999999046326,292672.40000009537,9003,WL,A,4.0
2,11.282999992370605,learn,48717.000007629395,Tue Nov 12 2024 15:07:42 GMT-0500 (Eastern Standard Time),295022.40000009537,A,k,I,k,643,1,649.8000001907349,294372.59999990463,9003,WL,A,5.0
2,11.483000040054321,learn,48516.99995994568,Tue Nov 12 2024 15:07:42 GMT-0500 (Eastern Standard Time),295222.0,A,ke,I,e,179,1,849.4000000953674,294372.59999990463,9003,WL,A,5.0
2,11.683000087738037,learn,48316.99991226196,Tue Nov 12 2024 15:07:42 GMT-0500 (Eastern Standard Time),295422.5,A,key,I,y,193,1,1049.9000000953674,294372.59999990463,9003,WL,A,5.0
2,12.016000032424927,learn,47983.99996757507,Tue Nov 12 2024 15:07:42 GMT-0500 (Eastern Standard Time),295755.30000019073,A,keyenter,I,enter,308,1,1382.7000002861023,294372.59999990463,9003,WL,A,5.0
2,12.516000032424927,learn,47483.99996757507,Tue Nov 12 2024 15:07:42 GMT-0500 (Eastern Standard Time),296255.30000019073,A,m,I,m,492,1,499.7000002861023,295755.59999990463,9003,WL,A,6.0
2,12.666000127792358,learn,47333.99987220764,Tue Nov 12 2024 15:07:42 GMT-0500 (Eastern Standard Time),296405.80000019073,A,me,I,e,137,1,650.2000002861023,295755.59999990463,9003,WL,A,6.0
2,12.865999937057495,learn,47134.000062942505,Tue Nov 12 2024 15:07:42 GMT-0500 (Eastern Standard Time),296605.59999990463,A,mea,I,a,166,1,850.0,295755.59999990463,9003,WL,A,6.0
2,13.100000143051147,learn,46899.99985694885,Tue Nov 12 2024 15:07:42 GMT-0500 (Eastern Standard Time),296839.09999990463,A,mead,I,d,213,1,1083.5,295755.59999990463,9003,WL,A,6.0
2,13.25,learn,46750.0,Tue Nov 12 2024 15:07:42 GMT-0500 (Eastern Standard Time),296989.30000019073,A,meado,I,o,118,1,1233.7000002861023,295755.59999990463,9003,WL,A,6.0
2,13.466000080108643,learn,46533.99991989136,Tue Nov 12 2024 15:07:42 GMT-0500 (Eastern Standard Time),297205.59999990463,A,meadow,I,w,192,1,1450.0,295755.59999990463,9003,WL,A,6.0
2,13.815999984741211,learn,46184.00001525879,Tue Nov 12 2024 15:07:42 GMT-0500 (Eastern Standard Time),297555.30000019073,A,meadowenter,I,enter,333,1,1799.7000002861023,295755.59999990463,9003,WL,A,6.0
2,15.850000143051147,learn,44149.99985694885,Tue Nov 12 2024 15:07:42 GMT-0500 (Eastern Standard Time),299589.09999990463,A,g,I,g,2021,1,2033.5,297555.59999990463,9003,WL,A,7.0
2,16.049999952316284,learn,43950.000047683716,Tue Nov 12 2024 15:07:42 GMT-0500 (Eastern Standard Time),299789.5,A,go,I,o,175,1,2233.9000000953674,297555.59999990463,9003,WL,A,7.0
2,16.249000072479248,learn,43750.99992752075,Tue Nov 12 2024 15:07:42 GMT-0500 (Eastern Standard Time),299988.30000019073,A,gol,I,l,185,1,2432.7000002861023,297555.59999990463,9003,WL,A,7.0
2,16.39900016784668,learn,43600.99983215332,Tue Nov 12 2024 15:07:42 GMT-0500 (Eastern Standard Time),300138.59999990463,A,gold,I,d,130,1,2583.0,297555.59999990463,9003,WL,A,7.0
2,16.598999977111816,learn,43401.00002288818,Tue Nov 12 2024 15:07:42 GMT-0500 (Eastern Standard Time),300338.59999990463,A,goldenter,I,enter,187,1,2783.0,297555.59999990463,9003,WL,A,7.0
2,17.133000135421753,learn,42866.99986457825,Tue Nov 12 2024 15:07:42 GMT-0500 (Eastern Standard Time),300872.5,A,r,I,r,517,1,533.5999999046326,300338.90000009537,9003,WL,A,8.0
2,17.33299994468689,learn,42667.00005531311,Tue Nov 12 2024 15:07:42 GMT-0500 (Eastern Standard Time),301072.5,A,ra,I,a,187,1,733.5999999046326,300338.90000009537,9003,WL,A,8.0
2,17.5,learn,42500.0,Tue Nov 12 2024 15:07:42 GMT-0500 (Eastern Standard Time),301239.2000002861,A,rat,I,t,148,1,900.3000001907349,300338.90000009537,9003,WL,A,8.0
2,17.683000087738037,learn,42316.99991226196,Tue Nov 12 2024 15:07:42 GMT-0500 (Eastern Standard Time),301422.2000002861,A,ratt,I,t,173,1,1083.3000001907349,300338.90000009537,9003,WL,A,8.0
2,17.933000087738037,learn,42066.99991226196,Tue Nov 12 2024 15:07:42 GMT-0500 (Eastern Standard Time),301672.59999990463,A,rattl,I,l,231,1,1333.6999998092651,300338.90000009537,9003,WL,A,8.0
2,18.100000143051147,learn,41899.99985694885,Tue Nov 12 2024 15:07:42 GMT-0500 (Eastern Standard Time),301838.80000019073,A,rattle,I,e,156,1,1499.9000000953674,300338.90000009537,9003,WL,A,8.0
2,18.383000135421753,learn,41616.99986457825,Tue Nov 12 2024 15:07:42 GMT-0500 (Eastern Standard Time),302122.0,A,rattleenter,I,enter,252,1,1783.0999999046326,300338.90000009537,9003,WL,A,8.0
2,20.56599998474121,learn,39434.00001525879,Tue Nov 12 2024 15:07:42 GMT-0500 (Eastern Standard Time),304305.59999990463,A,k,I,k,2173,1,2183.199999809265,302122.40000009537,9003,WL,A,9.0
2,20.75,learn,39250.0,Tue Nov 12 2024 15:07:42 GMT-0500 (Eastern Standard Time),304489.0,A,ke,I,e,163,1,2366.5999999046326,302122.40000009537,9003,WL,A,9.0
2,20.98300004005432,learn,39016.99995994568,Tue Nov 12 2024 15:07:42 GMT-0500 (Eastern Standard Time),304722.40000009537,A,key,I,y,212,1,2600.0,302122.40000009537,9003,WL,A,9.0
2,21.299000024795532,learn,38700.99997520447,Tue Nov 12 2024 15:07:42 GMT-0500 (Eastern Standard Time),305038.5,A,keyenter,I,enter,304,1,2916.0999999046326,302122.40000009537,9003,WL,A,9.0
2,22.348999977111816,learn,37651.00002288818,Tue Nov 12 2024 15:07:42 GMT-0500 (Eastern Standard Time),306088.59999990463,A,l,I,l,1033,1,1049.7999997138977,305038.80000019073,9003,WL,A,10.0
2,22.56599998474121,learn,37434.00001525879,Tue Nov 12 2024 15:07:42 GMT-0500 (Eastern Standard Time),306305.7000002861,A,lo,I,o,206,1,1266.9000000953674,305038.80000019073,9003,WL,A,10.0
2,22.75,learn,37250.0,Tue Nov 12 2024 15:07:42 GMT-0500 (Eastern Standard Time),306489.2000002861,A,log,I,g,154,1,1450.4000000953674,305038.80000019073,9003,WL,A,10.0
2,22.999000072479248,learn,37000.99992752075,Tue Nov 12 2024 15:07:42 GMT-0500 (Eastern Standard Time),306738.59999990463,A,logenter,I,enter,233,1,1699.7999997138977,305038.80000019073,9003,WL,A,10.0
2,23.966000080108643,learn,36033.99991989136,Tue Nov 12 2024 15:07:42 GMT-0500 (Eastern Standard Time),307705.7000002861,A,a,I,a,949,1,966.7000002861023,306739.0,9003,WL,A,11.0
2,24.200000047683716,learn,35799.999952316284,Tue Nov 12 2024 15:07:42 GMT-0500 (Eastern Standard Time),307939.2000002861,A,ap,I,p,211,1,1200.2000002861023,306739.0,9003,WL,A,11.0
2,24.383000135421753,learn,35616.99986457825,Tue Nov 12 2024 15:07:42 GMT-0500 (Eastern Standard Time),308122.2000002861,A,app,I,p,161,1,1383.2000002861023,306739.0,9003,WL,A,11.0
2,24.633000135421753,learn,35366.99986457825,Tue Nov 12 2024 15:07:42 GMT-0500 (Eastern Standard Time),308372.5,A,appl,I,l,232,1,1633.5,306739.0,9003,WL,A,11.0
2,24.782999992370605,learn,35217.000007629395,Tue Nov 12 2024 15:07:42 GMT-0500 (Eastern Standard Time),308522.59999990463,A,apple,I,e,127,1,1783.5999999046326,306739.0,9003,WL,A,11.0
2,25.032999992370605,learn,34967.000007629395,Tue Nov 12 2024 15:07:42 GMT-0500 (Eastern Standard Time),308772.09999990463,A,appleenter,I,enter,226,1,2033.0999999046326,306739.0,9003,WL,A,11.0
2,28.133000135421753,learn,31866.999864578247,Tue Nov 12 2024 15:07:42 GMT-0500 (Eastern Standard Time),311872.40000009537,A,s,I,s,3091,1,3100.0,308772.40000009537,9003,WL,A,12.0
2,28.33299994468689,learn,31667.00005531311,Tue Nov 12 2024 15:07:42 GMT-0500 (Eastern Standard Time),312072.59999990463,A,sa,I,a,177,1,3300.199999809265,308772.40000009537,9003,WL,A,12.0
2,28.450000047683716,learn,31549.999952316284,Tue Nov 12 2024 15:07:42 GMT-0500 (Eastern Standard Time),312189.2000002861,A,sal,I,l,91,1,3416.800000190735,308772.40000009537,9003,WL,A,12.0
2,28.89900016784668,learn,31100.99983215332,Tue Nov 12 2024 15:07:42 GMT-0500 (Eastern Standard Time),312638.80000019073,A,salt,I,t,432,1,3866.4000000953674,308772.40000009537,9003,WL,A,12.0
2,29.216000080108643,learn,30783.999919891357,Tue Nov 12 2024 15:07:42 GMT-0500 (Eastern Standard Time),312955.30000019073,A,saltenter,I,enter,291,1,4182.900000095367,308772.40000009537,9003,WL,A,12.0
2,31.383000135421753,learn,28616.999864578247,Tue Nov 12 2024 15:07:42 GMT-0500 (Eastern Standard Time),315122.7000002861,A,f,I,f,2156,1,2167.1000003814697,312955.59999990463,9003,WL,A,13.0
2,31.600000143051147,learn,28399.999856948853,Tue Nov 12 2024 15:07:42 GMT-0500 (Eastern Standard Time),315339.30000019073,A,fi,I,i,193,1,2383.7000002861023,312955.59999990463,9003,WL,A,13.0
2,31.766000032424927,learn,28233.999967575073,Tue Nov 12 2024 15:07:42 GMT-0500 (Eastern Standard Time),315505.7000002861,A,fin,I,n,153,1,2550.1000003814697,312955.59999990463,9003,WL,A,13.0
2,31.950000047683716,learn,28049.999952316284,Tue Nov 12 2024 15:07:42 GMT-0500 (Eastern Standard Time),315689.0,A,fing,I,g,163,1,2733.4000000953674,312955.59999990463,9003,WL,A,13.0
2,32.08299994468689,learn,27917.00005531311,Tue Nov 12 2024 15:07:42 GMT-0500 (Eastern Standard Time),315822.40000009537,A,finge,I,e,116,1,2866.800000190735,312955.59999990463,9003,WL,A,13.0
2,32.25,learn,27750.0,Tue Nov 12 2024 15:07:42 GMT-0500 (Eastern Standard Time),315989.0,A,finger,I,r,151,1,3033.4000000953674,312955.59999990463,9003,WL,A,13.0
2,32.43300008773804,learn,27566.999912261963,Tue Nov 12 2024 15:07:42 GMT-0500 (Eastern Standard Time),316172.0,A,fingerenter,I,enter,154,1,3216.4000000953674,312955.59999990463,9003,WL,A,13.0
2,36.950000047683716,learn,23049.999952316284,Tue Nov 12 2024 15:07:42 GMT-0500 (Eastern Standard Time),320689.2000002861,A,r,I,r,4507,1,4516.900000095367,316172.30000019073,9003,WL,A,14.0
2,37.13300013542175,learn,22866.999864578247,Tue Nov 12 2024 15:07:42 GMT-0500 (Eastern Standard Time),320872.5,A,ru,I,u,162,1,4700.199999809265,316172.30000019073,9003,WL,A,14.0
2,37.29900002479553,learn,22700.999975204468,Tue Nov 12 2024 15:07:42 GMT-0500 (Eastern Standard Time),321038.59999990463,A,rug,I,g,155,1,4866.299999713898,316172.30000019073,9003,WL,A,14.0
2,37.49900007247925,learn,22500.999927520752,Tue Nov 12 2024 15:07:42 GMT-0500 (Eastern Standard Time),321238.59999990463,A,rugenter,I,enter,180,1,5066.299999713898,316172.30000019073,9003,WL,A,14.0
2,60.01699995994568,learn,-16.99995994567871,Tue Nov 12 2024 15:07:42 GMT-0500 (Eastern Standard Time),343755.90000009537,A,None,I,None,22511,1,22517.0,321238.90000009537,9003,WL,A,15.0
3,1.2170000076293945,learn,58782.999992370605,Tue Nov 12 2024 15:07:42 GMT-0500 (Eastern Standard Time),417172.30000019073,A,c,I,c,1200,1,1216.0,415956.30000019073,9003,WL,A,1.0
3,1.4010000228881836,learn,58598.99997711182,Tue Nov 12 2024 15:07:42 GMT-0500 (Eastern Standard Time),417355.80000019073,A,ch,I,h,160,1,1399.5,415956.30000019073,9003,WL,A,1.0
3,1.6340000629425049,learn,58365.999937057495,Tue Nov 12 2024 15:07:42 GMT-0500 (Eastern Standard Time),417589.40000009537,A,chi,I,i,208,1,1633.0999999046326,415956.30000019073,9003,WL,A,1.0
3,1.9509999752044678,learn,58049.00002479553,Tue Nov 12 2024 15:07:42 GMT-0500 (Eastern Standard Time),417906.0,A,chim,I,m,296,1,1949.6999998092651,415956.30000019073,9003,WL,A,1.0
3,2.25,learn,57750.0,Tue Nov 12 2024 15:07:42 GMT-0500 (Eastern Standard Time),418205.59999990463,A,chimn,I,n,289,1,2249.2999997138977,415956.30000019073,9003,WL,A,1.0
3,2.4509999752044678,learn,57549.00002479553,Tue Nov 12 2024 15:07:42 GMT-0500 (Eastern Standard Time),418405.90000009537,A,chimne,I,e,184,1,2449.5999999046326,415956.30000019073,9003,WL,A,1.0
3,2.700000047683716,learn,57299.999952316284,Tue Nov 12 2024 15:07:42 GMT-0500 (Eastern Standard Time),418655.80000019073,A,chimney,I,y,239,1,2699.5,415956.30000019073,9003,WL,A,1.0
3,3.049999952316284,learn,56950.000047683716,Tue Nov 12 2024 15:07:42 GMT-0500 (Eastern Standard Time),419005.5,A,chimneyenter,I,enter,315,1,3049.199999809265,415956.30000019073,9003,WL,A,1.0
3,3.7829999923706055,learn,56217.000007629395,Tue Nov 12 2024 15:07:42 GMT-0500 (Eastern Standard Time),419738.80000019073,A,h,I,h,713,1,733.0,419005.80000019073,9003,WL,A,2.0
3,3.884000062942505,learn,56115.999937057495,Tue Nov 12 2024 15:07:42 GMT-0500 (Eastern Standard Time),419839.09999990463,A,ha,I,a,76,1,833.2999997138977,419005.80000019073,9003,WL,A,2.0
3,4.033999919891357,learn,55966.00008010864,Tue Nov 12 2024 15:07:42 GMT-0500 (Eastern Standard Time),419989.2000002861,A,har,I,r,126,1,983.4000000953674,419005.80000019073,9003,WL,A,2.0
3,4.384000062942505,learn,55615.999937057495,Tue Nov 12 2024 15:07:42 GMT-0500 (Eastern Standard Time),420339.30000019073,A,harp,I,p,326,1,1333.5,419005.80000019073,9003,WL,A,2.0
3,4.7170000076293945,learn,55282.999992370605,Tue Nov 12 2024 15:07:42 GMT-0500 (Eastern Standard Time),420672.09999990463,A,harpenter,I,enter,320,1,1666.2999997138977,419005.80000019073,9003,WL,A,2.0
3,5.450000047683716,learn,54549.999952316284,Tue Nov 12 2024 15:07:42 GMT-0500 (Eastern Standard Time),421405.80000019073,A,a,I,a,712,1,733.4000000953674,420672.40000009537,9003,WL,A,3.0
3,5.616999864578247,learn,54383.00013542175,Tue Nov 12 2024 15:07:42 GMT-0500 (Eastern Standard Time),421572.59999990463,A,at,I,t,150,1,900.1999998092651,420672.40000009537,9003,WL,A,3.0
3,5.833999872207642,learn,54166.00012779236,Tue Nov 12 2024 15:07:42 GMT-0500 (Eastern Standard Time),421788.80000019073,A,att,I,t,191,1,1116.4000000953674,420672.40000009537,9003,WL,A,3.0
3,6.083999872207642,learn,53916.00012779236,Tue Nov 12 2024 15:07:42 GMT-0500 (Eastern Standard Time),422039.5,A,attl,I,l,235,1,1367.0999999046326,420672.40000009537,9003,WL,A,3.0
3,6.483999967575073,learn,53516.00003242493,Tue Nov 12 2024 15:07:42 GMT-0500 (Eastern Standard Time),422439.40000009537,A,att,I,backspace,380,1,1767.0,420672.40000009537,9003,WL,A,3.0
3,6.684999942779541,learn,53315.00005722046,Tue Nov 12 2024 15:07:42 GMT-0500 (Eastern Standard Time),422640.40000009537,A,at,I,backspace,188,1,1968.0,420672.40000009537,9003,WL,A,3.0
3,6.866999864578247,learn,53133.00013542175,Tue Nov 12 2024 15:07:42 GMT-0500 (Eastern Standard Time),422822.09999990463,A,a,I,backspace,156,1,2149.699999809265,420672.40000009537,9003,WL,A,3.0
3,7.049999952316284,learn,52950.000047683716,Tue Nov 12 2024 15:07:42 GMT-0500 (Eastern Standard Time),423005.80000019073,A,,I,backspace,161,1,2333.4000000953674,420672.40000009537,9003,WL,A,3.0
3,7.184000015258789,learn,52815.99998474121,Tue Nov 12 2024 15:07:42 GMT-0500 (Eastern Standard Time),423139.30000019073,A,,I,backspace,119,1,2466.9000000953674,420672.40000009537,9003,WL,A,3.0
3,7.634000062942505,learn,52365.999937057495,Tue Nov 12 2024 15:07:42 GMT-0500 (Eastern Standard Time),423589.2000002861,A,r,I,r,434,1,2916.800000190735,420672.40000009537,9003,WL,A,3.0
3,7.833999872207642,learn,52166.00012779236,Tue Nov 12 2024 15:07:42 GMT-0500 (Eastern Standard Time),423789.2000002861,A,ra,I,a,175,1,3116.800000190735,420672.40000009537,9003,WL,A,3.0
3,7.950000047683716,learn,52049.999952316284,Tue Nov 12 2024 15:07:42 GMT-0500 (Eastern Standard Time),423905.59999990463,A,rat,I,t,101,1,3233.199999809265,420672.40000009537,9003,WL,A,3.0
3,8.16700005531311,learn,51832.99994468689,Tue Nov 12 2024 15:07:42 GMT-0500 (Eastern Standard Time),424122.59999990463,A,ratt,I,t,195,1,3450.199999809265,420672.40000009537,9003,WL,A,3.0
3,8.333999872207642,learn,51666.00012779236,Tue Nov 12 2024 15:07:42 GMT-0500 (Eastern Standard Time),424289.09999990463,A,rattl,I,l,154,1,3616.699999809265,420672.40000009537,9003,WL,A,3.0
3,8.483999967575073,learn,51516.00003242493,Tue Nov 12 2024 15:07:42 GMT-0500 (Eastern Standard Time),424439.40000009537,A,rattle,I,e,130,1,3767.0,420672.40000009537,9003,WL,A,3.0
3,8.766999959945679,learn,51233.00004005432,Tue Nov 12 2024 15:07:42 GMT-0500 (Eastern Standard Time),424722.09999990463,A,rattleenter,I,enter,268,1,4049.699999809265,420672.40000009537,9003,WL,A,3.0
3,9.583999872207642,learn,50416.00012779236,Tue Nov 12 2024 15:07:42 GMT-0500 (Eastern Standard Time),425539.40000009537,A,b,I,b,805,1,816.8000001907349,424722.59999990463,9003,WL,A,4.0
3,9.866999864578247,learn,50133.00013542175,Tue Nov 12 2024 15:07:42 GMT-0500 (Eastern Standard Time),425822.80000019073,A,bo,I,o,257,1,1100.2000002861023,424722.59999990463,9003,WL,A,4.0
3,10.050999879837036,learn,49949.000120162964,Tue Nov 12 2024 15:07:42 GMT-0500 (Eastern Standard Time),426006.0,A,boo,I,o,164,1,1283.4000000953674,424722.59999990463,9003,WL,A,4.0
3,10.266999959945679,learn,49733.00004005432,Tue Nov 12 2024 15:07:42 GMT-0500 (Eastern Standard Time),426222.5,A,book,I,k,199,1,1499.9000000953674,424722.59999990463,9003,WL,A,4.0
3,10.549999952316284,learn,49450.000047683716,Tue Nov 12 2024 15:07:42 GMT-0500 (Eastern Standard Time),426505.40000009537,A,bookenter,I,enter,260,1,1782.8000001907349,424722.59999990463,9003,WL,A,4.0
3,11.068000078201294,learn,48931.999921798706,Tue Nov 12 2024 15:07:42 GMT-0500 (Eastern Standard Time),427023.2000002861,A,c,I,c,509,1,517.4000000953674,426505.80000019073,9003,WL,A,5.0
3,11.599999904632568,learn,48400.00009536743,Tue Nov 12 2024 15:07:42 GMT-0500 (Eastern Standard Time),427555.80000019073,A,,I,backspace,518,1,1050.0,426505.80000019073,9003,WL,A,5.0
3,12.483999967575073,learn,47516.00003242493,Tue Nov 12 2024 15:07:42 GMT-0500 (Eastern Standard Time),428439.2000002861,A,t,I,t,858,1,1933.4000000953674,426505.80000019073,9003,WL,A,5.0
3,12.66700005531311,learn,47332.99994468689,Tue Nov 12 2024 15:07:42 GMT-0500 (Eastern Standard Time),428622.59999990463,A,tr,I,r,157,1,2116.7999997138977,426505.80000019073,9003,WL,A,5.0
3,12.8510000705719,learn,47148.9999294281,Tue Nov 12 2024 15:07:42 GMT-0500 (Eastern Standard Time),428805.90000009537,A,tra,I,a,165,1,2300.0999999046326,426505.80000019073,9003,WL,A,5.0
3,13.500999927520752,learn,46499.00007247925,Tue Nov 12 2024 15:07:42 GMT-0500 (Eastern Standard Time),429455.90000009537,A,trai,I,i,639,1,2950.0999999046326,426505.80000019073,9003,WL,A,5.0
3,13.766999959945679,learn,46233.00004005432,Tue Nov 12 2024 15:07:42 GMT-0500 (Eastern Standard Time),429722.80000019073,A,train,I,n,245,1,3217.0,426505.80000019073,9003,WL,A,5.0
3,14.066999912261963,learn,45933.00008773804,Tue Nov 12 2024 15:07:42 GMT-0500 (Eastern Standard Time),430022.2000002861,A,trainenter,I,enter,281,1,3516.4000000953674,426505.80000019073,9003,WL,A,5.0
3,15.333999872207642,learn,44666.00012779236,Tue Nov 12 2024 15:07:42 GMT-0500 (Eastern Standard Time),431289.30000019073,A,f,I,f,1249,1,1266.8000001907349,430022.5,9003,WL,A,6.0
3,15.483999967575073,learn,44516.00003242493,Tue Nov 12 2024 15:07:42 GMT-0500 (Eastern Standard Time),431439.0,A,fl,I,l,137,1,1416.5,430022.5,9003,WL,A,6.0
3,15.733999967575073,learn,44266.00003242493,Tue Nov 12 2024 15:07:42 GMT-0500 (Eastern Standard Time),431689.30000019073,A,flo,I,o,230,1,1666.8000001907349,430022.5,9003,WL,A,6.0
3,15.884999990463257,learn,44115.00000953674,Tue Nov 12 2024 15:07:42 GMT-0500 (Eastern Standard Time),431840.30000019073,A,flow,I,w,139,1,1817.8000001907349,430022.5,9003,WL,A,6.0
3,16.116999864578247,learn,43883.00013542175,Tue Nov 12 2024 15:07:42 GMT-0500 (Eastern Standard Time),432072.59999990463,A,flowe,I,e,212,1,2050.0999999046326,430022.5,9003,WL,A,6.0
3,16.250999927520752,learn,43749.00007247925,Tue Nov 12 2024 15:07:42 GMT-0500 (Eastern Standard Time),432206.0,A,flower,I,r,108,1,2183.5,430022.5,9003,WL,A,6.0
3,16.667999982833862,learn,43332.00001716614,Tue Nov 12 2024 15:07:42 GMT-0500 (Eastern Standard Time),432623.09999990463,A,flowerenter,I,enter,399,1,2600.5999999046326,430022.5,9003,WL,A,6.0
3,17.401000022888184,learn,42598.99997711182,Tue Nov 12 2024 15:07:42 GMT-0500 (Eastern Standard Time),433355.90000009537,A,r,I,r,712,1,732.5,432623.40000009537,9003,WL,A,7.0
3,17.634000062942505,learn,42365.999937057495,Tue Nov 12 2024 15:07:42 GMT-0500 (Eastern Standard Time),433589.30000019073,A,ru,I,u,217,1,965.9000000953674,432623.40000009537,9003,WL,A,7.0
3,17.783999919891357,learn,42216.00008010864,Tue Nov 12 2024 15:07:42 GMT-0500 (Eastern Standard Time),433739.30000019073,A,rug,I,g,127,1,1115.9000000953674,432623.40000009537,9003,WL,A,7.0
3,18.049999952316284,learn,41950.000047683716,Tue Nov 12 2024 15:07:42 GMT-0500 (Eastern Standard Time),434005.5,A,rugenter,I,enter,248,1,1382.0999999046326,432623.40000009537,9003,WL,A,7.0
3,19.866999864578247,learn,40133.00013542175,Tue Nov 12 2024 15:07:42 GMT-0500 (Eastern Standard Time),435822.30000019073,A,k,I,k,1794,1,1816.4000000953674,434005.90000009537,9003,WL,A,8.0
3,20.000999927520752,learn,39999.00007247925,Tue Nov 12 2024 15:07:42 GMT-0500 (Eastern Standard Time),435956.0,A,ke,I,e,117,1,1950.0999999046326,434005.90000009537,9003,WL,A,8.0
3,20.233999967575073,learn,39766.00003242493,Tue Nov 12 2024 15:07:42 GMT-0500 (Eastern Standard Time),436189.2000002861,A,key,I,y,201,1,2183.300000190735,434005.90000009537,9003,WL,A,8.0
3,20.84999990463257,learn,39150.00009536743,Tue Nov 12 2024 15:07:42 GMT-0500 (Eastern Standard Time),436805.5,A,keyenter,I,enter,599,1,2799.5999999046326,434005.90000009537,9003,WL,A,8.0
3,21.783999919891357,learn,38216.00008010864,Tue Nov 12 2024 15:07:42 GMT-0500 (Eastern Standard Time),437739.30000019073,A,l,I,l,914,1,933.5,436805.80000019073,9003,WL,A,9.0
3,22.000999927520752,learn,37999.00007247925,Tue Nov 12 2024 15:07:42 GMT-0500 (Eastern Standard Time),437955.90000009537,A,lo,I,o,202,1,1150.0999999046326,436805.80000019073,9003,WL,A,9.0
3,22.233999967575073,learn,37766.00003242493,Tue Nov 12 2024 15:07:42 GMT-0500 (Eastern Standard Time),438189.30000019073,A,log,I,g,201,1,1383.5,436805.80000019073,9003,WL,A,9.0
3,22.450000047683716,learn,37549.999952316284,Tue Nov 12 2024 15:07:42 GMT-0500 (Eastern Standard Time),438405.5,A,logenter,I,enter,196,1,1599.6999998092651,436805.80000019073,9003,WL,A,9.0
3,24.200999975204468,learn,35799.00002479553,Tue Nov 12 2024 15:07:42 GMT-0500 (Eastern Standard Time),440156.0,A,b,I,b,1730,1,1750.1999998092651,438405.80000019073,9003,WL,A,10.0
3,24.43400001525879,learn,35565.99998474121,Tue Nov 12 2024 15:07:42 GMT-0500 (Eastern Standard Time),440389.7000002861,A,bu,I,u,217,1,1983.9000000953674,438405.80000019073,9003,WL,A,10.0
3,24.66700005531311,learn,35332.99994468689,Tue Nov 12 2024 15:07:42 GMT-0500 (Eastern Standard Time),440622.80000019073,A,but,I,t,210,1,2217.0,438405.80000019073,9003,WL,A,10.0
3,24.816999912261963,learn,35183.00008773804,Tue Nov 12 2024 15:07:42 GMT-0500 (Eastern Standard Time),440772.5,A,butt,I,t,133,1,2366.699999809265,438405.80000019073,9003,WL,A,10.0
3,25.066999912261963,learn,34933.00008773804,Tue Nov 12 2024 15:07:42 GMT-0500 (Eastern Standard Time),441022.59999990463,A,butto,I,o,222,1,2616.7999997138977,438405.80000019073,9003,WL,A,10.0
3,25.299999952316284,learn,34700.000047683716,Tue Nov 12 2024 15:07:42 GMT-0500 (Eastern Standard Time),441255.80000019073,A,button,I,n,214,1,2850.0,438405.80000019073,9003,WL,A,10.0
3,25.566999912261963,learn,34433.00008773804,Tue Nov 12 2024 15:07:42 GMT-0500 (Eastern Standard Time),441522.2000002861,A,buttonenter,I,enter,251,1,3116.4000000953674,438405.80000019073,9003,WL,A,10.0
3,28.467000007629395,learn,31532.999992370605,Tue Nov 12 2024 15:07:42 GMT-0500 (Eastern Standard Time),444422.80000019073,A,f,I,f,2886,1,2900.300000190735,441522.5,9003,WL,A,11.0
3,28.717000007629395,learn,31282.999992370605,Tue Nov 12 2024 15:07:42 GMT-0500 (Eastern Standard Time),444672.7000002861,A,fi,I,i,238,1,3150.2000002861023,441522.5,9003,WL,A,11.0
3,28.91700005531311,learn,31082.99994468689,Tue Nov 12 2024 15:07:42 GMT-0500 (Eastern Standard Time),444872.7000002861,A,fin,I,n,178,1,3350.2000002861023,441522.5,9003,WL,A,11.0
3,29.050999879837036,learn,30949.000120162964,Tue Nov 12 2024 15:07:42 GMT-0500 (Eastern Standard Time),445005.90000009537,A,fing,I,g,108,1,3483.4000000953674,441522.5,9003,WL,A,11.0
3,29.217000007629395,learn,30782.999992370605,Tue Nov 12 2024 15:07:42 GMT-0500 (Eastern Standard Time),445172.59999990463,A,finge,I,e,144,1,3650.0999999046326,441522.5,9003,WL,A,11.0
3,29.366999864578247,learn,30633.000135421753,Tue Nov 12 2024 15:07:42 GMT-0500 (Eastern Standard Time),445322.59999990463,A,finger,I,r,120,1,3800.0999999046326,441522.5,9003,WL,A,11.0
3,29.58299994468689,learn,30417.00005531311,Tue Nov 12 2024 15:07:42 GMT-0500 (Eastern Standard Time),445538.80000019073,A,fingerenter,I,enter,200,1,4016.300000190735,441522.5,9003,WL,A,11.0
3,32.93400001525879,learn,27065.99998474121,Tue Nov 12 2024 15:07:42 GMT-0500 (Eastern Standard Time),448889.30000019073,A,g,I,g,3333,1,3350.0999999046326,445539.2000002861,9003,WL,A,12.0
3,33.11699986457825,learn,26883.000135421753,Tue Nov 12 2024 15:07:42 GMT-0500 (Eastern Standard Time),449072.59999990463,A,go,I,o,168,1,3533.3999996185303,445539.2000002861,9003,WL,A,12.0
3,33.3510000705719,learn,26648.9999294281,Tue Nov 12 2024 15:07:42 GMT-0500 (Eastern Standard Time),449306.0,A,gol,I,l,212,1,3766.7999997138977,445539.2000002861,9003,WL,A,12.0
3,33.5,learn,26500.0,Tue Nov 12 2024 15:07:42 GMT-0500 (Eastern Standard Time),449455.7000002861,A,gold,I,d,139,1,3916.5,445539.2000002861,9003,WL,A,12.0
3,33.75,learn,26250.0,Tue Nov 12 2024 15:07:42 GMT-0500 (Eastern Standard Time),449705.40000009537,A,goldenter,I,enter,227,1,4166.199999809265,445539.2000002861,9003,WL,A,12.0
3,35.20099997520447,learn,24799.000024795532,Tue Nov 12 2024 15:07:42 GMT-0500 (Eastern Standard Time),451156.09999990463,A,l,I,l,1438,1,1450.3999996185303,449705.7000002861,9003,WL,A,13.0
3,35.51699995994568,learn,24483.00004005432,Tue Nov 12 2024 15:07:42 GMT-0500 (Eastern Standard Time),451472.7000002861,A,lo,I,o,305,1,1767.0,449705.7000002861,9003,WL,A,13.0
3,35.75099992752075,learn,24249.000072479248,Tue Nov 12 2024 15:07:42 GMT-0500 (Eastern Standard Time),451705.90000009537,A,log,I,g,212,1,2000.1999998092651,449705.7000002861,9003,WL,A,13.0
3,36.0,learn,24000.0,Tue Nov 12 2024 15:07:42 GMT-0500 (Eastern Standard Time),451955.30000019073,A,logenter,I,enter,232,1,2249.5999999046326,449705.7000002861,9003,WL,A,13.0
3,39.81699991226196,learn,20183.000087738037,Tue Nov 12 2024 15:07:42 GMT-0500 (Eastern Standard Time),455772.5,A,s,I,s,3796,1,3816.7999997138977,451955.7000002861,9003,WL,A,14.0
3,40.03399991989136,learn,19966.000080108643,Tue Nov 12 2024 15:07:42 GMT-0500 (Eastern Standard Time),455989.40000009537,A,sa,I,a,200,1,4033.699999809265,451955.7000002861,9003,WL,A,14.0
3,40.16700005531311,learn,19832.99994468689,Tue Nov 12 2024 15:07:42 GMT-0500 (Eastern Standard Time),456122.7000002861,A,sal,I,l,103,1,4167.0,451955.7000002861,9003,WL,A,14.0
3,40.550999879837036,learn,19449.000120162964,Tue Nov 12 2024 15:07:42 GMT-0500 (Eastern Standard Time),456505.90000009537,A,salt,I,t,362,1,4550.199999809265,451955.7000002861,9003,WL,A,14.0
3,40.799999952316284,learn,19200.000047683716,Tue Nov 12 2024 15:07:42 GMT-0500 (Eastern Standard Time),456755.30000019073,A,saltenter,I,enter,234,1,4799.599999904633,451955.7000002861,9003,WL,A,14.0
3,44.48399996757507,learn,15516.000032424927,Tue Nov 12 2024 15:07:42 GMT-0500 (Eastern Standard Time),460439.40000009537,A,a,I,a,3668,1,3683.800000190735,456755.59999990463,9003,WL,A,15.0
3,44.73399996757507,learn,15266.000032424927,Tue Nov 12 2024 15:07:42 GMT-0500 (Eastern Standard Time),460689.30000019073,A,ap,I,p,237,1,3933.7000002861023,456755.59999990463,9003,WL,A,15.0
3,44.93400001525879,learn,15065.999984741211,Tue Nov 12 2024 15:07:42 GMT-0500 (Eastern Standard Time),460889.40000009537,A,app,I,p,179,1,4133.800000190735,456755.59999990463,9003,WL,A,15.0
3,45.134000062942505,learn,14865.999937057495,Tue Nov 12 2024 15:07:42 GMT-0500 (Eastern Standard Time),461088.90000009537,A,appl,I,l,187,1,4333.300000190735,456755.59999990463,9003,WL,A,15.0
3,45.31699991226196,learn,14683.000087738037,Tue Nov 12 2024 15:07:42 GMT-0500 (Eastern Standard Time),461272.7000002861,A,apple,I,e,166,1,4517.10000038147,456755.59999990463,9003,WL,A,15.0
3,45.51699995994568,learn,14483.000040054321,Tue Nov 12 2024 15:07:42 GMT-0500 (Eastern Standard Time),461472.09999990463,A,appleenter,I,enter,187,1,4716.5,456755.59999990463,9003,WL,A,15.0
4,0.9830000400543213,learn,59016.99995994568,Tue Nov 12 2024 15:07:42 GMT-0500 (Eastern Standard Time),532088.9000000954,A,l,I,l,961,1,982.3000001907349,531106.5999999046,9003,WL,A,1.0
4,1.248999834060669,learn,58751.00016593933,Tue Nov 12 2024 15:07:42 GMT-0500 (Eastern Standard Time),532355.5999999046,A,lo,I,o,252,1,1249.0,531106.5999999046,9003,WL,A,1.0
4,1.432999849319458,learn,58567.00015068054,Tue Nov 12 2024 15:07:42 GMT-0500 (Eastern Standard Time),532539.5,A,log,I,g,163,1,1432.9000000953674,531106.5999999046,9003,WL,A,1.0
4,2.115999937057495,learn,57884.000062942505,Tue Nov 12 2024 15:07:42 GMT-0500 (Eastern Standard Time),533222.9000000954,A,logk,I,k,657,1,2116.300000190735,531106.5999999046,9003,WL,A,1.0
4,2.365999937057495,learn,57634.000062942505,Tue Nov 12 2024 15:07:42 GMT-0500 (Eastern Standard Time),533472.5999999046,A,logke,I,e,235,1,2366.0,531106.5999999046,9003,WL,A,1.0
4,2.6659998893737793,learn,57334.00011062622,Tue Nov 12 2024 15:07:42 GMT-0500 (Eastern Standard Time),533772.7000002861,A,logkey,I,y,276,1,2666.1000003814697,531106.5999999046,9003,WL,A,1.0
4,3.6499998569488525,learn,56350.00014305115,Tue Nov 12 2024 15:07:42 GMT-0500 (Eastern Standard Time),534756.0999999046,A,logke,I,backspace,967,1,3649.5,531106.5999999046,9003,WL,A,1.0
4,3.8999998569488525,learn,56100.00014305115,Tue Nov 12 2024 15:07:42 GMT-0500 (Eastern Standard Time),535006.0999999046,A,logk,I,backspace,224,1,3899.5,531106.5999999046,9003,WL,A,1.0
4,4.049999952316284,learn,55950.000047683716,Tue Nov 12 2024 15:07:42 GMT-0500 (Eastern Standard Time),535156.0,A,log,I,backspace,128,1,4049.4000000953674,531106.5999999046,9003,WL,A,1.0
4,4.448999881744385,learn,55551.000118255615,Tue Nov 12 2024 15:07:42 GMT-0500 (Eastern Standard Time),535555.5999999046,A,logenter,I,enter,383,1,4449.0,531106.5999999046,9003,WL,A,1.0
4,5.2829999923706055,learn,54717.000007629395,Tue Nov 12 2024 15:07:42 GMT-0500 (Eastern Standard Time),536389.5,A,k,I,k,820,1,833.5,535556.0,9003,WL,A,2.0
4,5.450000047683716,learn,54549.999952316284,Tue Nov 12 2024 15:07:42 GMT-0500 (Eastern Standard Time),536556.0999999046,A,ke,I,e,144,1,1000.0999999046326,535556.0,9003,WL,A,2.0
4,5.766000032424927,learn,54233.99996757507,Tue Nov 12 2024 15:07:42 GMT-0500 (Eastern Standard Time),536872.8000001907,A,key,I,y,297,1,1316.8000001907349,535556.0,9003,WL,A,2.0
4,6.415999889373779,learn,53584.00011062622,Tue Nov 12 2024 15:07:42 GMT-0500 (Eastern Standard Time),537522.2000002861,A,keyr,I,r,634,1,1966.2000002861023,535556.0,9003,WL,A,2.0
4,6.766000032424927,learn,53233.99996757507,Tue Nov 12 2024 15:07:42 GMT-0500 (Eastern Standard Time),537872.7000002861,A,keyro,I,o,341,1,2316.7000002861023,535556.0,9003,WL,A,2.0
4,7.616999864578247,learn,52383.00013542175,Tue Nov 12 2024 15:07:42 GMT-0500 (Eastern Standard Time),538722.8000001907,A,keyr,I,backspace,836,1,3166.800000190735,535556.0,9003,WL,A,2.0
4,7.865999937057495,learn,52134.000062942505,Tue Nov 12 2024 15:07:42 GMT-0500 (Eastern Standard Time),538972.8000001907,A,key,I,backspace,225,1,3416.800000190735,535556.0,9003,WL,A,2.0
4,8.348999977111816,learn,51651.00002288818,Tue Nov 12 2024 15:07:42 GMT-0500 (Eastern Standard Time),539455.5,A,keyenter,I,enter,470,1,3899.5,535556.0,9003,WL,A,2.0
4,9.099999904632568,learn,50900.00009536743,Tue Nov 12 2024 15:07:42 GMT-0500 (Eastern Standard Time),540206.0,A,t,I,t,728,1,750.0,539456.0,9003,WL,A,3.0
4,9.483000040054321,learn,50516.99995994568,Tue Nov 12 2024 15:07:42 GMT-0500 (Eastern Standard Time),540589.5,A,,I,backspace,359,1,1133.5,539456.0,9003,WL,A,3.0
4,9.700000047683716,learn,50299.999952316284,Tue Nov 12 2024 15:07:42 GMT-0500 (Eastern Standard Time),540806.0999999046,A,r,I,r,199,1,1350.0999999046326,539456.0,9003,WL,A,3.0
4,9.932999849319458,learn,50067.00015068054,Tue Nov 12 2024 15:07:42 GMT-0500 (Eastern Standard Time),541039.0,A,ra,I,a,223,1,1583.0,539456.0,9003,WL,A,3.0
4,10.099999904632568,learn,49900.00009536743,Tue Nov 12 2024 15:07:42 GMT-0500 (Eastern Standard Time),541205.8000001907,A,rat,I,t,149,1,1749.8000001907349,539456.0,9003,WL,A,3.0
4,10.25,learn,49750.0,Tue Nov 12 2024 15:07:42 GMT-0500 (Eastern Standard Time),541356.0,A,ratt,I,t,119,1,1900.0,539456.0,9003,WL,A,3.0
4,10.382999897003174,learn,49617.000102996826,Tue Nov 12 2024 15:07:42 GMT-0500 (Eastern Standard Time),541489.3000001907,A,rattl,I,l,113,1,2033.3000001907349,539456.0,9003,WL,A,3.0
4,10.549000024795532,learn,49450.99997520447,Tue Nov 12 2024 15:07:42 GMT-0500 (Eastern Standard Time),541655.5999999046,A,rattle,I,e,139,1,2199.5999999046326,539456.0,9003,WL,A,3.0
4,11.049000024795532,learn,48950.99997520447,Tue Nov 12 2024 15:07:42 GMT-0500 (Eastern Standard Time),542155.7000002861,A,rattleenter,I,enter,479,1,2699.7000002861023,539456.0,9003,WL,A,3.0
4,11.5,learn,48500.0,Tue Nov 12 2024 15:07:42 GMT-0500 (Eastern Standard Time),542606.0999999046,A,g,I,g,427,1,449.7999997138977,542156.3000001907,9003,WL,A,4.0
4,11.815999984741211,learn,48184.00001525879,Tue Nov 12 2024 15:07:42 GMT-0500 (Eastern Standard Time),542922.7000002861,A,go,I,o,294,1,766.4000000953674,542156.3000001907,9003,WL,A,4.0
4,12.032999992370605,learn,47967.000007629395,Tue Nov 12 2024 15:07:42 GMT-0500 (Eastern Standard Time),543139.5,A,gol,I,l,202,1,983.1999998092651,542156.3000001907,9003,WL,A,4.0
4,12.299000024795532,learn,47700.99997520447,Tue Nov 12 2024 15:07:42 GMT-0500 (Eastern Standard Time),543405.5999999046,A,gold,I,d,240,1,1249.2999997138977,542156.3000001907,9003,WL,A,4.0
4,12.549000024795532,learn,47450.99997520447,Tue Nov 12 2024 15:07:42 GMT-0500 (Eastern Standard Time),543655.7000002861,A,goldenter,I,enter,234,1,1499.4000000953674,542156.3000001907,9003,WL,A,4.0
4,15.08299994468689,learn,44917.00005531311,Tue Nov 12 2024 15:07:42 GMT-0500 (Eastern Standard Time),546189.5,A,b,I,b,2512,1,2533.5999999046326,543655.9000000954,9003,WL,A,5.0
4,15.299999952316284,learn,44700.000047683716,Tue Nov 12 2024 15:07:42 GMT-0500 (Eastern Standard Time),546405.9000000954,A,bo,I,o,197,1,2750.0,543655.9000000954,9003,WL,A,5.0
4,15.5,learn,44500.0,Tue Nov 12 2024 15:07:42 GMT-0500 (Eastern Standard Time),546606.0,A,boo,I,o,174,1,2950.0999999046326,543655.9000000954,9003,WL,A,5.0
4,15.766000032424927,learn,44233.99996757507,Tue Nov 12 2024 15:07:42 GMT-0500 (Eastern Standard Time),546872.5999999046,A,book,I,k,240,1,3216.699999809265,543655.9000000954,9003,WL,A,5.0
4,16.33299994468689,learn,43667.00005531311,Tue Nov 12 2024 15:07:42 GMT-0500 (Eastern Standard Time),547438.8000001907,A,bookenter,I,enter,554,1,3782.9000000953674,543655.9000000954,9003,WL,A,5.0
4,17.882999897003174,learn,42117.000102996826,Tue Nov 12 2024 15:07:42 GMT-0500 (Eastern Standard Time),548989.3000001907,A,f,I,f,1529,1,1550.0999999046326,547439.2000002861,9003,WL,A,6.0
4,18.0,learn,42000.0,Tue Nov 12 2024 15:07:42 GMT-0500 (Eastern Standard Time),549106.0999999046,A,fl,I,l,104,1,1666.8999996185303,547439.2000002861,9003,WL,A,6.0
4,18.24899983406067,learn,41751.00016593933,Tue Nov 12 2024 15:07:42 GMT-0500 (Eastern Standard Time),549355.3000001907,A,flo,I,o,218,1,1916.0999999046326,547439.2000002861,9003,WL,A,6.0
4,18.382999897003174,learn,41617.000102996826,Tue Nov 12 2024 15:07:42 GMT-0500 (Eastern Standard Time),549489.0,A,flow,I,w,124,1,2049.7999997138977,547439.2000002861,9003,WL,A,6.0
4,18.615999937057495,learn,41384.000062942505,Tue Nov 12 2024 15:07:42 GMT-0500 (Eastern Standard Time),549722.7000002861,A,flowe,I,e,215,1,2283.5,547439.2000002861,9003,WL,A,6.0
4,18.698999881744385,learn,41301.000118255615,Tue Nov 12 2024 15:07:42 GMT-0500 (Eastern Standard Time),549805.5,A,flower,I,r,50,1,2366.2999997138977,547439.2000002861,9003,WL,A,6.0
4,18.98300004005432,learn,41016.99995994568,Tue Nov 12 2024 15:07:42 GMT-0500 (Eastern Standard Time),550088.8000001907,A,flowerenter,I,enter,263,1,2649.5999999046326,547439.2000002861,9003,WL,A,6.0
4,21.532999992370605,learn,38467.000007629395,Tue Nov 12 2024 15:07:42 GMT-0500 (Eastern Standard Time),552639.0,A,t,I,t,2542,1,2549.7999997138977,550089.2000002861,9003,WL,A,7.0
4,21.73300004005432,learn,38266.99995994568,Tue Nov 12 2024 15:07:42 GMT-0500 (Eastern Standard Time),552839.3000001907,A,tr,I,r,181,1,2750.0999999046326,550089.2000002861,9003,WL,A,7.0
4,21.91599988937378,learn,38084.00011062622,Tue Nov 12 2024 15:07:42 GMT-0500 (Eastern Standard Time),553022.3000001907,A,tra,I,a,155,1,2933.0999999046326,550089.2000002861,9003,WL,A,7.0
4,22.08399987220764,learn,37916.00012779236,Tue Nov 12 2024 15:07:42 GMT-0500 (Eastern Standard Time),553189.9000000954,A,trai,I,i,149,1,3100.699999809265,550089.2000002861,9003,WL,A,7.0
4,22.282999992370605,learn,37717.000007629395,Tue Nov 12 2024 15:07:42 GMT-0500 (Eastern Standard Time),553389.5,A,train,I,n,176,1,3300.2999997138977,550089.2000002861,9003,WL,A,7.0
4,22.598999977111816,learn,37401.00002288818,Tue Nov 12 2024 15:07:42 GMT-0500 (Eastern Standard Time),553705.5999999046,A,trainenter,I,enter,294,1,3616.3999996185303,550089.2000002861,9003,WL,A,7.0
4,24.382999897003174,learn,35617.000102996826,Tue Nov 12 2024 15:07:42 GMT-0500 (Eastern Standard Time),555489.5,A,m,I,m,1774,1,1783.2999997138977,553706.2000002861,9003,WL,A,8.0
4,24.56599998474121,learn,35434.00001525879,Tue Nov 12 2024 15:07:42 GMT-0500 (Eastern Standard Time),555672.4000000954,A,me,I,e,164,1,1966.1999998092651,553706.2000002861,9003,WL,A,8.0
4,24.75,learn,35250.0,Tue Nov 12 2024 15:07:42 GMT-0500 (Eastern Standard Time),555855.9000000954,A,mea,I,a,168,1,2149.699999809265,553706.2000002861,9003,WL,A,8.0
4,25.0,learn,35000.0,Tue Nov 12 2024 15:07:42 GMT-0500 (Eastern Standard Time),556106.2000002861,A,mead,I,d,229,1,2400.0,553706.2000002861,9003,WL,A,8.0
4,25.215999841690063,learn,34784.00015830994,Tue Nov 12 2024 15:07:42 GMT-0500 (Eastern Standard Time),556322.8000001907,A,meado,I,o,202,1,2616.5999999046326,553706.2000002861,9003,WL,A,8.0
4,25.399999856948853,learn,34600.00014305115,Tue Nov 12 2024 15:07:42 GMT-0500 (Eastern Standard Time),556506.0999999046,A,meadow,I,w,160,1,2799.8999996185303,553706.2000002861,9003,WL,A,8.0
4,25.66599988937378,learn,34334.00011062622,Tue Nov 12 2024 15:07:42 GMT-0500 (Eastern Standard Time),556772.3000001907,A,meadowenter,I,enter,250,1,3066.0999999046326,553706.2000002861,9003,WL,A,8.0
4,26.882999897003174,learn,33117.000102996826,Tue Nov 12 2024 15:07:42 GMT-0500 (Eastern Standard Time),557989.5999999046,A,r,I,r,1203,1,1217.0,556772.5999999046,9003,WL,A,9.0
4,27.06599998474121,learn,32934.00001525879,Tue Nov 12 2024 15:07:42 GMT-0500 (Eastern Standard Time),558172.8000001907,A,ru,I,u,158,1,1400.2000002861023,556772.5999999046,9003,WL,A,9.0
4,27.217000007629395,learn,32782.999992370605,Tue Nov 12 2024 15:07:42 GMT-0500 (Eastern Standard Time),558322.9000000954,A,rug,I,g,134,1,1550.3000001907349,556772.5999999046,9003,WL,A,9.0
4,27.48300004005432,learn,32516.99995994568,Tue Nov 12 2024 15:07:42 GMT-0500 (Eastern Standard Time),558589.0,A,rugenter,I,enter,233,1,1816.4000000953674,556772.5999999046,9003,WL,A,9.0
4,31.149999856948853,learn,28850.000143051147,Tue Nov 12 2024 15:07:42 GMT-0500 (Eastern Standard Time),562256.0999999046,A,s,I,s,3659,1,3666.8999996185303,558589.2000002861,9003,WL,A,10.0
4,31.366999864578247,learn,28633.000135421753,Tue Nov 12 2024 15:07:42 GMT-0500 (Eastern Standard Time),562472.8000001907,A,sa,I,a,197,1,3883.5999999046326,558589.2000002861,9003,WL,A,10.0
4,31.59999990463257,learn,28400.00009536743,Tue Nov 12 2024 15:07:42 GMT-0500 (Eastern Standard Time),562706.2000002861,A,sal,I,l,213,1,4117.0,558589.2000002861,9003,WL,A,10.0
4,31.98300004005432,learn,28016.99995994568,Tue Nov 12 2024 15:07:42 GMT-0500 (Eastern Standard Time),563089.3000001907,A,salt,I,t,371,1,4500.099999904633,558589.2000002861,9003,WL,A,10.0
4,32.24899983406067,learn,27751.00016593933,Tue Nov 12 2024 15:07:42 GMT-0500 (Eastern Standard Time),563355.5999999046,A,saltenter,I,enter,242,1,4766.39999961853,558589.2000002861,9003,WL,A,10.0
4,32.782999992370605,learn,27217.000007629395,Tue Nov 12 2024 15:07:42 GMT-0500 (Eastern Standard Time),563888.9000000954,A,f,I,f,522,1,533.0,563355.9000000954,9003,WL,A,11.0
4,33.01600003242493,learn,26983.999967575073,Tue Nov 12 2024 15:07:42 GMT-0500 (Eastern Standard Time),564122.7000002861,A,fi,I,i,215,1,766.8000001907349,563355.9000000954,9003,WL,A,11.0
4,33.18299984931946,learn,26817.000150680542,Tue Nov 12 2024 15:07:42 GMT-0500 (Eastern Standard Time),564289.5999999046,A,fin,I,n,147,1,933.6999998092651,563355.9000000954,9003,WL,A,11.0
4,33.950000047683716,learn,26049.999952316284,Tue Nov 12 2024 15:07:42 GMT-0500 (Eastern Standard Time),565056.0999999046,A,fing,I,g,749,1,1700.1999998092651,563355.9000000954,9003,WL,A,11.0
4,34.18299984931946,learn,25817.000150680542,Tue Nov 12 2024 15:07:42 GMT-0500 (Eastern Standard Time),565289.5,A,finge,I,e,212,1,1933.5999999046326,563355.9000000954,9003,WL,A,11.0
4,34.299999952316284,learn,25700.000047683716,Tue Nov 12 2024 15:07:42 GMT-0500 (Eastern Standard Time),565406.0999999046,A,finger,I,r,91,1,2050.199999809265,563355.9000000954,9003,WL,A,11.0
4,34.54900002479553,learn,25450.999975204468,Tue Nov 12 2024 15:07:42 GMT-0500 (Eastern Standard Time),565655.5999999046,A,fingerenter,I,enter,230,1,2299.699999809265,563355.9000000954,9003,WL,A,11.0
4,35.01699995994568,learn,24983.00004005432,Tue Nov 12 2024 15:07:42 GMT-0500 (Eastern Standard Time),566122.8000001907,A,a,I,a,448,1,466.80000019073486,565656.0,9003,WL,A,12.0
4,35.299999952316284,learn,24700.000047683716,Tue Nov 12 2024 15:07:42 GMT-0500 (Eastern Standard Time),566406.0999999046,A,ap,I,p,266,1,750.0999999046326,565656.0,9003,WL,A,12.0
4,35.5,learn,24500.0,Tue Nov 12 2024 15:07:42 GMT-0500 (Eastern Standard Time),566606.0999999046,A,app,I,p,174,1,950.0999999046326,565656.0,9003,WL,A,12.0
4,35.717000007629395,learn,24282.999992370605,Tue Nov 12 2024 15:07:42 GMT-0500 (Eastern Standard Time),566822.8000001907,A,appl,I,l,197,1,1166.8000001907349,565656.0,9003,WL,A,12.0
4,35.865999937057495,learn,24134.000062942505,Tue Nov 12 2024 15:07:42 GMT-0500 (Eastern Standard Time),566972.8000001907,A,apple,I,e,126,1,1316.8000001907349,565656.0,9003,WL,A,12.0
4,36.0,learn,24000.0,Tue Nov 12 2024 15:07:42 GMT-0500 (Eastern Standard Time),567106.0999999046,A,appler,I,r,120,1,1450.0999999046326,565656.0,9003,WL,A,12.0
4,36.24899983406067,learn,23751.00016593933,Tue Nov 12 2024 15:07:42 GMT-0500 (Eastern Standard Time),567355.5999999046,A,applerenter,I,enter,219,1,1699.5999999046326,565656.0,9003,WL,A,12.0
4,37.34999990463257,learn,22650.00009536743,Tue Nov 12 2024 15:07:42 GMT-0500 (Eastern Standard Time),568456.0,A,a,I,a,1084,1,1100.0999999046326,567355.9000000954,9003,WL,A,13.0
4,37.782999992370605,learn,22217.000007629395,Tue Nov 12 2024 15:07:42 GMT-0500 (Eastern Standard Time),568889.5,A,ap,I,p,413,1,1533.5999999046326,567355.9000000954,9003,WL,A,13.0
4,37.950000047683716,learn,22049.999952316284,Tue Nov 12 2024 15:07:42 GMT-0500 (Eastern Standard Time),569056.0999999046,A,app,I,p,155,1,1700.1999998092651,567355.9000000954,9003,WL,A,13.0
4,38.16599988937378,learn,21834.00011062622,Tue Nov 12 2024 15:07:42 GMT-0500 (Eastern Standard Time),569272.8000001907,A,appl,I,l,197,1,1916.9000000953674,567355.9000000954,9003,WL,A,13.0
4,38.33299994468689,learn,21667.00005531311,Tue Nov 12 2024 15:07:42 GMT-0500 (Eastern Standard Time),569439.0,A,apple,I,e,155,1,2083.0999999046326,567355.9000000954,9003,WL,A,13.0
4,38.54900002479553,learn,21450.999975204468,Tue Nov 12 2024 15:07:42 GMT-0500 (Eastern Standard Time),569655.5999999046,A,appleenter,I,enter,192,1,2299.699999809265,567355.9000000954,9003,WL,A,13.0
4,41.098999977111816,learn,18901.000022888184,Tue Nov 12 2024 15:07:42 GMT-0500 (Eastern Standard Time),572205.7000002861,A,c,I,c,2527,1,2549.7000002861023,569656.0,9003,WL,A,14.0
4,41.23300004005432,learn,18766.99995994568,Tue Nov 12 2024 15:07:42 GMT-0500 (Eastern Standard Time),572339.5,A,ch,I,h,122,1,2683.5,569656.0,9003,WL,A,14.0
4,41.84999990463257,learn,18150.00009536743,Tue Nov 12 2024 15:07:42 GMT-0500 (Eastern Standard Time),572956.2000002861,A,c,I,backspace,592,1,3300.2000002861023,569656.0,9003,WL,A,14.0
4,42.06599998474121,learn,17934.00001525879,Tue Nov 12 2024 15:07:42 GMT-0500 (Eastern Standard Time),573172.8000001907,A,,I,backspace,201,1,3516.800000190735,569656.0,9003,WL,A,14.0
4,42.26699995994568,learn,17733.00004005432,Tue Nov 12 2024 15:07:42 GMT-0500 (Eastern Standard Time),573372.9000000954,A,,I,backspace,170,1,3716.9000000953674,569656.0,9003,WL,A,14.0
4,45.61699986457825,learn,14383.000135421753,Tue Nov 12 2024 15:07:42 GMT-0500 (Eastern Standard Time),576722.9000000954,A,h,I,h,3329,1,7066.900000095367,569656.0,9003,WL,A,14.0
4,45.799999952316284,learn,14200.000047683716,Tue Nov 12 2024 15:07:42 GMT-0500 (Eastern Standard Time),576906.0,A,ha,I,a,161,1,7250.0,569656.0,9003,WL,A,14.0
4,45.96599984169006,learn,14034.000158309937,Tue Nov 12 2024 15:07:42 GMT-0500 (Eastern Standard Time),577072.8000001907,A,har,I,r,155,1,7416.800000190735,569656.0,9003,WL,A,14.0
4,46.31699991226196,learn,13683.000087738037,Tue Nov 12 2024 15:07:42 GMT-0500 (Eastern Standard Time),577422.9000000954,A,harp,I,p,318,1,7766.900000095367,569656.0,9003,WL,A,14.0
4,46.68299984931946,learn,13317.000150680542,Tue Nov 12 2024 15:07:42 GMT-0500 (Eastern Standard Time),577789.0,A,harpenter,I,enter,340,1,8133.0,569656.0,9003,WL,A,14.0
4,48.3989999294281,learn,11601.0000705719,Tue Nov 12 2024 15:07:42 GMT-0500 (Eastern Standard Time),579505.5999999046,A,r,I,r,1707,1,1716.1999998092651,577789.4000000954,9003,WL,A,15.0
4,48.59999990463257,learn,11400.000095367432,Tue Nov 12 2024 15:07:42 GMT-0500 (Eastern Standard Time),579706.0999999046,A,ru,I,u,179,1,1916.6999998092651,577789.4000000954,9003,WL,A,15.0
4,48.76600003242493,learn,11233.999967575073,Tue Nov 12 2024 15:07:42 GMT-0500 (Eastern Standard Time),579872.8000001907,A,rug,I,g,153,1,2083.4000000953674,577789.4000000954,9003,WL,A,15.0
4,48.99899983406067,learn,11001.000165939331,Tue Nov 12 2024 15:07:42 GMT-0500 (Eastern Standard Time),580105.5999999046,A,rugenter,I,enter,211,1,2316.199999809265,577789.4000000954,9003,WL,A,15.0
5,2.1500000953674316,learn,60000.0,Tue Nov 12 2024 15:07:42 GMT-0500 (Eastern Standard Time),651156.5999999046,A,b,I,b,2135,1,2150.199999809265,649006.4000000954,9003,WL,A,1.0
5,2.4170000553131104,learn,60000.0,Tue Nov 12 2024 15:07:42 GMT-0500 (Eastern Standard Time),651423.2000002861,A,bo,I,o,256,1,2416.800000190735,649006.4000000954,9003,WL,A,1.0
5,2.617000102996826,learn,60000.0,Tue Nov 12 2024 15:07:42 GMT-0500 (Eastern Standard Time),651622.9000000954,A,boo,I,o,178,1,2616.5,649006.4000000954,9003,WL,A,1.0
5,2.867000102996826,learn,60000.0,Tue Nov 12 2024 15:07:42 GMT-0500 (Eastern Standard Time),651872.9000000954,A,book,I,k,238,1,2866.5,649006.4000000954,9003,WL,A,1.0
5,3.366000175476074,learn,60000.0,Tue Nov 12 2024 15:07:42 GMT-0500 (Eastern Standard Time),652372.4000000954,A,bookenter,I,enter,484,1,3366.0,649006.4000000954,9003,WL,A,1.0
5,4.233000040054321,learn,60000.0,Tue Nov 12 2024 15:07:42 GMT-0500 (Eastern Standard Time),653239.7000002861,A,f,I,f,851,1,867.0,652372.7000002861,9003,WL,A,2.0
5,4.367000102996826,learn,60000.0,Tue Nov 12 2024 15:07:42 GMT-0500 (Eastern Standard Time),653373.0,A,fl,I,l,108,1,1000.2999997138977,652372.7000002861,9003,WL,A,2.0
5,4.583000183105469,learn,60000.0,Tue Nov 12 2024 15:07:42 GMT-0500 (Eastern Standard Time),653589.5,A,flo,I,o,198,1,1216.7999997138977,652372.7000002861,9003,WL,A,2.0
5,4.75,learn,60000.0,Tue Nov 12 2024 15:07:42 GMT-0500 (Eastern Standard Time),653756.0,A,flow,I,w,143,1,1383.2999997138977,652372.7000002861,9003,WL,A,2.0
5,4.900000095367432,learn,60000.0,Tue Nov 12 2024 15:07:42 GMT-0500 (Eastern Standard Time),653906.2000002861,A,flowe,I,e,135,1,1533.5,652372.7000002861,9003,WL,A,2.0
5,5.065999984741211,learn,60000.0,Tue Nov 12 2024 15:07:42 GMT-0500 (Eastern Standard Time),654072.8000001907,A,flower,I,r,140,1,1700.0999999046326,652372.7000002861,9003,WL,A,2.0
5,5.433000087738037,learn,60000.0,Tue Nov 12 2024 15:07:42 GMT-0500 (Eastern Standard Time),654439.0,A,flowerenter,I,enter,349,1,2066.2999997138977,652372.7000002861,9003,WL,A,2.0
5,14.233000040054321,learn,60000.0,Tue Nov 12 2024 15:07:42 GMT-0500 (Eastern Standard Time),663239.5,A,m,I,m,8785,1,8800.099999904633,654439.4000000954,9003,WL,A,3.0
5,14.416000127792358,learn,60000.0,Tue Nov 12 2024 15:07:42 GMT-0500 (Eastern Standard Time),663422.8000001907,A,me,I,e,173,1,8983.400000095367,654439.4000000954,9003,WL,A,3.0
5,14.616000175476074,learn,60000.0,Tue Nov 12 2024 15:07:42 GMT-0500 (Eastern Standard Time),663622.4000000954,A,mea,I,a,175,1,9183.0,654439.4000000954,9003,WL,A,3.0
5,14.867000102996826,learn,60000.0,Tue Nov 12 2024 15:07:42 GMT-0500 (Eastern Standard Time),663873.0,A,mead,I,d,238,1,9433.599999904633,654439.4000000954,9003,WL,A,3.0
5,15.100000143051147,learn,60000.0,Tue Nov 12 2024 15:07:42 GMT-0500 (Eastern Standard Time),664106.2000002861,A,meado,I,o,212,1,9666.800000190735,654439.4000000954,9003,WL,A,3.0
5,15.25,learn,60000.0,Tue Nov 12 2024 15:07:42 GMT-0500 (Eastern Standard Time),664256.0,A,meadow,I,w,131,1,9816.599999904633,654439.4000000954,9003,WL,A,3.0
5,15.633000135421753,learn,60000.0,Tue Nov 12 2024 15:07:42 GMT-0500 (Eastern Standard Time),664638.9000000954,A,meadowenter,I,enter,372,1,10199.5,654439.4000000954,9003,WL,A,3.0
5,17.117000102996826,learn,60000.0,Tue Nov 12 2024 15:07:42 GMT-0500 (Eastern Standard Time),666123.0,A,t,I,t,1464,1,1483.7999997138977,664639.2000002861,9003,WL,A,4.0
5,17.317000150680542,learn,60000.0,Tue Nov 12 2024 15:07:42 GMT-0500 (Eastern Standard Time),666322.9000000954,A,tr,I,r,186,1,1683.6999998092651,664639.2000002861,9003,WL,A,4.0
5,17.5,learn,60000.0,Tue Nov 12 2024 15:07:42 GMT-0500 (Eastern Standard Time),666506.2000002861,A,tra,I,a,154,1,1867.0,664639.2000002861,9003,WL,A,4.0
5,17.700000047683716,learn,60000.0,Tue Nov 12 2024 15:07:42 GMT-0500 (Eastern Standard Time),666706.4000000954,A,trai,I,i,186,1,2067.199999809265,664639.2000002861,9003,WL,A,4.0
5,17.91700005531311,learn,60000.0,Tue Nov 12 2024 15:07:42 GMT-0500 (Eastern Standard Time),666922.9000000954,A,train,I,n,187,1,2283.699999809265,664639.2000002861,9003,WL,A,4.0
5,18.249000072479248,learn,60000.0,Tue Nov 12 2024 15:07:42 GMT-0500 (Eastern Standard Time),667255.7000002861,A,trainenter,I,enter,313,1,2616.5,664639.2000002861,9003,WL,A,4.0
5,19.800000190734863,learn,60000.0,Tue Nov 12 2024 15:07:42 GMT-0500 (Eastern Standard Time),668805.8000001907,A,h,I,h,1536,1,1549.9000000953674,667255.9000000954,9003,WL,A,5.0
5,19.933000087738037,learn,60000.0,Tue Nov 12 2024 15:07:42 GMT-0500 (Eastern Standard Time),668939.5,A,ha,I,a,115,1,1683.5999999046326,667255.9000000954,9003,WL,A,5.0
5,20.08300018310547,learn,60000.0,Tue Nov 12 2024 15:07:42 GMT-0500 (Eastern Standard Time),669089.5,A,har,I,r,131,1,1833.5999999046326,667255.9000000954,9003,WL,A,5.0
5,20.467000007629395,learn,60000.0,Tue Nov 12 2024 15:07:42 GMT-0500 (Eastern Standard Time),669472.9000000954,A,harp,I,p,370,1,2217.0,667255.9000000954,9003,WL,A,5.0
5,20.81599998474121,learn,60000.0,Tue Nov 12 2024 15:07:42 GMT-0500 (Eastern Standard Time),669822.0999999046,A,harpenter,I,enter,324,1,2566.199999809265,667255.9000000954,9003,WL,A,5.0
5,23.15000009536743,learn,60000.0,Tue Nov 12 2024 15:07:42 GMT-0500 (Eastern Standard Time),672156.2000002861,A,s,I,s,2313,1,2333.800000190735,669822.4000000954,9003,WL,A,6.0
5,23.33300018310547,learn,60000.0,Tue Nov 12 2024 15:07:42 GMT-0500 (Eastern Standard Time),672339.5999999046,A,sa,I,a,168,1,2517.199999809265,669822.4000000954,9003,WL,A,6.0
5,23.433000087738037,learn,60000.0,Tue Nov 12 2024 15:07:42 GMT-0500 (Eastern Standard Time),672439.0999999046,A,sal,I,l,74,1,2616.699999809265,669822.4000000954,9003,WL,A,6.0
5,23.800000190734863,learn,60000.0,Tue Nov 12 2024 15:07:42 GMT-0500 (Eastern Standard Time),672806.3000001907,A,salt,I,t,352,1,2983.9000000953674,669822.4000000954,9003,WL,A,6.0
5,24.032999992370605,learn,60000.0,Tue Nov 12 2024 15:07:42 GMT-0500 (Eastern Standard Time),673039.0,A,saltenter,I,enter,221,1,3216.5999999046326,669822.4000000954,9003,WL,A,6.0
5,24.766000032424927,learn,60000.0,Tue Nov 12 2024 15:07:42 GMT-0500 (Eastern Standard Time),673772.8000001907,A,f,I,f,713,1,733.5,673039.3000001907,9003,WL,A,7.0
5,24.933000087738037,learn,60000.0,Tue Nov 12 2024 15:07:42 GMT-0500 (Eastern Standard Time),673939.4000000954,A,fi,I,i,151,1,900.0999999046326,673039.3000001907,9003,WL,A,7.0
5,25.25,learn,60000.0,Tue Nov 12 2024 15:07:42 GMT-0500 (Eastern Standard Time),674256.0999999046,A,fin,I,n,304,1,1216.7999997138977,673039.3000001907,9003,WL,A,7.0
5,25.532999992370605,learn,60000.0,Tue Nov 12 2024 15:07:42 GMT-0500 (Eastern Standard Time),674539.4000000954,A,fing,I,g,261,1,1500.0999999046326,673039.3000001907,9003,WL,A,7.0
5,25.800000190734863,learn,60000.0,Tue Nov 12 2024 15:07:42 GMT-0500 (Eastern Standard Time),674806.3000001907,A,finga,I,a,251,1,1767.0,673039.3000001907,9003,WL,A,7.0
5,26.15000009536743,learn,60000.0,Tue Nov 12 2024 15:07:42 GMT-0500 (Eastern Standard Time),675156.2000002861,A,fingar,I,r,327,1,2116.9000000953674,673039.3000001907,9003,WL,A,7.0
5,26.532999992370605,learn,60000.0,Tue Nov 12 2024 15:07:42 GMT-0500 (Eastern Standard Time),675539.0999999046,A,finga,I,backspace,367,1,2499.7999997138977,673039.3000001907,9003,WL,A,7.0
5,26.73300004005432,learn,60000.0,Tue Nov 12 2024 15:07:42 GMT-0500 (Eastern Standard Time),675739.5999999046,A,fing,I,backspace,180,1,2700.2999997138977,673039.3000001907,9003,WL,A,7.0
5,26.850000143051147,learn,60000.0,Tue Nov 12 2024 15:07:42 GMT-0500 (Eastern Standard Time),675856.0999999046,A,finge,I,e,98,1,2816.7999997138977,673039.3000001907,9003,WL,A,7.0
5,27.050000190734863,learn,60000.0,Tue Nov 12 2024 15:07:42 GMT-0500 (Eastern Standard Time),676056.3000001907,A,finger,I,r,182,1,3017.0,673039.3000001907,9003,WL,A,7.0
5,27.466000080108643,learn,60000.0,Tue Nov 12 2024 15:07:42 GMT-0500 (Eastern Standard Time),676472.4000000954,A,fingerenter,I,enter,391,1,3433.0999999046326,673039.3000001907,9003,WL,A,7.0
5,28.200000047683716,learn,60000.0,Tue Nov 12 2024 15:07:42 GMT-0500 (Eastern Standard Time),677206.3000001907,A,a,I,a,719,1,733.5999999046326,676472.7000002861,9003,WL,A,8.0
5,28.43400001525879,learn,60000.0,Tue Nov 12 2024 15:07:42 GMT-0500 (Eastern Standard Time),677440.5,A,ap,I,p,221,1,967.7999997138977,676472.7000002861,9003,WL,A,8.0
5,28.633000135421753,learn,60000.0,Tue Nov 12 2024 15:07:42 GMT-0500 (Eastern Standard Time),677639.2000002861,A,app,I,p,180,1,1166.5,676472.7000002861,9003,WL,A,8.0
5,28.850000143051147,learn,60000.0,Tue Nov 12 2024 15:07:42 GMT-0500 (Eastern Standard Time),677856.2000002861,A,appl,I,l,205,1,1383.5,676472.7000002861,9003,WL,A,8.0
5,29.067000150680542,learn,60000.0,Tue Nov 12 2024 15:07:42 GMT-0500 (Eastern Standard Time),678073.0,A,apple,I,e,197,1,1600.2999997138977,676472.7000002861,9003,WL,A,8.0
5,29.39900016784668,learn,60000.0,Tue Nov 12 2024 15:07:42 GMT-0500 (Eastern Standard Time),678405.8000001907,A,appleenter,I,enter,315,1,1933.0999999046326,676472.7000002861,9003,WL,A,8.0
5,30.317000150680542,learn,60000.0,Tue Nov 12 2024 15:07:42 GMT-0500 (Eastern Standard Time),679322.9000000954,A,r,I,r,898,1,916.8000001907349,678406.0999999046,9003,WL,A,9.0
5,30.532999992370605,learn,60000.0,Tue Nov 12 2024 15:07:42 GMT-0500 (Eastern Standard Time),679539.4000000954,A,ru,I,u,201,1,1133.3000001907349,678406.0999999046,9003,WL,A,9.0
5,30.73300004005432,learn,60000.0,Tue Nov 12 2024 15:07:42 GMT-0500 (Eastern Standard Time),679739.5999999046,A,rug,I,g,170,1,1333.5,678406.0999999046,9003,WL,A,9.0
5,31.282999992370605,learn,60000.0,Tue Nov 12 2024 15:07:42 GMT-0500 (Eastern Standard Time),680289.0999999046,A,rugenter,I,enter,537,1,1883.0,678406.0999999046,9003,WL,A,9.0
5,32.40000009536743,learn,60000.0,Tue Nov 12 2024 15:07:42 GMT-0500 (Eastern Standard Time),681406.3000001907,A,h,I,h,1094,1,1116.9000000953674,680289.4000000954,9003,WL,A,10.0
5,32.532999992370605,learn,60000.0,Tue Nov 12 2024 15:07:42 GMT-0500 (Eastern Standard Time),681539.5999999046,A,ha,I,a,119,1,1250.1999998092651,680289.4000000954,9003,WL,A,10.0
5,32.68300008773804,learn,60000.0,Tue Nov 12 2024 15:07:42 GMT-0500 (Eastern Standard Time),681689.4000000954,A,har,I,r,129,1,1400.0,680289.4000000954,9003,WL,A,10.0
5,32.98300004005432,learn,60000.0,Tue Nov 12 2024 15:07:42 GMT-0500 (Eastern Standard Time),681988.9000000954,A,harp,I,p,280,1,1699.5,680289.4000000954,9003,WL,A,10.0
5,33.41600012779236,learn,60000.0,Tue Nov 12 2024 15:07:42 GMT-0500 (Eastern Standard Time),682422.3000001907,A,harpenter,I,enter,419,1,2132.9000000953674,680289.4000000954,9003,WL,A,10.0
5,36.01700019836426,learn,60000.0,Tue Nov 12 2024 15:07:42 GMT-0500 (Eastern Standard Time),685022.9000000954,A,c,I,c,2578,1,2600.199999809265,682422.7000002861,9003,WL,A,11.0
5,36.16700005531311,learn,60000.0,Tue Nov 12 2024 15:07:42 GMT-0500 (Eastern Standard Time),685172.9000000954,A,ch,I,h,132,1,2750.199999809265,682422.7000002861,9003,WL,A,11.0
5,36.98300004005432,learn,60000.0,Tue Nov 12 2024 15:07:42 GMT-0500 (Eastern Standard Time),685989.5999999046,A,chi,I,i,800,1,3566.8999996185303,682422.7000002861,9003,WL,A,11.0
5,37.25,learn,60000.0,Tue Nov 12 2024 15:07:42 GMT-0500 (Eastern Standard Time),686256.2000002861,A,chim,I,m,255,1,3833.5,682422.7000002861,9003,WL,A,11.0
5,37.65000009536743,learn,60000.0,Tue Nov 12 2024 15:07:42 GMT-0500 (Eastern Standard Time),686656.2000002861,A,chimn,I,n,388,1,4233.5,682422.7000002861,9003,WL,A,11.0
5,37.80000019073486,learn,60000.0,Tue Nov 12 2024 15:07:42 GMT-0500 (Eastern Standard Time),686806.5,A,chimne,I,e,133,1,4383.799999713898,682422.7000002861,9003,WL,A,11.0
5,38.56700015068054,learn,60000.0,Tue Nov 12 2024 15:07:42 GMT-0500 (Eastern Standard Time),687573.0,A,chimney,I,y,743,1,5150.299999713898,682422.7000002861,9003,WL,A,11.0
5,39.098999977111816,learn,60000.0,Tue Nov 12 2024 15:07:42 GMT-0500 (Eastern Standard Time),688105.8000001907,A,chimneyenter,I,enter,511,1,5683.099999904633,682422.7000002861,9003,WL,A,11.0
5,40.85000014305115,learn,60000.0,Tue Nov 12 2024 15:07:42 GMT-0500 (Eastern Standard Time),689856.2000002861,A,k,I,k,1742,1,1750.1000003814697,688106.0999999046,9003,WL,A,12.0
5,41.01700019836426,learn,60000.0,Tue Nov 12 2024 15:07:42 GMT-0500 (Eastern Standard Time),690023.0,A,ke,I,e,147,1,1916.9000000953674,688106.0999999046,9003,WL,A,12.0
5,41.31700015068054,learn,60000.0,Tue Nov 12 2024 15:07:42 GMT-0500 (Eastern Standard Time),690323.0,A,key,I,y,279,1,2216.9000000953674,688106.0999999046,9003,WL,A,12.0
5,41.64900016784668,learn,60000.0,Tue Nov 12 2024 15:07:42 GMT-0500 (Eastern Standard Time),690655.7000002861,A,keyenter,I,enter,322,1,2549.6000003814697,688106.0999999046,9003,WL,A,12.0
5,42.25,learn,60000.0,Tue Nov 12 2024 15:07:42 GMT-0500 (Eastern Standard Time),691256.2000002861,A,b,I,b,584,1,600.1000003814697,690656.0999999046,9003,WL,A,13.0
5,42.467000007629395,learn,60000.0,Tue Nov 12 2024 15:07:42 GMT-0500 (Eastern Standard Time),691472.8000001907,A,bu,I,u,204,1,816.7000002861023,690656.0999999046,9003,WL,A,13.0
5,42.68300008773804,learn,60000.0,Tue Nov 12 2024 15:07:42 GMT-0500 (Eastern Standard Time),691689.5999999046,A,but,I,t,196,1,1033.5,690656.0999999046,9003,WL,A,13.0
5,42.83300018310547,learn,60000.0,Tue Nov 12 2024 15:07:42 GMT-0500 (Eastern Standard Time),691839.0999999046,A,butt,I,t,137,1,1183.0,690656.0999999046,9003,WL,A,13.0
5,43.0,learn,60000.0,Tue Nov 12 2024 15:07:42 GMT-0500 (Eastern Standard Time),692006.2000002861,A,butto,I,o,141,1,1350.1000003814697,690656.0999999046,9003,WL,A,13.0
5,43.21600008010864,learn,60000.0,Tue Nov 12 2024 15:07:42 GMT-0500 (Eastern Standard Time),692222.8000001907,A,button,I,n,207,1,1566.7000002861023,690656.0999999046,9003,WL,A,13.0
5,43.51600003242493,learn,60000.0,Tue Nov 12 2024 15:07:42 GMT-0500 (Eastern Standard Time),692522.3000001907,A,buttonenter,I,enter,278,1,1866.2000002861023,690656.0999999046,9003,WL,A,13.0
5,44.367000102996826,learn,60000.0,Tue Nov 12 2024 15:07:42 GMT-0500 (Eastern Standard Time),693373.4000000954,A,g,I,g,829,1,850.6999998092651,692522.7000002861,9003,WL,A,14.0
5,44.56700015068054,learn,60000.0,Tue Nov 12 2024 15:07:42 GMT-0500 (Eastern Standard Time),693573.0,A,go,I,o,186,1,1050.2999997138977,692522.7000002861,9003,WL,A,14.0
5,44.80000019073486,learn,60000.0,Tue Nov 12 2024 15:07:42 GMT-0500 (Eastern Standard Time),693806.0999999046,A,gol,I,l,208,1,1283.3999996185303,692522.7000002861,9003,WL,A,14.0
5,44.91700005531311,learn,60000.0,Tue Nov 12 2024 15:07:42 GMT-0500 (Eastern Standard Time),693922.9000000954,A,gold,I,d,102,1,1400.1999998092651,692522.7000002861,9003,WL,A,14.0
5,45.21600008010864,learn,60000.0,Tue Nov 12 2024 15:07:42 GMT-0500 (Eastern Standard Time),694222.4000000954,A,goldenter,I,enter,266,1,1699.6999998092651,692522.7000002861,9003,WL,A,14.0
5,45.967000007629395,learn,60000.0,Tue Nov 12 2024 15:07:42 GMT-0500 (Eastern Standard Time),694972.9000000954,A,l,I,l,729,1,750.1999998092651,694222.7000002861,9003,WL,A,15.0
5,46.18300008773804,learn,60000.0,Tue Nov 12 2024 15:07:42 GMT-0500 (Eastern Standard Time),695189.0,A,lo,I,o,200,1,966.2999997138977,694222.7000002861,9003,WL,A,15.0
5,46.31700015068054,learn,60000.0,Tue Nov 12 2024 15:07:42 GMT-0500 (Eastern Standard Time),695323.0999999046,A,log,I,g,114,1,1100.3999996185303,694222.7000002861,9003,WL,A,15.0
5,46.58300018310547,learn,60000.0,Tue Nov 12 2024 15:07:42 GMT-0500 (Eastern Standard Time),695589.0999999046,A,logenter,I,enter,243,1,1366.3999996185303,694222.7000002861,9003,WL,A,15.0
6,1.434000015258789,distr,58565.99998474121,Tue Nov 12 2024 15:07:42 GMT-0500 (Eastern Standard Time),768673.5,B,p,I,p,1422,1,1433.5,767240.0,9003,WL,A,1.0
6,1.7000000476837158,distr,58299.999952316284,Tue Nov 12 2024 15:07:42 GMT-0500 (Eastern Standard Time),768939.7000002861,B,po,I,o,242,1,1699.7000002861023,767240.0,9003,WL,A,1.0
6,1.9000000953674316,distr,58099.99990463257,Tue Nov 12 2024 15:07:42 GMT-0500 (Eastern Standard Time),769139.5999999046,B,poo,I,o,186,1,1899.5999999046326,767240.0,9003,WL,A,1.0
6,2.184000015258789,distr,57815.99998474121,Tue Nov 12 2024 15:07:42 GMT-0500 (Eastern Standard Time),769423.0999999046,B,pool,I,l,273,1,2183.0999999046326,767240.0,9003,WL,A,1.0
6,2.549999952316284,distr,57450.000047683716,Tue Nov 12 2024 15:07:42 GMT-0500 (Eastern Standard Time),769789.0999999046,B,poolenter,I,enter,341,1,2549.0999999046326,767240.0,9003,WL,A,1.0
6,3.0840001106262207,distr,56915.99988937378,Tue Nov 12 2024 15:07:42 GMT-0500 (Eastern Standard Time),770323.2000002861,B,c,I,c,522,1,533.8000001907349,769789.4000000954,9003,WL,A,2.0
6,3.2840001583099365,distr,56715.99984169006,Tue Nov 12 2024 15:07:42 GMT-0500 (Eastern Standard Time),770523.0,B,ch,I,h,170,1,733.5999999046326,769789.4000000954,9003,WL,A,2.0
6,3.383000135421753,distr,56616.99986457825,Tue Nov 12 2024 15:07:42 GMT-0500 (Eastern Standard Time),770622.3000001907,B,cha,I,a,90,1,832.9000000953674,769789.4000000954,9003,WL,A,2.0
6,3.617000102996826,distr,56382.999897003174,Tue Nov 12 2024 15:07:42 GMT-0500 (Eastern Standard Time),770856.3000001907,B,chai,I,i,217,1,1066.9000000953674,769789.4000000954,9003,WL,A,2.0
6,3.7840001583099365,distr,56215.99984169006,Tue Nov 12 2024 15:07:42 GMT-0500 (Eastern Standard Time),771023.0999999046,B,chair,I,r,156,1,1233.6999998092651,769789.4000000954,9003,WL,A,2.0
6,4.1000001430511475,distr,55899.99985694885,Tue Nov 12 2024 15:07:42 GMT-0500 (Eastern Standard Time),771339.0999999046,B,chairenter,I,enter,290,1,1549.6999998092651,769789.4000000954,9003,WL,A,2.0
6,4.9670000076293945,distr,55032.999992370605,Tue Nov 12 2024 15:07:42 GMT-0500 (Eastern Standard Time),772206.0999999046,B,b,I,b,844,1,866.5999999046326,771339.5,9003,WL,A,3.0
6,5.549999952316284,distr,54450.000047683716,Tue Nov 12 2024 15:07:42 GMT-0500 (Eastern Standard Time),772789.5999999046,B,,I,backspace,566,1,1450.0999999046326,771339.5,9003,WL,A,3.0
6,8.483999967575073,distr,51516.00003242493,Tue Nov 12 2024 15:07:42 GMT-0500 (Eastern Standard Time),775723.0,B,s,I,s,2906,1,4383.5,771339.5,9003,WL,A,3.0
6,8.75,distr,51250.0,Tue Nov 12 2024 15:07:42 GMT-0500 (Eastern Standard Time),775989.7000002861,B,se,I,e,247,1,4650.200000286102,771339.5,9003,WL,A,3.0
6,8.91700005531311,distr,51082.99994468689,Tue Nov 12 2024 15:07:42 GMT-0500 (Eastern Standard Time),776156.3000001907,B,see,I,e,142,1,4816.800000190735,771339.5,9003,WL,A,3.0
6,9.134000062942505,distr,50865.999937057495,Tue Nov 12 2024 15:07:42 GMT-0500 (Eastern Standard Time),776373.0,B,seed,I,d,200,1,5033.5,771339.5,9003,WL,A,3.0
6,9.400000095367432,distr,50599.99990463257,Tue Nov 12 2024 15:07:42 GMT-0500 (Eastern Standard Time),776639.0999999046,B,seedenter,I,enter,256,1,5299.599999904633,771339.5,9003,WL,A,3.0
6,9.799999952316284,distr,50200.000047683716,Tue Nov 12 2024 15:07:42 GMT-0500 (Eastern Standard Time),777039.2000002861,B,s,I,s,393,1,399.80000019073486,776639.4000000954,9003,WL,A,4.0
6,10.034000158309937,distr,49965.99984169006,Tue Nov 12 2024 15:07:42 GMT-0500 (Eastern Standard Time),777273.0,B,sh,I,h,214,1,633.5999999046326,776639.4000000954,9003,WL,A,4.0
6,10.284000158309937,distr,49715.99984169006,Tue Nov 12 2024 15:07:42 GMT-0500 (Eastern Standard Time),777522.9000000954,B,she,I,e,235,1,883.5,776639.4000000954,9003,WL,A,4.0
6,10.467000007629395,distr,49532.999992370605,Tue Nov 12 2024 15:07:42 GMT-0500 (Eastern Standard Time),777706.2000002861,B,shee,I,e,161,1,1066.8000001907349,776639.4000000954,9003,WL,A,4.0
6,10.633000135421753,distr,49366.99986457825,Tue Nov 12 2024 15:07:42 GMT-0500 (Eastern Standard Time),777872.5,B,sheep,I,p,153,1,1233.0999999046326,776639.4000000954,9003,WL,A,4.0
6,10.967000007629395,distr,49032.999992370605,Tue Nov 12 2024 15:07:42 GMT-0500 (Eastern Standard Time),778206.0999999046,B,sheepenter,I,enter,326,1,1566.6999998092651,776639.4000000954,9003,WL,A,4.0
6,16.450000047683716,distr,43549.999952316284,Tue Nov 12 2024 15:07:42 GMT-0500 (Eastern Standard Time),783689.7000002861,B,c,I,c,5466,1,5483.300000190735,778206.4000000954,9003,WL,A,5.0
6,16.634000062942505,distr,43365.999937057495,Tue Nov 12 2024 15:07:42 GMT-0500 (Eastern Standard Time),783873.0,B,ch,I,h,170,1,5666.599999904633,778206.4000000954,9003,WL,A,5.0
6,16.867000102996826,distr,43132.999897003174,Tue Nov 12 2024 15:07:42 GMT-0500 (Eastern Standard Time),784106.4000000954,B,cha,I,a,211,1,5900.0,778206.4000000954,9003,WL,A,5.0
6,17.16700005531311,distr,42832.99994468689,Tue Nov 12 2024 15:07:42 GMT-0500 (Eastern Standard Time),784406.4000000954,B,chai,I,i,276,1,6200.0,778206.4000000954,9003,WL,A,5.0
6,17.365999937057495,distr,42634.000062942505,Tue Nov 12 2024 15:07:42 GMT-0500 (Eastern Standard Time),784605.7000002861,B,chair,I,r,174,1,6399.300000190735,778206.4000000954,9003,WL,A,5.0
6,17.700000047683716,distr,42299.999952316284,Tue Nov 12 2024 15:07:42 GMT-0500 (Eastern Standard Time),784939.2000002861,B,chairenter,I,enter,310,1,6732.800000190735,778206.4000000954,9003,WL,A,5.0
6,19.850000143051147,distr,40149.99985694885,Tue Nov 12 2024 15:07:42 GMT-0500 (Eastern Standard Time),787089.5999999046,B,p,I,p,2141,1,2150.199999809265,784939.4000000954,9003,WL,A,6.0
6,20.100000143051147,distr,39899.99985694885,Tue Nov 12 2024 15:07:42 GMT-0500 (Eastern Standard Time),787339.8000001907,B,pl,I,l,227,1,2400.4000000953674,784939.4000000954,9003,WL,A,6.0
6,20.233999967575073,distr,39766.00003242493,Tue Nov 12 2024 15:07:42 GMT-0500 (Eastern Standard Time),787473.2000002861,B,pla,I,a,121,1,2533.800000190735,784939.4000000954,9003,WL,A,6.0
6,20.41700005531311,distr,39582.99994468689,Tue Nov 12 2024 15:07:42 GMT-0500 (Eastern Standard Time),787656.0,B,plan,I,n,156,1,2716.5999999046326,784939.4000000954,9003,WL,A,6.0
6,20.617000102996826,distr,39382.999897003174,Tue Nov 12 2024 15:07:42 GMT-0500 (Eastern Standard Time),787856.2000002861,B,plane,I,e,188,1,2916.800000190735,784939.4000000954,9003,WL,A,6.0
6,20.91600012779236,distr,39083.99987220764,Tue Nov 12 2024 15:07:42 GMT-0500 (Eastern Standard Time),788155.8000001907,B,planeenter,I,enter,275,1,3216.4000000953674,784939.4000000954,9003,WL,A,6.0
6,23.117000102996826,distr,36882.999897003174,Tue Nov 12 2024 15:07:42 GMT-0500 (Eastern Standard Time),790356.3000001907,B,s,I,s,2188,1,2200.2000002861023,788156.0999999046,9003,WL,A,7.0
6,23.51699995994568,distr,36483.00004005432,Tue Nov 12 2024 15:07:42 GMT-0500 (Eastern Standard Time),790755.8000001907,B,,I,backspace,385,1,2599.7000002861023,788156.0999999046,9003,WL,A,7.0
6,23.75100016593933,distr,36248.99983406067,Tue Nov 12 2024 15:07:42 GMT-0500 (Eastern Standard Time),790990.0,B,d,I,d,212,1,2833.9000000953674,788156.0999999046,9003,WL,A,7.0
6,23.93400001525879,distr,36065.99998474121,Tue Nov 12 2024 15:07:42 GMT-0500 (Eastern Standard Time),791173.2000002861,B,da,I,a,167,1,3017.1000003814697,788156.0999999046,9003,WL,A,7.0
6,24.25,distr,35750.0,Tue Nov 12 2024 15:07:42 GMT-0500 (Eastern Standard Time),791489.7000002861,B,daw,I,w,304,1,3333.6000003814697,788156.0999999046,9003,WL,A,7.0
6,24.450000047683716,distr,35549.999952316284,Tue Nov 12 2024 15:07:42 GMT-0500 (Eastern Standard Time),791689.7000002861,B,dawn,I,n,179,1,3533.6000003814697,788156.0999999046,9003,WL,A,7.0
6,24.799999952316284,distr,35200.000047683716,Tue Nov 12 2024 15:07:42 GMT-0500 (Eastern Standard Time),792039.2000002861,B,dawnenter,I,enter,324,1,3883.1000003814697,788156.0999999046,9003,WL,A,7.0
6,27.75,distr,32250.0,Tue Nov 12 2024 15:07:42 GMT-0500 (Eastern Standard Time),794989.8000001907,B,j,I,j,2928,1,2950.300000190735,792039.5,9003,WL,A,8.0
6,27.983999967575073,distr,32016.000032424927,Tue Nov 12 2024 15:07:42 GMT-0500 (Eastern Standard Time),795223.0,B,ju,I,u,214,1,3183.5,792039.5,9003,WL,A,8.0
6,28.16700005531311,distr,31832.99994468689,Tue Nov 12 2024 15:07:42 GMT-0500 (Eastern Standard Time),795406.0999999046,B,jud,I,d,155,1,3366.5999999046326,792039.5,9003,WL,A,8.0
6,28.450000047683716,distr,31549.999952316284,Tue Nov 12 2024 15:07:42 GMT-0500 (Eastern Standard Time),795689.5,B,judg,I,g,261,1,3650.0,792039.5,9003,WL,A,8.0
6,28.634000062942505,distr,31365.999937057495,Tue Nov 12 2024 15:07:42 GMT-0500 (Eastern Standard Time),795873.0999999046,B,judge,I,e,170,1,3833.5999999046326,792039.5,9003,WL,A,8.0
6,28.867000102996826,distr,31132.999897003174,Tue Nov 12 2024 15:07:42 GMT-0500 (Eastern Standard Time),796105.8000001907,B,judgeenter,I,enter,212,1,4066.300000190735,792039.5,9003,WL,A,8.0
6,33.76699995994568,distr,26233.00004005432,Tue Nov 12 2024 15:07:42 GMT-0500 (Eastern Standard Time),801006.3000001907,B,g,I,g,4876,1,4900.099999904633,796106.2000002861,9003,WL,A,9.0
6,34.01699995994568,distr,25983.00004005432,Tue Nov 12 2024 15:07:42 GMT-0500 (Eastern Standard Time),801256.4000000954,B,gr,I,r,230,1,5150.199999809265,796106.2000002861,9003,WL,A,9.0
6,34.20099997520447,distr,25799.000024795532,Tue Nov 12 2024 15:07:42 GMT-0500 (Eastern Standard Time),801440.5,B,gra,I,a,172,1,5334.299999713898,796106.2000002861,9003,WL,A,9.0
6,35.617000102996826,distr,24382.999897003174,Tue Nov 12 2024 15:07:42 GMT-0500 (Eastern Standard Time),802856.4000000954,B,gr,I,backspace,1396,1,6750.199999809265,796106.2000002861,9003,WL,A,9.0
6,35.81700015068054,distr,24182.999849319458,Tue Nov 12 2024 15:07:42 GMT-0500 (Eastern Standard Time),803056.3000001907,B,g,I,backspace,189,1,6950.099999904633,796106.2000002861,9003,WL,A,9.0
6,36.051000118255615,distr,23948.999881744385,Tue Nov 12 2024 15:07:42 GMT-0500 (Eastern Standard Time),803289.9000000954,B,,I,backspace,206,1,7183.699999809265,796106.2000002861,9003,WL,A,9.0
6,36.217000007629395,distr,23782.999992370605,Tue Nov 12 2024 15:07:42 GMT-0500 (Eastern Standard Time),803456.3000001907,B,,I,backspace,151,1,7350.099999904633,796106.2000002861,9003,WL,A,9.0
6,50.90000009536743,distr,9099.999904632568,Tue Nov 12 2024 15:07:42 GMT-0500 (Eastern Standard Time),818139.4000000954,B,b,I,b,14662,1,22033.199999809265,796106.2000002861,9003,WL,A,9.0
6,51.15000009536743,distr,8849.999904632568,Tue Nov 12 2024 15:07:42 GMT-0500 (Eastern Standard Time),818389.7000002861,B,bo,I,o,233,1,22283.5,796106.2000002861,9003,WL,A,9.0
6,51.384000062942505,distr,8615.999937057495,Tue Nov 12 2024 15:07:42 GMT-0500 (Eastern Standard Time),818623.0,B,bow,I,w,207,1,22516.799999713898,796106.2000002861,9003,WL,A,9.0
6,51.58400011062622,distr,8415.99988937378,Tue Nov 12 2024 15:07:42 GMT-0500 (Eastern Standard Time),818823.0999999046,B,bowl,I,l,176,1,22716.89999961853,796106.2000002861,9003,WL,A,9.0
6,52.01699995994568,distr,7983.000040054321,Tue Nov 12 2024 15:07:42 GMT-0500 (Eastern Standard Time),819255.9000000954,B,bowlenter,I,enter,413,1,23149.699999809265,796106.2000002861,9003,WL,A,9.0
6,60.01699995994568,distr,-16.99995994567871,Tue Nov 12 2024 15:07:42 GMT-0500 (Eastern Standard Time),827256.5,B,None,I,None,7993,1,8000.199999809265,819256.3000001907,9003,WL,A,10.0
7,4.865999937057495,immed,55134.000062942505,Tue Nov 12 2024 15:07:42 GMT-0500 (Eastern Standard Time),846072.5,A,c,I,c,4847,1,4865.599999904633,841206.9000000954,9003,WL,A,1.0
7,5.016999959945679,immed,54983.00004005432,Tue Nov 12 2024 15:07:42 GMT-0500 (Eastern Standard Time),846223.0999999046,A,ch,I,h,127,1,5016.199999809265,841206.9000000954,9003,WL,A,1.0
7,5.25,immed,54750.0,Tue Nov 12 2024 15:07:42 GMT-0500 (Eastern Standard Time),846456.4000000954,A,chi,I,i,214,1,5249.5,841206.9000000954,9003,WL,A,1.0
7,5.5329999923706055,immed,54467.000007629395,Tue Nov 12 2024 15:07:42 GMT-0500 (Eastern Standard Time),846739.8000001907,A,chim,I,m,268,1,5532.900000095367,841206.9000000954,9003,WL,A,1.0
7,5.9670000076293945,immed,54032.999992370605,Tue Nov 12 2024 15:07:42 GMT-0500 (Eastern Standard Time),847173.2000002861,A,chimn,I,n,410,1,5966.300000190735,841206.9000000954,9003,WL,A,1.0
7,6.183000087738037,immed,53816.99991226196,Tue Nov 12 2024 15:07:42 GMT-0500 (Eastern Standard Time),847389.9000000954,A,chimne,I,e,189,1,6183.0,841206.9000000954,9003,WL,A,1.0
7,6.3500001430511475,immed,53649.99985694885,Tue Nov 12 2024 15:07:42 GMT-0500 (Eastern Standard Time),847556.3000001907,A,chimney,I,y,144,1,6349.400000095367,841206.9000000954,9003,WL,A,1.0
7,6.733000040054321,immed,53266.99995994568,Tue Nov 12 2024 15:07:42 GMT-0500 (Eastern Standard Time),847939.3000001907,A,chimneyenter,I,enter,365,1,6732.400000095367,841206.9000000954,9003,WL,A,1.0
7,8.383000135421753,immed,51616.99986457825,Tue Nov 12 2024 15:07:42 GMT-0500 (Eastern Standard Time),849589.7000002861,A,b,I,b,1638,1,1650.1000003814697,847939.5999999046,9003,WL,A,2.0
7,8.600000143051147,immed,51399.99985694885,Tue Nov 12 2024 15:07:42 GMT-0500 (Eastern Standard Time),849806.5,A,bo,I,o,188,1,1866.9000000953674,847939.5999999046,9003,WL,A,2.0
7,8.766999959945679,immed,51233.00004005432,Tue Nov 12 2024 15:07:42 GMT-0500 (Eastern Standard Time),849974.0999999046,A,boo,I,o,143,1,2034.5,847939.5999999046,9003,WL,A,2.0
7,9.032999992370605,immed,50967.000007629395,Tue Nov 12 2024 15:07:42 GMT-0500 (Eastern Standard Time),850239.3000001907,A,book,I,k,254,1,2299.7000002861023,847939.5999999046,9003,WL,A,2.0
7,9.350000143051147,immed,50649.99985694885,Tue Nov 12 2024 15:07:42 GMT-0500 (Eastern Standard Time),850556.0,A,bookenter,I,enter,286,1,2616.4000000953674,847939.5999999046,9003,WL,A,2.0
7,10.400000095367432,immed,49599.99990463257,Tue Nov 12 2024 15:07:42 GMT-0500 (Eastern Standard Time),851606.4000000954,A,m,I,m,1036,1,1050.0999999046326,850556.3000001907,9003,WL,A,3.0
7,10.66700005531311,immed,49332.99994468689,Tue Nov 12 2024 15:07:42 GMT-0500 (Eastern Standard Time),851873.0999999046,A,me,I,e,253,1,1316.7999997138977,850556.3000001907,9003,WL,A,3.0
7,10.782999992370605,immed,49217.000007629395,Tue Nov 12 2024 15:07:42 GMT-0500 (Eastern Standard Time),851989.8000001907,A,mea,I,a,99,1,1433.5,850556.3000001907,9003,WL,A,3.0
7,11.183000087738037,immed,48816.99991226196,Tue Nov 12 2024 15:07:42 GMT-0500 (Eastern Standard Time),852389.7000002861,A,mead,I,d,376,1,1833.4000000953674,850556.3000001907,9003,WL,A,3.0
7,11.483000040054321,immed,48516.99995994568,Tue Nov 12 2024 15:07:42 GMT-0500 (Eastern Standard Time),852689.8000001907,A,meado,I,o,287,1,2133.5,850556.3000001907,9003,WL,A,3.0
7,11.650000095367432,immed,48349.99990463257,Tue Nov 12 2024 15:07:42 GMT-0500 (Eastern Standard Time),852856.4000000954,A,meadow,I,w,146,1,2300.0999999046326,850556.3000001907,9003,WL,A,3.0
7,11.983000040054321,immed,48016.99995994568,Tue Nov 12 2024 15:07:42 GMT-0500 (Eastern Standard Time),853189.2000002861,A,meadowenter,I,enter,317,1,2632.9000000953674,850556.3000001907,9003,WL,A,3.0
7,13.183000087738037,immed,46816.99991226196,Tue Nov 12 2024 15:07:42 GMT-0500 (Eastern Standard Time),854389.8000001907,A,r,I,r,1186,1,1200.3000001907349,853189.5,9003,WL,A,4.0
7,13.41700005531311,immed,46582.99994468689,Tue Nov 12 2024 15:07:42 GMT-0500 (Eastern Standard Time),854623.0,A,ru,I,u,201,1,1433.5,853189.5,9003,WL,A,4.0
7,13.600000143051147,immed,46399.99985694885,Tue Nov 12 2024 15:07:42 GMT-0500 (Eastern Standard Time),854806.5,A,rug,I,g,165,1,1617.0,853189.5,9003,WL,A,4.0
7,13.865999937057495,immed,46134.000062942505,Tue Nov 12 2024 15:07:42 GMT-0500 (Eastern Standard Time),855072.5,A,rugenter,I,enter,247,1,1883.0,853189.5,9003,WL,A,4.0
7,14.549999952316284,immed,45450.000047683716,Tue Nov 12 2024 15:07:42 GMT-0500 (Eastern Standard Time),855756.5,A,k,I,k,663,1,683.5,855073.0,9003,WL,A,5.0
7,14.717000007629395,immed,45282.999992370605,Tue Nov 12 2024 15:07:42 GMT-0500 (Eastern Standard Time),855923.2000002861,A,ke,I,e,152,1,850.2000002861023,855073.0,9003,WL,A,5.0
7,15.282999992370605,immed,44717.000007629395,Tue Nov 12 2024 15:07:42 GMT-0500 (Eastern Standard Time),856489.8000001907,A,key,I,y,538,1,1416.8000001907349,855073.0,9003,WL,A,5.0
7,15.666000127792358,immed,44333.99987220764,Tue Nov 12 2024 15:07:42 GMT-0500 (Eastern Standard Time),856872.5,A,keyenter,I,enter,362,1,1799.5,855073.0,9003,WL,A,5.0
7,16.350000143051147,immed,43649.99985694885,Tue Nov 12 2024 15:07:42 GMT-0500 (Eastern Standard Time),857556.5,A,l,I,l,672,1,683.5999999046326,856872.9000000954,9003,WL,A,6.0
7,16.58299994468689,immed,43417.00005531311,Tue Nov 12 2024 15:07:42 GMT-0500 (Eastern Standard Time),857789.8000001907,A,lo,I,o,207,1,916.9000000953674,856872.9000000954,9003,WL,A,6.0
7,16.766000032424927,immed,43233.99996757507,Tue Nov 12 2024 15:07:42 GMT-0500 (Eastern Standard Time),857972.5999999046,A,log,I,g,167,1,1099.6999998092651,856872.9000000954,9003,WL,A,6.0
7,17.016000032424927,immed,42983.99996757507,Tue Nov 12 2024 15:07:42 GMT-0500 (Eastern Standard Time),858222.4000000954,A,logenter,I,enter,243,1,1349.5,856872.9000000954,9003,WL,A,6.0
7,19.299999952316284,immed,40700.000047683716,Tue Nov 12 2024 15:07:42 GMT-0500 (Eastern Standard Time),860506.5,A,b,I,b,2265,1,2283.7999997138977,858222.7000002861,9003,WL,A,7.0
7,19.48300004005432,immed,40516.99995994568,Tue Nov 12 2024 15:07:42 GMT-0500 (Eastern Standard Time),860689.8000001907,A,bu,I,u,170,1,2467.0999999046326,858222.7000002861,9003,WL,A,7.0
7,19.700000047683716,immed,40299.999952316284,Tue Nov 12 2024 15:07:42 GMT-0500 (Eastern Standard Time),860906.5,A,but,I,t,196,1,2683.7999997138977,858222.7000002861,9003,WL,A,7.0
7,19.850000143051147,immed,40149.99985694885,Tue Nov 12 2024 15:07:42 GMT-0500 (Eastern Standard Time),861056.2000002861,A,butt,I,t,139,1,2833.5,858222.7000002861,9003,WL,A,7.0
7,20.0,immed,40000.0,Tue Nov 12 2024 15:07:42 GMT-0500 (Eastern Standard Time),861206.5,A,butto,I,o,133,1,2983.7999997138977,858222.7000002861,9003,WL,A,7.0
7,20.23300004005432,immed,39766.99995994568,Tue Nov 12 2024 15:07:42 GMT-0500 (Eastern Standard Time),861439.4000000954,A,button,I,n,222,1,3216.699999809265,858222.7000002861,9003,WL,A,7.0
7,20.58299994468689,immed,39417.00005531311,Tue Nov 12 2024 15:07:42 GMT-0500 (Eastern Standard Time),861789.2000002861,A,buttonenter,I,enter,326,1,3566.5,858222.7000002861,9003,WL,A,7.0
7,23.700000047683716,immed,36299.999952316284,Tue Nov 12 2024 15:07:42 GMT-0500 (Eastern Standard Time),864906.3000001907,A,k,I,k,3098,1,3116.7000002861023,861789.5999999046,9003,WL,A,8.0
7,23.91700005531311,immed,36082.99994468689,Tue Nov 12 2024 15:07:42 GMT-0500 (Eastern Standard Time),865123.0999999046,A,ke,I,e,202,1,3333.5,861789.5999999046,9003,WL,A,8.0
7,24.317000150680542,immed,35682.99984931946,Tue Nov 12 2024 15:07:42 GMT-0500 (Eastern Standard Time),865523.2000002861,A,key,I,y,379,1,3733.6000003814697,861789.5999999046,9003,WL,A,8.0
7,24.75,immed,35250.0,Tue Nov 12 2024 15:07:42 GMT-0500 (Eastern Standard Time),865955.9000000954,A,keyenter,I,enter,416,1,4166.300000190735,861789.5999999046,9003,WL,A,8.0
7,28.73300004005432,immed,31266.99995994568,Tue Nov 12 2024 15:07:42 GMT-0500 (Eastern Standard Time),869939.8000001907,A,h,I,h,3973,1,3983.5,865956.3000001907,9003,WL,A,9.0
7,28.883000135421753,immed,31116.999864578247,Tue Nov 12 2024 15:07:42 GMT-0500 (Eastern Standard Time),870089.7000002861,A,ha,I,a,121,1,4133.400000095367,865956.3000001907,9003,WL,A,9.0
7,29.08299994468689,immed,30917.00005531311,Tue Nov 12 2024 15:07:42 GMT-0500 (Eastern Standard Time),870289.8000001907,A,har,I,r,187,1,4333.5,865956.3000001907,9003,WL,A,9.0
7,29.40000009536743,immed,30599.99990463257,Tue Nov 12 2024 15:07:42 GMT-0500 (Eastern Standard Time),870606.5999999046,A,harp,I,p,292,1,4650.299999713898,865956.3000001907,9003,WL,A,9.0
7,29.73300004005432,immed,30266.99995994568,Tue Nov 12 2024 15:07:42 GMT-0500 (Eastern Standard Time),870939.0999999046,A,harpenter,I,enter,310,1,4982.799999713898,865956.3000001907,9003,WL,A,9.0
7,33.81599998474121,immed,26184.00001525879,Tue Nov 12 2024 15:07:42 GMT-0500 (Eastern Standard Time),875022.4000000954,A,a,I,a,4077,1,4082.9000000953674,870939.5,9003,WL,A,10.0
7,34.117000102996826,immed,25882.999897003174,Tue Nov 12 2024 15:07:42 GMT-0500 (Eastern Standard Time),875323.2000002861,A,ap,I,p,281,1,4383.700000286102,870939.5,9003,WL,A,10.0
7,34.33299994468689,immed,25667.00005531311,Tue Nov 12 2024 15:07:42 GMT-0500 (Eastern Standard Time),875539.3000001907,A,app,I,p,202,1,4599.800000190735,870939.5,9003,WL,A,10.0
7,34.700000047683716,immed,25299.999952316284,Tue Nov 12 2024 15:07:42 GMT-0500 (Eastern Standard Time),875906.3000001907,A,appe,I,e,358,1,4966.800000190735,870939.5,9003,WL,A,10.0
7,35.13300013542175,immed,24866.999864578247,Tue Nov 12 2024 15:07:42 GMT-0500 (Eastern Standard Time),876339.8000001907,A,app,I,backspace,419,1,5400.300000190735,870939.5,9003,WL,A,10.0
7,35.5,immed,24500.0,Tue Nov 12 2024 15:07:42 GMT-0500 (Eastern Standard Time),876706.5,A,appl,I,l,355,1,5767.0,870939.5,9003,WL,A,10.0
7,35.65000009536743,immed,24349.99990463257,Tue Nov 12 2024 15:07:42 GMT-0500 (Eastern Standard Time),876856.4000000954,A,apple,I,e,131,1,5916.900000095367,870939.5,9003,WL,A,10.0
7,35.85000014305115,immed,24149.999856948853,Tue Nov 12 2024 15:07:42 GMT-0500 (Eastern Standard Time),877055.9000000954,A,appleenter,I,enter,184,1,6116.400000095367,870939.5,9003,WL,A,10.0
7,36.217000007629395,immed,23782.999992370605,Tue Nov 12 2024 15:07:42 GMT-0500 (Eastern Standard Time),877423.4000000954,A,s,I,s,361,1,367.19999980926514,877056.2000002861,9003,WL,A,11.0
7,36.43300008773804,immed,23566.999912261963,Tue Nov 12 2024 15:07:42 GMT-0500 (Eastern Standard Time),877639.5,A,sa,I,a,197,1,583.2999997138977,877056.2000002861,9003,WL,A,11.0
7,36.56700015068054,immed,23432.999849319458,Tue Nov 12 2024 15:07:42 GMT-0500 (Eastern Standard Time),877773.2000002861,A,sal,I,l,109,1,717.0,877056.2000002861,9003,WL,A,11.0
7,36.98300004005432,immed,23016.99995994568,Tue Nov 12 2024 15:07:42 GMT-0500 (Eastern Standard Time),878189.9000000954,A,salt,I,t,390,1,1133.6999998092651,877056.2000002861,9003,WL,A,11.0
7,37.365999937057495,immed,22634.000062942505,Tue Nov 12 2024 15:07:42 GMT-0500 (Eastern Standard Time),878572.5999999046,A,saltenter,I,enter,360,1,1516.3999996185303,877056.2000002861,9003,WL,A,11.0
7,38.049999952316284,immed,21950.000047683716,Tue Nov 12 2024 15:07:42 GMT-0500 (Eastern Standard Time),879256.5999999046,A,f,I,f,667,1,683.5999999046326,878573.0,9003,WL,A,12.0
7,38.23300004005432,immed,21766.99995994568,Tue Nov 12 2024 15:07:42 GMT-0500 (Eastern Standard Time),879439.4000000954,A,fi,I,i,172,1,866.4000000953674,878573.0,9003,WL,A,12.0
7,38.46600008010864,immed,21533.999919891357,Tue Nov 12 2024 15:07:42 GMT-0500 (Eastern Standard Time),879672.5,A,fin,I,n,207,1,1099.5,878573.0,9003,WL,A,12.0
7,38.63300013542175,immed,21366.999864578247,Tue Nov 12 2024 15:07:42 GMT-0500 (Eastern Standard Time),879839.4000000954,A,fing,I,g,160,1,1266.4000000953674,878573.0,9003,WL,A,12.0
7,38.88300013542175,immed,21116.999864578247,Tue Nov 12 2024 15:07:42 GMT-0500 (Eastern Standard Time),880089.7000002861,A,finge,I,e,231,1,1516.7000002861023,878573.0,9003,WL,A,12.0
7,39.06700015068054,immed,20932.999849319458,Tue Nov 12 2024 15:07:42 GMT-0500 (Eastern Standard Time),880273.0999999046,A,finger,I,r,171,1,1700.0999999046326,878573.0,9003,WL,A,12.0
7,39.81599998474121,immed,20184.00001525879,Tue Nov 12 2024 15:07:42 GMT-0500 (Eastern Standard Time),881022.5999999046,A,fingerenter,I,enter,718,1,2449.5999999046326,878573.0,9003,WL,A,12.0
7,44.25,immed,15750.0,Tue Nov 12 2024 15:07:42 GMT-0500 (Eastern Standard Time),885456.3000001907,A,g,I,g,4425,1,4433.300000190735,881023.0,9003,WL,A,13.0
7,44.5,immed,15500.0,Tue Nov 12 2024 15:07:42 GMT-0500 (Eastern Standard Time),885706.4000000954,A,go,I,o,226,1,4683.400000095367,881023.0,9003,WL,A,13.0
7,44.68300008773804,immed,15316.999912261963,Tue Nov 12 2024 15:07:42 GMT-0500 (Eastern Standard Time),885889.3000001907,A,gol,I,l,170,1,4866.300000190735,881023.0,9003,WL,A,13.0
7,44.81700015068054,immed,15182.999849319458,Tue Nov 12 2024 15:07:42 GMT-0500 (Eastern Standard Time),886023.0,A,gold,I,d,119,1,5000.0,881023.0,9003,WL,A,13.0
7,45.06599998474121,immed,14934.000015258789,Tue Nov 12 2024 15:07:42 GMT-0500 (Eastern Standard Time),886272.5999999046,A,goldenter,I,enter,234,1,5249.599999904633,881023.0,9003,WL,A,13.0
7,60.01699995994568,immed,-16.99995994567871,Tue Nov 12 2024 15:07:42 GMT-0500 (Eastern Standard Time),901223.2000002861,A,None,I,None,14944,1,14950.300000190735,886272.9000000954,9003,WL,A,14.0
