block_c,block_dur,condition,countdown,datetime,endtime,list,multichar_response,project,response,response_time,session_number,start_end,starttime,subject_id,task,task_vers,trial
,,,,Fri Mar 28 2025 13:44:20 GMT-0500 (Central Daylight Time),,,,O,space,634,1,,,7114,WL,C,
prac,,0,,Fri Mar 28 2025 13:44:20 GMT-0500 (Central Daylight Time),,NA,b,O,b,3906,1,,,7114,WL,C,1.0
prac,,0,,Fri Mar 28 2025 13:44:20 GMT-0500 (Central Daylight Time),,NA,bo,O,o,532,1,,,7114,WL,C,1.0
prac,,0,,Fri Mar 28 2025 13:44:20 GMT-0500 (Central Daylight Time),,NA,boo,O,o,118,1,,,7114,WL,C,1.0
prac,,0,,Fri Mar 28 2025 13:44:20 GMT-0500 (Central Daylight Time),,NA,boos,O,s,758,1,,,7114,WL,C,1.0
prac,,0,,Fri Mar 28 2025 13:44:20 GMT-0500 (Central Daylight Time),,NA,boost,O,t,204,1,,,7114,WL,C,1.0
prac,,0,,Fri Mar 28 2025 13:44:20 GMT-0500 (Central Daylight Time),,NA,boostenter,O,enter,687,1,,,7114,WL,C,1.0
1,2.6669998168945312,learn,57333.00018310547,Fri Mar 28 2025 13:44:20 GMT-0500 (Central Daylight Time),130989.60000002384,A,c,O,c,2638,1,2665.5,128324.10000002384,7114,WL,C,1.0
1,2.7659997940063477,learn,57234.00020599365,Fri Mar 28 2025 13:44:20 GMT-0500 (Central Daylight Time),131088.39999997616,A,ci,O,i,54,1,2764.2999999523163,128324.10000002384,7114,WL,C,1.0
1,2.932999849319458,learn,57067.00015068054,Fri Mar 28 2025 13:44:20 GMT-0500 (Central Daylight Time),131255.5,A,cir,O,r,153,1,2931.399999976158,128324.10000002384,7114,WL,C,1.0
1,3.1659998893737793,learn,56834.00011062622,Fri Mar 28 2025 13:44:20 GMT-0500 (Central Daylight Time),131488.70000004768,A,cirb,O,b,191,1,3164.600000023842,128324.10000002384,7114,WL,C,1.0
1,3.8329999446868896,learn,56167.00005531311,Fri Mar 28 2025 13:44:20 GMT-0500 (Central Daylight Time),132155.10000002384,A,cir,O,backspace,621,1,3831.0,128324.10000002384,7114,WL,C,1.0
1,4.498999834060669,learn,55501.00016593933,Fri Mar 28 2025 13:44:20 GMT-0500 (Central Daylight Time),132821.70000004768,A,ci,O,backspace,628,1,4497.600000023842,128324.10000002384,7114,WL,C,1.0
1,4.698999881744385,learn,55301.000118255615,Fri Mar 28 2025 13:44:20 GMT-0500 (Central Daylight Time),133021.20000004768,A,c,O,backspace,164,1,4697.100000023842,128324.10000002384,7114,WL,C,1.0
1,5.048999786376953,learn,54951.00021362305,Fri Mar 28 2025 13:44:20 GMT-0500 (Central Daylight Time),133371.20000004768,A,,O,backspace,310,1,5047.100000023842,128324.10000002384,7114,WL,C,1.0
1,7.697999954223633,learn,52302.00004577637,Fri Mar 28 2025 13:44:20 GMT-0500 (Central Daylight Time),136020.39999997616,A,c,O,c,2613,1,7696.299999952316,128324.10000002384,7114,WL,C,1.0
1,7.864999771118164,learn,52135.000228881836,Fri Mar 28 2025 13:44:20 GMT-0500 (Central Daylight Time),136187.20000004768,A,co,O,o,136,1,7863.100000023842,128324.10000002384,7114,WL,C,1.0
1,8.06499981880188,learn,51935.00018119812,Fri Mar 28 2025 13:44:20 GMT-0500 (Central Daylight Time),136387.20000004768,A,cor,O,r,169,1,8063.100000023842,128324.10000002384,7114,WL,C,1.0
1,8.264999866485596,learn,51735.000133514404,Fri Mar 28 2025 13:44:20 GMT-0500 (Central Daylight Time),136587.0,A,corn,O,n,157,1,8262.899999976158,128324.10000002384,7114,WL,C,1.0
1,8.679999828338623,learn,51320.00017166138,Fri Mar 28 2025 13:44:20 GMT-0500 (Central Daylight Time),137002.5,A,cornenter,O,enter,371,1,8678.399999976158,128324.10000002384,7114,WL,C,1.0
1,10.346999883651733,learn,49653.00011634827,Fri Mar 28 2025 13:44:20 GMT-0500 (Central Daylight Time),138669.80000007153,A,b,O,b,1650,1,1666.9000000953674,137002.89999997616,7114,WL,C,2.0
1,10.629999876022339,learn,49370.00012397766,Fri Mar 28 2025 13:44:20 GMT-0500 (Central Daylight Time),138952.89999997616,A,bo,O,o,243,1,1950.0,137002.89999997616,7114,WL,C,2.0
1,10.96399998664856,learn,49036.00001335144,Fri Mar 28 2025 13:44:20 GMT-0500 (Central Daylight Time),139286.0,A,boy,O,y,293,1,2283.100000023842,137002.89999997616,7114,WL,C,2.0
1,11.228999853134155,learn,48771.000146865845,Fri Mar 28 2025 13:44:20 GMT-0500 (Central Daylight Time),139551.60000002384,A,boyenter,O,enter,232,1,2548.7000000476837,137002.89999997616,7114,WL,C,2.0
1,11.496999979019165,learn,48503.000020980835,Fri Mar 28 2025 13:44:20 GMT-0500 (Central Daylight Time),139819.20000004768,A,s,O,s,253,1,267.10000002384186,139552.10000002384,7114,WL,C,3.0
1,11.646999835968018,learn,48353.00016403198,Fri Mar 28 2025 13:44:20 GMT-0500 (Central Daylight Time),139969.10000002384,A,sh,O,h,123,1,417.0,139552.10000002384,7114,WL,C,3.0
1,11.896999835968018,learn,48103.00016403198,Fri Mar 28 2025 13:44:20 GMT-0500 (Central Daylight Time),140219.10000002384,A,sho,O,o,214,1,667.0,139552.10000002384,7114,WL,C,3.0
1,11.978999853134155,learn,48021.000146865845,Fri Mar 28 2025 13:44:20 GMT-0500 (Central Daylight Time),140301.39999997616,A,shor,O,r,49,1,749.2999999523163,139552.10000002384,7114,WL,C,3.0
1,12.062999963760376,learn,47937.000036239624,Fri Mar 28 2025 13:44:20 GMT-0500 (Central Daylight Time),140385.89999997616,A,shore,O,e,66,1,833.7999999523163,139552.10000002384,7114,WL,C,3.0
1,12.461999893188477,learn,47538.00010681152,Fri Mar 28 2025 13:44:20 GMT-0500 (Central Daylight Time),140784.60000002384,A,shoreenter,O,enter,369,1,1232.5,139552.10000002384,7114,WL,C,3.0
1,12.894999980926514,learn,47105.000019073486,Fri Mar 28 2025 13:44:20 GMT-0500 (Central Daylight Time),141217.70000004768,A,q,O,q,410,1,432.7000000476837,140785.0,7114,WL,C,4.0
1,13.02899980545044,learn,46971.00019454956,Fri Mar 28 2025 13:44:20 GMT-0500 (Central Daylight Time),141351.10000002384,A,qu,O,u,121,1,566.1000000238419,140785.0,7114,WL,C,4.0
1,13.262999773025513,learn,46737.00022697449,Fri Mar 28 2025 13:44:20 GMT-0500 (Central Daylight Time),141585.30000007153,A,que,O,e,213,1,800.3000000715256,140785.0,7114,WL,C,4.0
1,13.395999908447266,learn,46604.000091552734,Fri Mar 28 2025 13:44:20 GMT-0500 (Central Daylight Time),141718.39999997616,A,quee,O,e,102,1,933.3999999761581,140785.0,7114,WL,C,4.0
1,13.52899980545044,learn,46471.00019454956,Fri Mar 28 2025 13:44:20 GMT-0500 (Central Daylight Time),141851.80000007153,A,queen,O,n,98,1,1066.8000000715256,140785.0,7114,WL,C,4.0
1,13.894999980926514,learn,46105.000019073486,Fri Mar 28 2025 13:44:20 GMT-0500 (Central Daylight Time),142217.5,A,queenenter,O,enter,330,1,1432.5,140785.0,7114,WL,C,4.0
1,14.296000003814697,learn,45703.9999961853,Fri Mar 28 2025 13:44:20 GMT-0500 (Central Daylight Time),142618.20000004768,A,f,O,f,388,1,400.39999997615814,142217.80000007153,7114,WL,C,5.0
1,14.478999853134155,learn,45521.000146865845,Fri Mar 28 2025 13:44:20 GMT-0500 (Central Daylight Time),142801.5,A,fl,O,l,141,1,583.6999999284744,142217.80000007153,7114,WL,C,5.0
1,14.711999893188477,learn,45288.00010681152,Fri Mar 28 2025 13:44:20 GMT-0500 (Central Daylight Time),143034.80000007153,A,flo,O,o,198,1,817.0,142217.80000007153,7114,WL,C,5.0
1,14.827999830245972,learn,45172.00016975403,Fri Mar 28 2025 13:44:20 GMT-0500 (Central Daylight Time),143150.89999997616,A,flow,O,w,74,1,933.0999999046326,142217.80000007153,7114,WL,C,5.0
1,14.894999980926514,learn,45105.000019073486,Fri Mar 28 2025 13:44:20 GMT-0500 (Central Daylight Time),143217.30000007153,A,flowe,O,e,45,1,999.5,142217.80000007153,7114,WL,C,5.0
1,14.961999893188477,learn,45038.00010681152,Fri Mar 28 2025 13:44:20 GMT-0500 (Central Daylight Time),143284.10000002384,A,flower,O,r,53,1,1066.2999999523163,142217.80000007153,7114,WL,C,5.0
1,15.260999917984009,learn,44739.00008201599,Fri Mar 28 2025 13:44:20 GMT-0500 (Central Daylight Time),143583.70000004768,A,flowerenter,O,enter,280,1,1365.8999999761581,142217.80000007153,7114,WL,C,5.0
1,15.562999963760376,learn,44437.000036239624,Fri Mar 28 2025 13:44:20 GMT-0500 (Central Daylight Time),143885.20000004768,A,w,O,w,294,1,301.3000000715256,143583.89999997616,7114,WL,C,6.0
1,15.728999853134155,learn,44271.000146865845,Fri Mar 28 2025 13:44:20 GMT-0500 (Central Daylight Time),144051.20000004768,A,wh,O,h,133,1,467.3000000715256,143583.89999997616,7114,WL,C,6.0
1,15.79699993133545,learn,44203.00006866455,Fri Mar 28 2025 13:44:20 GMT-0500 (Central Daylight Time),144119.89999997616,A,whe,O,e,40,1,536.0,143583.89999997616,7114,WL,C,6.0
1,15.961999893188477,learn,44038.00010681152,Fri Mar 28 2025 13:44:20 GMT-0500 (Central Daylight Time),144284.5,A,whea,O,a,142,1,700.6000000238419,143583.89999997616,7114,WL,C,6.0
1,16.060999870300293,learn,43939.00012969971,Fri Mar 28 2025 13:44:20 GMT-0500 (Central Daylight Time),144383.5,A,wheat,O,t,69,1,799.6000000238419,143583.89999997616,7114,WL,C,6.0
1,16.66099977493286,learn,43339.00022506714,Fri Mar 28 2025 13:44:20 GMT-0500 (Central Daylight Time),144983.20000004768,A,wheatenter,O,enter,577,1,1399.3000000715256,143583.89999997616,7114,WL,C,6.0
1,24.575999975204468,learn,35424.00002479553,Fri Mar 28 2025 13:44:20 GMT-0500 (Central Daylight Time),152898.10000002384,A,t,O,t,7902,1,7914.600000023842,144983.5,7114,WL,C,7.0
1,24.691999912261963,learn,35308.00008773804,Fri Mar 28 2025 13:44:20 GMT-0500 (Central Daylight Time),153014.39999997616,A,to,O,o,90,1,8030.899999976158,144983.5,7114,WL,C,7.0
1,24.79199981689453,learn,35208.00018310547,Fri Mar 28 2025 13:44:20 GMT-0500 (Central Daylight Time),153114.70000004768,A,tow,O,w,79,1,8131.200000047684,144983.5,7114,WL,C,7.0
1,24.875,learn,35125.0,Fri Mar 28 2025 13:44:20 GMT-0500 (Central Daylight Time),153197.10000002384,A,towe,O,e,49,1,8213.600000023842,144983.5,7114,WL,C,7.0
1,24.95899987220764,learn,35041.00012779236,Fri Mar 28 2025 13:44:20 GMT-0500 (Central Daylight Time),153281.60000002384,A,tower,O,r,62,1,8298.100000023842,144983.5,7114,WL,C,7.0
1,25.557999849319458,learn,34442.00015068054,Fri Mar 28 2025 13:44:20 GMT-0500 (Central Daylight Time),153880.20000004768,A,towerenter,O,enter,569,1,8896.700000047684,144983.5,7114,WL,C,7.0
1,60.013999938964844,learn,-13.99993896484375,Fri Mar 28 2025 13:44:20 GMT-0500 (Central Daylight Time),188336.0,A,None,O,None,34449,1,34455.39999997616,153880.60000002384,7114,WL,C,8.0
2,2.7990000247955322,learn,57200.99997520447,Fri Mar 28 2025 13:44:20 GMT-0500 (Central Daylight Time),269876.89999997616,A,s,O,s,2771,1,2798.399999976158,267078.5,7114,WL,C,1.0
2,2.9149999618530273,learn,57085.00003814697,Fri Mar 28 2025 13:44:20 GMT-0500 (Central Daylight Time),269993.5,A,sh,O,h,90,1,2915.0,267078.5,7114,WL,C,1.0
2,3.0979998111724854,learn,56902.000188827515,Fri Mar 28 2025 13:44:20 GMT-0500 (Central Daylight Time),270176.10000002384,A,sho,O,o,152,1,3097.600000023842,267078.5,7114,WL,C,1.0
2,3.3309998512268066,learn,56669.00014877319,Fri Mar 28 2025 13:44:20 GMT-0500 (Central Daylight Time),270409.60000002384,A,shor,O,r,195,1,3331.100000023842,267078.5,7114,WL,C,1.0
2,3.9649999141693115,learn,56035.00008583069,Fri Mar 28 2025 13:44:20 GMT-0500 (Central Daylight Time),271042.8000000715,A,shore,O,e,600,1,3964.3000000715256,267078.5,7114,WL,C,1.0
2,4.246999979019165,learn,55753.000020980835,Fri Mar 28 2025 13:44:20 GMT-0500 (Central Daylight Time),271324.89999997616,A,shoreenter,O,enter,254,1,4246.399999976158,267078.5,7114,WL,C,1.0
2,5.096999883651733,learn,54903.00011634827,Fri Mar 28 2025 13:44:20 GMT-0500 (Central Daylight Time),272175.60000002384,A,b,O,b,833,1,850.2999999523163,271325.3000000715,7114,WL,C,2.0
2,6.096999883651733,learn,53903.00011634827,Fri Mar 28 2025 13:44:20 GMT-0500 (Central Daylight Time),273175.3000000715,A,bo,O,o,970,1,1850.0,271325.3000000715,7114,WL,C,2.0
2,6.596999883651733,learn,53403.00011634827,Fri Mar 28 2025 13:44:20 GMT-0500 (Central Daylight Time),273675.2000000477,A,boy,O,y,460,1,2349.899999976158,271325.3000000715,7114,WL,C,2.0
2,7.0289998054504395,learn,52971.00019454956,Fri Mar 28 2025 13:44:20 GMT-0500 (Central Daylight Time),274107.5,A,boyenter,O,enter,394,1,2782.1999999284744,271325.3000000715,7114,WL,C,2.0
2,7.513000011444092,learn,52486.99998855591,Fri Mar 28 2025 13:44:20 GMT-0500 (Central Daylight Time),274591.5,A,c,O,c,466,1,483.6999999284744,274107.8000000715,7114,WL,C,3.0
2,7.746999979019165,learn,52253.000020980835,Fri Mar 28 2025 13:44:20 GMT-0500 (Central Daylight Time),274824.8000000715,A,co,O,o,192,1,717.0,274107.8000000715,7114,WL,C,3.0
2,8.079999923706055,learn,51920.000076293945,Fri Mar 28 2025 13:44:20 GMT-0500 (Central Daylight Time),275158.10000002384,A,cor,O,r,294,1,1050.2999999523163,274107.8000000715,7114,WL,C,3.0
2,8.328999996185303,learn,51671.0000038147,Fri Mar 28 2025 13:44:20 GMT-0500 (Central Daylight Time),275407.0,A,corn,O,n,218,1,1299.1999999284744,274107.8000000715,7114,WL,C,3.0
2,9.02899980545044,learn,50971.00019454956,Fri Mar 28 2025 13:44:20 GMT-0500 (Central Daylight Time),276107.0,A,cornenter,O,enter,693,1,1999.1999999284744,274107.8000000715,7114,WL,C,3.0
2,9.230000019073486,learn,50769.999980926514,Fri Mar 28 2025 13:44:20 GMT-0500 (Central Daylight Time),276307.7000000477,A,w,O,w,178,1,200.39999997615814,276107.3000000715,7114,WL,C,4.0
2,9.478999853134155,learn,50521.000146865845,Fri Mar 28 2025 13:44:20 GMT-0500 (Central Daylight Time),276557.0,A,wh,O,h,214,1,449.6999999284744,276107.3000000715,7114,WL,C,4.0
2,9.645999908447266,learn,50354.000091552734,Fri Mar 28 2025 13:44:20 GMT-0500 (Central Daylight Time),276724.2000000477,A,whe,O,e,137,1,616.8999999761581,276107.3000000715,7114,WL,C,4.0
2,9.878999948501587,learn,50121.00005149841,Fri Mar 28 2025 13:44:20 GMT-0500 (Central Daylight Time),276957.5,A,whea,O,a,197,1,850.1999999284744,276107.3000000715,7114,WL,C,4.0
2,10.361999988555908,learn,49638.00001144409,Fri Mar 28 2025 13:44:20 GMT-0500 (Central Daylight Time),277440.60000002384,A,wheat,O,t,444,1,1333.2999999523163,276107.3000000715,7114,WL,C,4.0
2,10.760999917984009,learn,49239.00008201599,Fri Mar 28 2025 13:44:20 GMT-0500 (Central Daylight Time),277839.60000002384,A,wheatenter,O,enter,359,1,1732.2999999523163,276107.3000000715,7114,WL,C,4.0
2,10.944999933242798,learn,49055.0000667572,Fri Mar 28 2025 13:44:20 GMT-0500 (Central Daylight Time),278022.7000000477,A,d,O,d,163,1,182.80000007152557,277839.89999997616,7114,WL,C,5.0
2,11.460999965667725,learn,48539.000034332275,Fri Mar 28 2025 13:44:20 GMT-0500 (Central Daylight Time),278539.5,A,do,O,o,500,1,699.6000000238419,277839.89999997616,7114,WL,C,5.0
2,11.678999900817871,learn,48321.00009918213,Fri Mar 28 2025 13:44:20 GMT-0500 (Central Daylight Time),278757.0,A,doc,O,c,196,1,917.1000000238419,277839.89999997616,7114,WL,C,5.0
2,11.894999980926514,learn,48105.000019073486,Fri Mar 28 2025 13:44:20 GMT-0500 (Central Daylight Time),278972.89999997616,A,doct,O,t,180,1,1133.0,277839.89999997616,7114,WL,C,5.0
2,12.01199984550476,learn,47988.00015449524,Fri Mar 28 2025 13:44:20 GMT-0500 (Central Daylight Time),279090.2000000477,A,docto,O,o,97,1,1250.3000000715256,277839.89999997616,7114,WL,C,5.0
2,12.161999940872192,learn,47838.00005912781,Fri Mar 28 2025 13:44:20 GMT-0500 (Central Daylight Time),279240.10000002384,A,doctor,O,r,112,1,1400.2000000476837,277839.89999997616,7114,WL,C,5.0
2,12.626999855041504,learn,47373.000144958496,Fri Mar 28 2025 13:44:20 GMT-0500 (Central Daylight Time),279705.60000002384,A,doctorenter,O,enter,432,1,1865.7000000476837,277839.89999997616,7114,WL,C,5.0
2,12.894999980926514,learn,47105.000019073486,Fri Mar 28 2025 13:44:20 GMT-0500 (Central Daylight Time),279972.8000000715,A,q,O,q,260,1,266.90000009536743,279705.89999997616,7114,WL,C,6.0
2,13.077999830245972,learn,46922.00016975403,Fri Mar 28 2025 13:44:20 GMT-0500 (Central Daylight Time),280156.60000002384,A,qu,O,u,152,1,450.7000000476837,279705.89999997616,7114,WL,C,6.0
2,13.376999855041504,learn,46623.000144958496,Fri Mar 28 2025 13:44:20 GMT-0500 (Central Daylight Time),280455.2000000477,A,qui,O,i,272,1,749.3000000715256,279705.89999997616,7114,WL,C,6.0
2,13.593999862670898,learn,46406.0001373291,Fri Mar 28 2025 13:44:20 GMT-0500 (Central Daylight Time),280672.0,A,quie,O,e,196,1,966.1000000238419,279705.89999997616,7114,WL,C,6.0
2,13.74399995803833,learn,46256.00004196167,Fri Mar 28 2025 13:44:20 GMT-0500 (Central Daylight Time),280821.8000000715,A,quiee,O,e,128,1,1115.9000000953674,279705.89999997616,7114,WL,C,6.0
2,14.327999830245972,learn,45672.00016975403,Fri Mar 28 2025 13:44:20 GMT-0500 (Central Daylight Time),281406.0,A,quie,O,backspace,563,1,1700.1000000238419,279705.89999997616,7114,WL,C,6.0
2,14.493000030517578,learn,45506.99996948242,Fri Mar 28 2025 13:44:20 GMT-0500 (Central Daylight Time),281571.60000002384,A,qui,O,backspace,140,1,1865.7000000476837,279705.89999997616,7114,WL,C,6.0
2,14.743000030517578,learn,45256.99996948242,Fri Mar 28 2025 13:44:20 GMT-0500 (Central Daylight Time),281821.60000002384,A,qu,O,backspace,236,1,2115.7000000476837,279705.89999997616,7114,WL,C,6.0
2,15.527999877929688,learn,44472.00012207031,Fri Mar 28 2025 13:44:20 GMT-0500 (Central Daylight Time),282606.2000000477,A,que,O,e,765,1,2900.3000000715256,279705.89999997616,7114,WL,C,6.0
2,15.710999965667725,learn,44289.000034332275,Fri Mar 28 2025 13:44:20 GMT-0500 (Central Daylight Time),282789.0,A,quee,O,e,146,1,3083.100000023842,279705.89999997616,7114,WL,C,6.0
2,15.960999965667725,learn,44039.000034332275,Fri Mar 28 2025 13:44:20 GMT-0500 (Central Daylight Time),283038.7000000477,A,queen,O,n,221,1,3332.8000000715256,279705.89999997616,7114,WL,C,6.0
2,17.05900001525879,learn,42940.99998474121,Fri Mar 28 2025 13:44:20 GMT-0500 (Central Daylight Time),284137.39999997616,A,queenenter,O,enter,1064,1,4431.5,279705.89999997616,7114,WL,C,6.0
2,17.74399995803833,learn,42256.00004196167,Fri Mar 28 2025 13:44:20 GMT-0500 (Central Daylight Time),284821.3000000715,A,n,O,n,676,1,683.6000000238419,284137.7000000477,7114,WL,C,7.0
2,17.92799997329712,learn,42072.00002670288,Fri Mar 28 2025 13:44:20 GMT-0500 (Central Daylight Time),285005.5,A,na,O,a,156,1,867.7999999523163,284137.7000000477,7114,WL,C,7.0
2,18.07699990272522,learn,41923.00009727478,Fri Mar 28 2025 13:44:20 GMT-0500 (Central Daylight Time),285154.60000002384,A,nai,O,i,117,1,1016.8999999761581,284137.7000000477,7114,WL,C,7.0
2,18.30999994277954,learn,41690.00005722046,Fri Mar 28 2025 13:44:20 GMT-0500 (Central Daylight Time),285388.0,A,nail,O,l,205,1,1250.2999999523163,284137.7000000477,7114,WL,C,7.0
2,18.825999975204468,learn,41174.00002479553,Fri Mar 28 2025 13:44:20 GMT-0500 (Central Daylight Time),285903.60000002384,A,nailenter,O,enter,477,1,1765.8999999761581,284137.7000000477,7114,WL,C,7.0
2,20.15999984741211,learn,39840.00015258789,Fri Mar 28 2025 13:44:20 GMT-0500 (Central Daylight Time),287237.5,A,c,O,c,1326,1,1333.6000000238419,285903.89999997616,7114,WL,C,8.0
2,20.47599983215332,learn,39524.00016784668,Fri Mar 28 2025 13:44:20 GMT-0500 (Central Daylight Time),287554.0,A,ca,O,a,291,1,1650.1000000238419,285903.89999997616,7114,WL,C,8.0
2,20.625999927520752,learn,39374.00007247925,Fri Mar 28 2025 13:44:20 GMT-0500 (Central Daylight Time),287703.89999997616,A,cam,O,m,113,1,1800.0,285903.89999997616,7114,WL,C,8.0
2,20.97599983215332,learn,39024.00016784668,Fri Mar 28 2025 13:44:20 GMT-0500 (Central Daylight Time),288053.3000000715,A,camp,O,p,322,1,2149.4000000953674,285903.89999997616,7114,WL,C,8.0
2,21.358999967575073,learn,38641.00003242493,Fri Mar 28 2025 13:44:20 GMT-0500 (Central Daylight Time),288436.10000002384,A,campenter,O,enter,348,1,2532.2000000476837,285903.89999997616,7114,WL,C,8.0
2,24.057999849319458,learn,35942.00015068054,Fri Mar 28 2025 13:44:20 GMT-0500 (Central Daylight Time),291136.10000002384,A,f,O,f,2689,1,2699.7999999523163,288436.3000000715,7114,WL,C,9.0
2,24.141000032424927,learn,35858.99996757507,Fri Mar 28 2025 13:44:20 GMT-0500 (Central Daylight Time),291218.39999997616,A,fl,O,l,48,1,2782.0999999046326,288436.3000000715,7114,WL,C,9.0
2,24.375,learn,35625.0,Fri Mar 28 2025 13:44:20 GMT-0500 (Central Daylight Time),291452.8000000715,A,flo,O,o,218,1,3016.5,288436.3000000715,7114,WL,C,9.0
2,24.491999864578247,learn,35508.00013542175,Fri Mar 28 2025 13:44:20 GMT-0500 (Central Daylight Time),291569.39999997616,A,flow,O,w,86,1,3133.0999999046326,288436.3000000715,7114,WL,C,9.0
2,24.55900001525879,learn,35440.99998474121,Fri Mar 28 2025 13:44:20 GMT-0500 (Central Daylight Time),291636.39999997616,A,flowe,O,e,41,1,3200.0999999046326,288436.3000000715,7114,WL,C,9.0
2,24.641000032424927,learn,35358.99996757507,Fri Mar 28 2025 13:44:20 GMT-0500 (Central Daylight Time),291718.60000002384,A,flower,O,r,63,1,3282.2999999523163,288436.3000000715,7114,WL,C,9.0
2,25.2739999294281,learn,34726.0000705719,Fri Mar 28 2025 13:44:20 GMT-0500 (Central Daylight Time),292351.5,A,flowerenter,O,enter,606,1,3915.1999999284744,288436.3000000715,7114,WL,C,9.0
2,28.457000017166138,learn,31542.999982833862,Fri Mar 28 2025 13:44:20 GMT-0500 (Central Daylight Time),295534.8000000715,A,t,O,t,3166,1,3183.0,292351.8000000715,7114,WL,C,10.0
2,28.60699987411499,learn,31393.00012588501,Fri Mar 28 2025 13:44:20 GMT-0500 (Central Daylight Time),295684.8000000715,A,to,O,o,116,1,3333.0,292351.8000000715,7114,WL,C,10.0
2,28.7739999294281,learn,31226.0000705719,Fri Mar 28 2025 13:44:20 GMT-0500 (Central Daylight Time),295851.3000000715,A,tow,O,w,126,1,3499.5,292351.8000000715,7114,WL,C,10.0
2,29.174999952316284,learn,30825.000047683716,Fri Mar 28 2025 13:44:20 GMT-0500 (Central Daylight Time),296253.0,A,towe,O,e,379,1,3901.1999999284744,292351.8000000715,7114,WL,C,10.0
2,29.62399983406067,learn,30376.00016593933,Fri Mar 28 2025 13:44:20 GMT-0500 (Central Daylight Time),296701.3000000715,A,tower,O,r,420,1,4349.5,292351.8000000715,7114,WL,C,10.0
2,30.155999898910522,learn,29844.000101089478,Fri Mar 28 2025 13:44:20 GMT-0500 (Central Daylight Time),297233.2000000477,A,towerenter,O,enter,490,1,4881.399999976158,292351.8000000715,7114,WL,C,10.0
2,42.60199999809265,learn,17398.00000190735,Fri Mar 28 2025 13:44:20 GMT-0500 (Central Daylight Time),309679.7000000477,A,l,O,l,12436,1,12446.300000071526,297233.39999997616,7114,WL,C,11.0
2,42.734999895095825,learn,17265.000104904175,Fri Mar 28 2025 13:44:20 GMT-0500 (Central Daylight Time),309812.8000000715,A,le,O,e,104,1,12579.400000095367,297233.39999997616,7114,WL,C,11.0
2,42.901999950408936,learn,17098.000049591064,Fri Mar 28 2025 13:44:20 GMT-0500 (Central Daylight Time),309979.8000000715,A,let,O,t,136,1,12746.400000095367,297233.39999997616,7114,WL,C,11.0
2,43.03600001335144,learn,16963.99998664856,Fri Mar 28 2025 13:44:20 GMT-0500 (Central Daylight Time),310113.3000000715,A,lett,O,t,94,1,12879.900000095367,297233.39999997616,7114,WL,C,11.0
2,43.168999910354614,learn,16831.000089645386,Fri Mar 28 2025 13:44:20 GMT-0500 (Central Daylight Time),310246.3000000715,A,lette,O,e,105,1,13012.900000095367,297233.39999997616,7114,WL,C,11.0
2,43.26799988746643,learn,16732.00011253357,Fri Mar 28 2025 13:44:20 GMT-0500 (Central Daylight Time),310345.5,A,letter,O,r,64,1,13112.100000023842,297233.39999997616,7114,WL,C,11.0
2,43.98399996757507,learn,16016.000032424927,Fri Mar 28 2025 13:44:20 GMT-0500 (Central Daylight Time),311062.0,A,letterenter,O,enter,706,1,13828.600000023842,297233.39999997616,7114,WL,C,11.0
2,60.013999938964844,learn,-13.99993896484375,Fri Mar 28 2025 13:44:20 GMT-0500 (Central Daylight Time),327091.2000000477,A,None,O,None,16023,1,16029.0,311062.2000000477,7114,WL,C,12.0
3,0.9660000801086426,learn,59033.99991989136,Fri Mar 28 2025 13:44:20 GMT-0500 (Central Daylight Time),401899.89999997616,A,b,O,b,928,1,965.5999999046326,400934.3000000715,7114,WL,C,1.0
3,2.182000160217285,learn,57817.999839782715,Fri Mar 28 2025 13:44:20 GMT-0500 (Central Daylight Time),403115.89999997616,A,bo,O,o,1174,1,2181.5999999046326,400934.3000000715,7114,WL,C,1.0
3,2.6480000019073486,learn,57351.99999809265,Fri Mar 28 2025 13:44:20 GMT-0500 (Central Daylight Time),403582.39999997616,A,bod,O,d,429,1,2648.0999999046326,400934.3000000715,7114,WL,C,1.0
3,2.998000144958496,learn,57001.999855041504,Fri Mar 28 2025 13:44:20 GMT-0500 (Central Daylight Time),403932.39999997616,A,body,O,y,306,1,2998.0999999046326,400934.3000000715,7114,WL,C,1.0
3,3.7980000972747803,learn,56201.99990272522,Fri Mar 28 2025 13:44:20 GMT-0500 (Central Daylight Time),404731.2000000477,A,bodyenter,O,enter,758,1,3796.899999976158,400934.3000000715,7114,WL,C,1.0
3,4.398999929428101,learn,55601.0000705719,Fri Mar 28 2025 13:44:20 GMT-0500 (Central Daylight Time),405332.10000002384,A,c,O,c,587,1,600.6000000238419,404731.5,7114,WL,C,2.0
3,4.682000160217285,learn,55317.999839782715,Fri Mar 28 2025 13:44:20 GMT-0500 (Central Daylight Time),405615.2000000477,A,ca,O,a,247,1,883.7000000476837,404731.5,7114,WL,C,2.0
3,4.815000057220459,learn,55184.99994277954,Fri Mar 28 2025 13:44:20 GMT-0500 (Central Daylight Time),405748.8000000715,A,cam,O,m,110,1,1017.3000000715256,404731.5,7114,WL,C,2.0
3,5.215000152587891,learn,54784.99984741211,Fri Mar 28 2025 13:44:20 GMT-0500 (Central Daylight Time),406148.60000002384,A,camp,O,p,362,1,1417.1000000238419,404731.5,7114,WL,C,2.0
3,5.814000129699707,learn,54185.99987030029,Fri Mar 28 2025 13:44:20 GMT-0500 (Central Daylight Time),406747.2000000477,A,campenter,O,enter,573,1,2015.7000000476837,404731.5,7114,WL,C,2.0
3,6.332000017166138,learn,53667.99998283386,Fri Mar 28 2025 13:44:20 GMT-0500 (Central Daylight Time),407264.89999997616,A,q,O,q,507,1,517.5,406747.39999997616,7114,WL,C,3.0
3,6.513999938964844,learn,53486.000061035156,Fri Mar 28 2025 13:44:20 GMT-0500 (Central Daylight Time),407447.8000000715,A,qu,O,u,156,1,700.4000000953674,406747.39999997616,7114,WL,C,3.0
3,6.815000057220459,learn,53184.99994277954,Fri Mar 28 2025 13:44:20 GMT-0500 (Central Daylight Time),407748.2000000477,A,que,O,e,264,1,1000.8000000715256,406747.39999997616,7114,WL,C,3.0
3,6.998000144958496,learn,53001.999855041504,Fri Mar 28 2025 13:44:20 GMT-0500 (Central Daylight Time),407931.2000000477,A,quee,O,e,156,1,1183.8000000715256,406747.39999997616,7114,WL,C,3.0
3,7.164000034332275,learn,52835.999965667725,Fri Mar 28 2025 13:44:20 GMT-0500 (Central Daylight Time),408097.60000002384,A,queen,O,n,127,1,1350.2000000476837,406747.39999997616,7114,WL,C,3.0
3,7.546999931335449,learn,52453.00006866455,Fri Mar 28 2025 13:44:20 GMT-0500 (Central Daylight Time),408480.0,A,queenenter,O,enter,343,1,1732.6000000238419,406747.39999997616,7114,WL,C,3.0
3,7.814000129699707,learn,52185.99987030029,Fri Mar 28 2025 13:44:20 GMT-0500 (Central Daylight Time),408747.39999997616,A,t,O,t,246,1,267.1999999284744,408480.2000000477,7114,WL,C,4.0
3,7.996999979019165,learn,52003.000020980835,Fri Mar 28 2025 13:44:20 GMT-0500 (Central Daylight Time),408930.7000000477,A,to,O,o,142,1,450.5,408480.2000000477,7114,WL,C,4.0
3,8.164000034332275,learn,51835.999965667725,Fri Mar 28 2025 13:44:20 GMT-0500 (Central Daylight Time),409097.2000000477,A,tow,O,w,127,1,617.0,408480.2000000477,7114,WL,C,4.0
3,8.263000011444092,learn,51736.99998855591,Fri Mar 28 2025 13:44:20 GMT-0500 (Central Daylight Time),409196.39999997616,A,towe,O,e,72,1,716.1999999284744,408480.2000000477,7114,WL,C,4.0
3,8.430000066757202,learn,51569.9999332428,Fri Mar 28 2025 13:44:20 GMT-0500 (Central Daylight Time),409363.60000002384,A,tower,O,r,130,1,883.3999999761581,408480.2000000477,7114,WL,C,4.0
3,8.830000162124634,learn,51169.999837875366,Fri Mar 28 2025 13:44:20 GMT-0500 (Central Daylight Time),409763.0,A,towerenter,O,enter,376,1,1282.7999999523163,408480.2000000477,7114,WL,C,4.0
3,8.980000019073486,learn,51019.999980926514,Fri Mar 28 2025 13:44:20 GMT-0500 (Central Daylight Time),409913.60000002384,A,w,O,w,140,1,150.29999995231628,409763.3000000715,7114,WL,C,5.0
3,9.230000019073486,learn,50769.999980926514,Fri Mar 28 2025 13:44:20 GMT-0500 (Central Daylight Time),410163.60000002384,A,wh,O,h,217,1,400.2999999523163,409763.3000000715,7114,WL,C,5.0
3,9.380000114440918,learn,50619.99988555908,Fri Mar 28 2025 13:44:20 GMT-0500 (Central Daylight Time),410313.7000000477,A,whe,O,e,111,1,550.3999999761581,409763.3000000715,7114,WL,C,5.0
3,9.580000162124634,learn,50419.999837875366,Fri Mar 28 2025 13:44:20 GMT-0500 (Central Daylight Time),410513.60000002384,A,whea,O,a,160,1,750.2999999523163,409763.3000000715,7114,WL,C,5.0
3,9.88100004196167,learn,50118.99995803833,Fri Mar 28 2025 13:44:20 GMT-0500 (Central Daylight Time),410814.3000000715,A,wheat,O,t,274,1,1051.0,409763.3000000715,7114,WL,C,5.0
3,10.661999940872192,learn,49338.00005912781,Fri Mar 28 2025 13:44:20 GMT-0500 (Central Daylight Time),411595.3000000715,A,wheatenter,O,enter,746,1,1832.0,409763.3000000715,7114,WL,C,5.0
3,13.979000091552734,learn,46020.999908447266,Fri Mar 28 2025 13:44:20 GMT-0500 (Central Daylight Time),414912.10000002384,A,d,O,d,3298,1,3316.5,411595.60000002384,7114,WL,C,6.0
3,14.394999980926514,learn,45605.000019073486,Fri Mar 28 2025 13:44:20 GMT-0500 (Central Daylight Time),415328.60000002384,A,do,O,o,387,1,3733.0,411595.60000002384,7114,WL,C,6.0
3,14.67900013923645,learn,45320.99986076355,Fri Mar 28 2025 13:44:20 GMT-0500 (Central Daylight Time),415612.60000002384,A,doc,O,c,241,1,4017.0,411595.60000002384,7114,WL,C,6.0
3,14.896000146865845,learn,45103.999853134155,Fri Mar 28 2025 13:44:20 GMT-0500 (Central Daylight Time),415829.3000000715,A,doct,O,t,188,1,4233.700000047684,411595.60000002384,7114,WL,C,6.0
3,15.045000076293945,learn,44954.999923706055,Fri Mar 28 2025 13:44:20 GMT-0500 (Central Daylight Time),415978.5,A,docto,O,o,110,1,4382.899999976158,411595.60000002384,7114,WL,C,6.0
3,15.295000076293945,learn,44704.999923706055,Fri Mar 28 2025 13:44:20 GMT-0500 (Central Daylight Time),416228.3000000715,A,doctor,O,r,217,1,4632.700000047684,411595.60000002384,7114,WL,C,6.0
3,15.894000053405762,learn,44105.99994659424,Fri Mar 28 2025 13:44:20 GMT-0500 (Central Daylight Time),416827.10000002384,A,doctorenter,O,enter,566,1,5231.5,411595.60000002384,7114,WL,C,6.0
3,20.210000038146973,learn,39789.99996185303,Fri Mar 28 2025 13:44:20 GMT-0500 (Central Daylight Time),421143.39999997616,A,l,O,l,4307,1,4315.899999976158,416827.5,7114,WL,C,7.0
3,20.360000133514404,learn,39639.999866485596,Fri Mar 28 2025 13:44:20 GMT-0500 (Central Daylight Time),421293.60000002384,A,le,O,e,124,1,4466.100000023842,416827.5,7114,WL,C,7.0
3,20.542999982833862,learn,39457.00001716614,Fri Mar 28 2025 13:44:20 GMT-0500 (Central Daylight Time),421476.89999997616,A,let,O,t,149,1,4649.399999976158,416827.5,7114,WL,C,7.0
3,20.694000005722046,learn,39305.999994277954,Fri Mar 28 2025 13:44:20 GMT-0500 (Central Daylight Time),421627.5,A,lett,O,t,117,1,4800.0,416827.5,7114,WL,C,7.0
3,20.825999975204468,learn,39174.00002479553,Fri Mar 28 2025 13:44:20 GMT-0500 (Central Daylight Time),421759.5,A,lette,O,e,103,1,4932.0,416827.5,7114,WL,C,7.0
3,20.909000158309937,learn,39090.99984169006,Fri Mar 28 2025 13:44:20 GMT-0500 (Central Daylight Time),421842.7000000477,A,letter,O,r,60,1,5015.200000047684,416827.5,7114,WL,C,7.0
3,21.14199995994568,learn,38858.00004005432,Fri Mar 28 2025 13:44:20 GMT-0500 (Central Daylight Time),422075.5,A,letterenter,O,enter,199,1,5248.0,416827.5,7114,WL,C,7.0
3,25.808000087738037,learn,34191.99991226196,Fri Mar 28 2025 13:44:20 GMT-0500 (Central Daylight Time),426741.7000000477,A,s,O,s,4649,1,4666.0,422075.7000000477,7114,WL,C,8.0
3,26.008000135421753,learn,33991.99986457825,Fri Mar 28 2025 13:44:20 GMT-0500 (Central Daylight Time),426941.2000000477,A,su,O,u,165,1,4865.5,422075.7000000477,7114,WL,C,8.0
3,26.20799994468689,learn,33792.00005531311,Fri Mar 28 2025 13:44:20 GMT-0500 (Central Daylight Time),427141.89999997616,A,sug,O,g,167,1,5066.199999928474,422075.7000000477,7114,WL,C,8.0
3,26.44099998474121,learn,33559.00001525879,Fri Mar 28 2025 13:44:20 GMT-0500 (Central Daylight Time),427375.10000002384,A,suga,O,a,195,1,5299.399999976158,422075.7000000477,7114,WL,C,8.0
3,26.657999992370605,learn,33342.000007629395,Fri Mar 28 2025 13:44:20 GMT-0500 (Central Daylight Time),427591.7000000477,A,sugar,O,r,179,1,5516.0,422075.7000000477,7114,WL,C,8.0
3,27.373000144958496,learn,32626.999855041504,Fri Mar 28 2025 13:44:20 GMT-0500 (Central Daylight Time),428306.60000002384,A,sugarenter,O,enter,672,1,6230.899999976158,422075.7000000477,7114,WL,C,8.0
3,28.057000160217285,learn,31942.999839782715,Fri Mar 28 2025 13:44:20 GMT-0500 (Central Daylight Time),428990.60000002384,A,h,O,h,675,1,683.7000000476837,428306.89999997616,7114,WL,C,9.0
3,28.240000009536743,learn,31759.999990463257,Fri Mar 28 2025 13:44:20 GMT-0500 (Central Daylight Time),429173.5,A,ho,O,o,156,1,866.6000000238419,428306.89999997616,7114,WL,C,9.0
3,28.490999937057495,learn,31509.000062942505,Fri Mar 28 2025 13:44:20 GMT-0500 (Central Daylight Time),429424.0,A,hom,O,m,214,1,1117.1000000238419,428306.89999997616,7114,WL,C,9.0
3,28.740999937057495,learn,31259.000062942505,Fri Mar 28 2025 13:44:20 GMT-0500 (Central Daylight Time),429673.89999997616,A,home,O,e,210,1,1367.0,428306.89999997616,7114,WL,C,9.0
3,29.706000089645386,learn,30293.999910354614,Fri Mar 28 2025 13:44:20 GMT-0500 (Central Daylight Time),430639.3000000715,A,homeenter,O,enter,936,1,2332.4000000953674,428306.89999997616,7114,WL,C,9.0
3,32.473000049591064,learn,27526.999950408936,Fri Mar 28 2025 13:44:20 GMT-0500 (Central Daylight Time),433406.0,A,b,O,b,2751,1,2766.5,430639.5,7114,WL,C,10.0
3,32.98900008201599,learn,27010.99991798401,Fri Mar 28 2025 13:44:20 GMT-0500 (Central Daylight Time),433922.5,A,bo,O,o,484,1,3283.0,430639.5,7114,WL,C,10.0
3,33.5220000743866,learn,26477.999925613403,Fri Mar 28 2025 13:44:20 GMT-0500 (Central Daylight Time),434455.60000002384,A,boy,O,y,505,1,3816.100000023842,430639.5,7114,WL,C,10.0
3,34.58800005912781,learn,25411.999940872192,Fri Mar 28 2025 13:44:20 GMT-0500 (Central Daylight Time),435521.10000002384,A,boyenter,O,enter,1027,1,4881.600000023842,430639.5,7114,WL,C,10.0
3,42.53600001335144,learn,17463.99998664856,Fri Mar 28 2025 13:44:20 GMT-0500 (Central Daylight Time),443469.60000002384,A,c,O,c,7942,1,7948.299999952316,435521.3000000715,7114,WL,C,11.0
3,43.05299997329712,learn,16947.00002670288,Fri Mar 28 2025 13:44:20 GMT-0500 (Central Daylight Time),443985.89999997616,A,co,O,o,477,1,8464.599999904633,435521.3000000715,7114,WL,C,11.0
3,43.503000020980835,learn,16496.999979019165,Fri Mar 28 2025 13:44:20 GMT-0500 (Central Daylight Time),444435.89999997616,A,cor,O,r,407,1,8914.599999904633,435521.3000000715,7114,WL,C,11.0
3,43.901999950408936,learn,16098.000049591064,Fri Mar 28 2025 13:44:20 GMT-0500 (Central Daylight Time),444835.60000002384,A,corn,O,n,370,1,9314.299999952316,435521.3000000715,7114,WL,C,11.0
3,45.51699995994568,learn,14483.000040054321,Fri Mar 28 2025 13:44:20 GMT-0500 (Central Daylight Time),446450.7000000477,A,cornenter,O,enter,1582,1,10929.399999976158,435521.3000000715,7114,WL,C,11.0
3,60.01300001144409,learn,-13.000011444091797,Fri Mar 28 2025 13:44:20 GMT-0500 (Central Daylight Time),460946.8000000715,A,None,O,None,14489,1,14495.700000047684,446451.10000002384,7114,WL,C,12.0
4,3.2980000972747803,learn,56701.99990272522,Fri Mar 28 2025 13:44:20 GMT-0500 (Central Daylight Time),543703.2000000477,A,c,O,c,3271,1,3297.399999976158,540405.8000000715,7114,WL,C,1.0
4,3.5480000972747803,learn,56451.99990272522,Fri Mar 28 2025 13:44:20 GMT-0500 (Central Daylight Time),543953.0,A,ca,O,a,222,1,3547.1999999284744,540405.8000000715,7114,WL,C,1.0
4,3.747999906539917,learn,56252.00009346008,Fri Mar 28 2025 13:44:20 GMT-0500 (Central Daylight Time),544153.0,A,cat,O,t,161,1,3747.1999999284744,540405.8000000715,7114,WL,C,1.0
4,3.88100004196167,learn,56118.99995803833,Fri Mar 28 2025 13:44:20 GMT-0500 (Central Daylight Time),544286.3000000715,A,catt,O,t,100,1,3880.5,540405.8000000715,7114,WL,C,1.0
4,4.04800009727478,learn,55951.99990272522,Fri Mar 28 2025 13:44:20 GMT-0500 (Central Daylight Time),544452.8000000715,A,cattl,O,l,132,1,4047.0,540405.8000000715,7114,WL,C,1.0
4,4.164000034332275,learn,55835.999965667725,Fri Mar 28 2025 13:44:20 GMT-0500 (Central Daylight Time),544569.5,A,cattle,O,e,88,1,4163.699999928474,540405.8000000715,7114,WL,C,1.0
4,4.697000026702881,learn,55302.99997329712,Fri Mar 28 2025 13:44:20 GMT-0500 (Central Daylight Time),545101.7000000477,A,cattleenter,O,enter,503,1,4695.899999976158,540405.8000000715,7114,WL,C,1.0
4,5.063999891281128,learn,54936.00010871887,Fri Mar 28 2025 13:44:20 GMT-0500 (Central Daylight Time),545469.3000000715,A,b,O,b,351,1,367.40000009536743,545101.8999999762,7114,WL,C,2.0
4,5.29800009727478,learn,54701.99990272522,Fri Mar 28 2025 13:44:20 GMT-0500 (Central Daylight Time),545702.7000000477,A,bo,O,o,198,1,600.8000000715256,545101.8999999762,7114,WL,C,2.0
4,5.430999994277954,learn,54569.000005722046,Fri Mar 28 2025 13:44:20 GMT-0500 (Central Daylight Time),545835.8000000715,A,bod,O,d,100,1,733.9000000953674,545101.8999999762,7114,WL,C,2.0
4,5.614000082015991,learn,54385.99991798401,Fri Mar 28 2025 13:44:20 GMT-0500 (Central Daylight Time),546019.1000000238,A,body,O,y,153,1,917.2000000476837,545101.8999999762,7114,WL,C,2.0
4,5.963000059127808,learn,54036.99994087219,Fri Mar 28 2025 13:44:20 GMT-0500 (Central Daylight Time),546368.1000000238,A,bodyenter,O,enter,315,1,1266.2000000476837,545101.8999999762,7114,WL,C,2.0
4,6.263999938964844,learn,53736.000061035156,Fri Mar 28 2025 13:44:20 GMT-0500 (Central Daylight Time),546669.0,A,c,O,c,278,1,300.6999999284744,546368.3000000715,7114,WL,C,3.0
4,6.328999996185303,learn,53671.0000038147,Fri Mar 28 2025 13:44:20 GMT-0500 (Central Daylight Time),546734.3999999762,A,co,O,o,28,1,366.09999990463257,546368.3000000715,7114,WL,C,3.0
4,6.680999994277954,learn,53319.000005722046,Fri Mar 28 2025 13:44:20 GMT-0500 (Central Daylight Time),547086.2000000477,A,cor,O,r,344,1,717.8999999761581,546368.3000000715,7114,WL,C,3.0
4,7.013000011444092,learn,52986.99998855591,Fri Mar 28 2025 13:44:20 GMT-0500 (Central Daylight Time),547418.6000000238,A,corn,O,n,301,1,1050.2999999523163,546368.3000000715,7114,WL,C,3.0
4,7.428999900817871,learn,52571.00009918213,Fri Mar 28 2025 13:44:20 GMT-0500 (Central Daylight Time),547834.1000000238,A,cornenter,O,enter,384,1,1465.7999999523163,546368.3000000715,7114,WL,C,3.0
4,7.963000059127808,learn,52036.99994087219,Fri Mar 28 2025 13:44:20 GMT-0500 (Central Daylight Time),548368.3999999762,A,s,O,s,516,1,534.0,547834.3999999762,7114,WL,C,4.0
4,8.096999883651733,learn,51903.00011634827,Fri Mar 28 2025 13:44:20 GMT-0500 (Central Daylight Time),548501.8000000715,A,sh,O,h,107,1,667.4000000953674,547834.3999999762,7114,WL,C,4.0
4,8.345999956130981,learn,51654.00004386902,Fri Mar 28 2025 13:44:20 GMT-0500 (Central Daylight Time),548751.5,A,sho,O,o,222,1,917.1000000238419,547834.3999999762,7114,WL,C,4.0
4,8.529000043869019,learn,51470.99995613098,Fri Mar 28 2025 13:44:20 GMT-0500 (Central Daylight Time),548934.6000000238,A,shor,O,r,155,1,1100.2000000476837,547834.3999999762,7114,WL,C,4.0
4,8.729000091552734,learn,51270.999908447266,Fri Mar 28 2025 13:44:20 GMT-0500 (Central Daylight Time),549134.5,A,shore,O,e,171,1,1300.1000000238419,547834.3999999762,7114,WL,C,4.0
4,8.961999893188477,learn,51038.00010681152,Fri Mar 28 2025 13:44:20 GMT-0500 (Central Daylight Time),549367.0,A,shoreenter,O,enter,198,1,1532.6000000238419,547834.3999999762,7114,WL,C,4.0
4,9.19700002670288,learn,50802.99997329712,Fri Mar 28 2025 13:44:20 GMT-0500 (Central Daylight Time),549602.5,A,c,O,c,223,1,235.19999992847443,549367.3000000715,7114,WL,C,5.0
4,9.413000106811523,learn,50586.99989318848,Fri Mar 28 2025 13:44:20 GMT-0500 (Central Daylight Time),549817.7000000477,A,ca,O,a,184,1,450.39999997615814,549367.3000000715,7114,WL,C,5.0
4,9.546000003814697,learn,50453.9999961853,Fri Mar 28 2025 13:44:20 GMT-0500 (Central Daylight Time),549951.1000000238,A,cam,O,m,97,1,583.7999999523163,549367.3000000715,7114,WL,C,5.0
4,9.845999956130981,learn,50154.00004386902,Fri Mar 28 2025 13:44:20 GMT-0500 (Central Daylight Time),550250.8999999762,A,camp,O,p,267,1,883.5999999046326,549367.3000000715,7114,WL,C,5.0
4,10.244999885559082,learn,49755.00011444092,Fri Mar 28 2025 13:44:20 GMT-0500 (Central Daylight Time),550649.8000000715,A,campenter,O,enter,364,1,1282.5,549367.3000000715,7114,WL,C,5.0
4,10.578999996185303,learn,49421.0000038147,Fri Mar 28 2025 13:44:20 GMT-0500 (Central Daylight Time),550984.1000000238,A,h,O,h,324,1,334.0,550650.1000000238,7114,WL,C,6.0
4,10.746000051498413,learn,49253.99994850159,Fri Mar 28 2025 13:44:20 GMT-0500 (Central Daylight Time),551150.8000000715,A,ho,O,o,139,1,500.7000000476837,550650.1000000238,7114,WL,C,6.0
4,10.961999893188477,learn,49038.00010681152,Fri Mar 28 2025 13:44:20 GMT-0500 (Central Daylight Time),551367.2000000477,A,hom,O,m,188,1,717.1000000238419,550650.1000000238,7114,WL,C,6.0
4,11.161999940872192,learn,48838.00005912781,Fri Mar 28 2025 13:44:20 GMT-0500 (Central Daylight Time),551567.1000000238,A,home,O,e,164,1,917.0,550650.1000000238,7114,WL,C,6.0
4,11.66100001335144,learn,48338.99998664856,Fri Mar 28 2025 13:44:20 GMT-0500 (Central Daylight Time),552066.2000000477,A,homeenter,O,enter,462,1,1416.1000000238419,550650.1000000238,7114,WL,C,6.0
4,12.045000076293945,learn,47954.999923706055,Fri Mar 28 2025 13:44:20 GMT-0500 (Central Daylight Time),552450.2000000477,A,b,O,b,372,1,383.8000000715256,552066.3999999762,7114,WL,C,7.0
4,12.277999877929688,learn,47722.00012207031,Fri Mar 28 2025 13:44:20 GMT-0500 (Central Daylight Time),552683.6000000238,A,bo,O,o,198,1,617.2000000476837,552066.3999999762,7114,WL,C,7.0
4,12.561000108718872,learn,47438.99989128113,Fri Mar 28 2025 13:44:20 GMT-0500 (Central Daylight Time),552966.2000000477,A,boy,O,y,254,1,899.8000000715256,552066.3999999762,7114,WL,C,7.0
4,13.045000076293945,learn,46954.999923706055,Fri Mar 28 2025 13:44:20 GMT-0500 (Central Daylight Time),553450.1000000238,A,boyenter,O,enter,442,1,1383.7000000476837,552066.3999999762,7114,WL,C,7.0
4,13.277999877929688,learn,46722.00012207031,Fri Mar 28 2025 13:44:20 GMT-0500 (Central Daylight Time),553683.6000000238,A,s,O,s,212,1,233.20000004768372,553450.3999999762,7114,WL,C,8.0
4,13.444999933242798,learn,46555.0000667572,Fri Mar 28 2025 13:44:20 GMT-0500 (Central Daylight Time),553849.8000000715,A,su,O,u,134,1,399.40000009536743,553450.3999999762,7114,WL,C,8.0
4,13.66100001335144,learn,46338.99998664856,Fri Mar 28 2025 13:44:20 GMT-0500 (Central Daylight Time),554066.1000000238,A,sug,O,g,175,1,615.7000000476837,553450.3999999762,7114,WL,C,8.0
4,13.861000061035156,learn,46138.999938964844,Fri Mar 28 2025 13:44:20 GMT-0500 (Central Daylight Time),554266.2000000477,A,suga,O,a,177,1,815.8000000715256,553450.3999999762,7114,WL,C,8.0
4,13.960000038146973,learn,46039.99996185303,Fri Mar 28 2025 13:44:20 GMT-0500 (Central Daylight Time),554365.3999999762,A,sugar,O,r,67,1,915.0,553450.3999999762,7114,WL,C,8.0
4,14.510999917984009,learn,45489.00008201599,Fri Mar 28 2025 13:44:20 GMT-0500 (Central Daylight Time),554916.2000000477,A,sugarenter,O,enter,526,1,1465.8000000715256,553450.3999999762,7114,WL,C,8.0
4,16.460000038146973,learn,43539.99996185303,Fri Mar 28 2025 13:44:20 GMT-0500 (Central Daylight Time),556865.6000000238,A,t,O,t,1938,1,1949.2000000476837,554916.3999999762,7114,WL,C,9.0
4,16.594000101089478,learn,43405.99989891052,Fri Mar 28 2025 13:44:20 GMT-0500 (Central Daylight Time),556998.7000000477,A,to,O,o,98,1,2082.3000000715256,554916.3999999762,7114,WL,C,9.0
4,17.009999990463257,learn,42990.00000953674,Fri Mar 28 2025 13:44:20 GMT-0500 (Central Daylight Time),557414.7000000477,A,tow,O,w,383,1,2498.3000000715256,554916.3999999762,7114,WL,C,9.0
4,17.292999982833862,learn,42707.00001716614,Fri Mar 28 2025 13:44:20 GMT-0500 (Central Daylight Time),557698.5,A,towe,O,e,255,1,2782.100000023842,554916.3999999762,7114,WL,C,9.0
4,17.675999879837036,learn,42324.000120162964,Fri Mar 28 2025 13:44:20 GMT-0500 (Central Daylight Time),558081.6000000238,A,tower,O,r,344,1,3165.2000000476837,554916.3999999762,7114,WL,C,9.0
4,19.941999912261963,learn,40058.00008773804,Fri Mar 28 2025 13:44:20 GMT-0500 (Central Daylight Time),560346.5,A,towerenter,O,enter,2219,1,5430.100000023842,554916.3999999762,7114,WL,C,9.0
4,20.2260000705719,learn,39773.9999294281,Fri Mar 28 2025 13:44:20 GMT-0500 (Central Daylight Time),560630.8999999762,A,f,O,f,267,1,284.09999990463257,560346.8000000715,7114,WL,C,10.0
4,20.325000047683716,learn,39674.999952316284,Fri Mar 28 2025 13:44:20 GMT-0500 (Central Daylight Time),560730.0,A,fl,O,l,63,1,383.1999999284744,560346.8000000715,7114,WL,C,10.0
4,20.55900001525879,learn,39440.99998474121,Fri Mar 28 2025 13:44:20 GMT-0500 (Central Daylight Time),560964.0,A,fla,O,a,210,1,617.1999999284744,560346.8000000715,7114,WL,C,10.0
4,20.842000007629395,learn,39157.999992370605,Fri Mar 28 2025 13:44:20 GMT-0500 (Central Daylight Time),561247.3000000715,A,flat,O,t,254,1,900.5,560346.8000000715,7114,WL,C,10.0
4,21.10800004005432,learn,38891.99995994568,Fri Mar 28 2025 13:44:20 GMT-0500 (Central Daylight Time),561513.1000000238,A,flatenter,O,enter,227,1,1166.2999999523163,560346.8000000715,7114,WL,C,10.0
4,21.342000007629395,learn,38657.999992370605,Fri Mar 28 2025 13:44:20 GMT-0500 (Central Daylight Time),561747.2000000477,A,a,O,a,221,1,233.89999997615814,561513.3000000715,7114,WL,C,11.0
4,21.441999912261963,learn,38558.00008773804,Fri Mar 28 2025 13:44:20 GMT-0500 (Central Daylight Time),561846.6000000238,A,an,O,n,62,1,333.2999999523163,561513.3000000715,7114,WL,C,11.0
4,21.691999912261963,learn,38308.00008773804,Fri Mar 28 2025 13:44:20 GMT-0500 (Central Daylight Time),562096.8999999762,A,ani,O,i,224,1,583.5999999046326,561513.3000000715,7114,WL,C,11.0
4,21.924999952316284,learn,38075.000047683716,Fri Mar 28 2025 13:44:20 GMT-0500 (Central Daylight Time),562330.3000000715,A,anil,O,l,206,1,817.0,561513.3000000715,7114,WL,C,11.0
4,22.27500009536743,learn,37724.99990463257,Fri Mar 28 2025 13:44:20 GMT-0500 (Central Daylight Time),562680.3000000715,A,ani,O,backspace,313,1,1167.0,561513.3000000715,7114,WL,C,11.0
4,22.441999912261963,learn,37558.00008773804,Fri Mar 28 2025 13:44:20 GMT-0500 (Central Daylight Time),562847.5,A,an,O,backspace,127,1,1334.1999999284744,561513.3000000715,7114,WL,C,11.0
4,22.60800004005432,learn,37391.99995994568,Fri Mar 28 2025 13:44:20 GMT-0500 (Central Daylight Time),563013.5,A,a,O,backspace,143,1,1500.1999999284744,561513.3000000715,7114,WL,C,11.0
4,22.79200005531311,learn,37207.99994468689,Fri Mar 28 2025 13:44:20 GMT-0500 (Central Daylight Time),563197.3000000715,A,,O,backspace,156,1,1684.0,561513.3000000715,7114,WL,C,11.0
4,23.04099988937378,learn,36959.00011062622,Fri Mar 28 2025 13:44:20 GMT-0500 (Central Daylight Time),563446.5,A,n,O,n,223,1,1933.1999999284744,561513.3000000715,7114,WL,C,11.0
4,23.20900011062622,learn,36790.99988937378,Fri Mar 28 2025 13:44:20 GMT-0500 (Central Daylight Time),563614.3999999762,A,na,O,a,145,1,2101.0999999046326,561513.3000000715,7114,WL,C,11.0
4,23.308000087738037,learn,36691.99991226196,Fri Mar 28 2025 13:44:20 GMT-0500 (Central Daylight Time),563713.0,A,nai,O,i,68,1,2199.6999999284744,561513.3000000715,7114,WL,C,11.0
4,23.52500009536743,learn,36474.99990463257,Fri Mar 28 2025 13:44:20 GMT-0500 (Central Daylight Time),563929.7000000477,A,nail,O,l,187,1,2416.399999976158,561513.3000000715,7114,WL,C,11.0
4,23.823999881744385,learn,36176.000118255615,Fri Mar 28 2025 13:44:20 GMT-0500 (Central Daylight Time),564228.8000000715,A,nailenter,O,enter,277,1,2715.5,561513.3000000715,7114,WL,C,11.0
4,26.19000005722046,learn,33809.99994277954,Fri Mar 28 2025 13:44:20 GMT-0500 (Central Daylight Time),566595.6000000238,A,w,O,w,2345,1,2366.600000023842,564229.0,7114,WL,C,12.0
4,26.35700011253357,learn,33642.99988746643,Fri Mar 28 2025 13:44:20 GMT-0500 (Central Daylight Time),566762.2000000477,A,wh,O,h,132,1,2533.2000000476837,564229.0,7114,WL,C,12.0
4,26.42300009727478,learn,33576.99990272522,Fri Mar 28 2025 13:44:20 GMT-0500 (Central Daylight Time),566827.8000000715,A,whe,O,e,38,1,2598.8000000715256,564229.0,7114,WL,C,12.0
4,26.657000064849854,learn,33342.99993515015,Fri Mar 28 2025 13:44:20 GMT-0500 (Central Daylight Time),567061.8000000715,A,whea,O,a,221,1,2832.8000000715256,564229.0,7114,WL,C,12.0
4,26.957000017166138,learn,33042.99998283386,Fri Mar 28 2025 13:44:20 GMT-0500 (Central Daylight Time),567362.1000000238,A,wheat,O,t,260,1,3133.100000023842,564229.0,7114,WL,C,12.0
4,29.721999883651733,learn,30278.000116348267,Fri Mar 28 2025 13:44:20 GMT-0500 (Central Daylight Time),570126.7000000477,A,wheatenter,O,enter,2727,1,5897.700000047684,564229.0,7114,WL,C,12.0
4,33.47099995613098,learn,26529.00004386902,Fri Mar 28 2025 13:44:20 GMT-0500 (Central Daylight Time),573876.5,A,l,O,l,3735,1,3749.399999976158,570127.1000000238,7114,WL,C,13.0
4,33.55399990081787,learn,26446.00009918213,Fri Mar 28 2025 13:44:20 GMT-0500 (Central Daylight Time),573959.2000000477,A,le,O,e,53,1,3832.100000023842,570127.1000000238,7114,WL,C,13.0
4,33.704999923706055,learn,26295.000076293945,Fri Mar 28 2025 13:44:20 GMT-0500 (Central Daylight Time),574109.8000000715,A,let,O,t,128,1,3982.7000000476837,570127.1000000238,7114,WL,C,13.0
4,33.87100005149841,learn,26128.999948501587,Fri Mar 28 2025 13:44:20 GMT-0500 (Central Daylight Time),574276.3999999762,A,lett,O,t,125,1,4149.299999952316,570127.1000000238,7114,WL,C,13.0
4,33.954999923706055,learn,26045.000076293945,Fri Mar 28 2025 13:44:20 GMT-0500 (Central Daylight Time),574359.7000000477,A,lette,O,e,58,1,4232.600000023842,570127.1000000238,7114,WL,C,13.0
4,34.0550000667572,learn,25944.999933242798,Fri Mar 28 2025 13:44:20 GMT-0500 (Central Daylight Time),574459.8999999762,A,letter,O,r,68,1,4332.799999952316,570127.1000000238,7114,WL,C,13.0
4,35.019999980926514,learn,24980.000019073486,Fri Mar 28 2025 13:44:20 GMT-0500 (Central Daylight Time),575425.2000000477,A,letterenter,O,enter,926,1,5298.100000023842,570127.1000000238,7114,WL,C,13.0
4,44.03500008583069,learn,15964.999914169312,Fri Mar 28 2025 13:44:20 GMT-0500 (Central Daylight Time),584439.8000000715,A,d,O,d,8997,1,9014.300000071526,575425.5,7114,WL,C,14.0
4,44.318000078201294,learn,15681.999921798706,Fri Mar 28 2025 13:44:20 GMT-0500 (Central Daylight Time),584722.8999999762,A,dc,O,c,251,1,9297.399999976158,575425.5,7114,WL,C,14.0
4,44.53500008583069,learn,15464.999914169312,Fri Mar 28 2025 13:44:20 GMT-0500 (Central Daylight Time),584939.3000000715,A,dco,O,o,184,1,9513.800000071526,575425.5,7114,WL,C,14.0
4,45.01799988746643,learn,14982.00011253357,Fri Mar 28 2025 13:44:20 GMT-0500 (Central Daylight Time),585422.5,A,dc,O,backspace,466,1,9997.0,575425.5,7114,WL,C,14.0
4,45.16799998283386,learn,14832.000017166138,Fri Mar 28 2025 13:44:20 GMT-0500 (Central Daylight Time),585573.0,A,d,O,backspace,123,1,10147.5,575425.5,7114,WL,C,14.0
4,45.38499999046326,learn,14615.000009536743,Fri Mar 28 2025 13:44:20 GMT-0500 (Central Daylight Time),585789.3999999762,A,do,O,o,178,1,10363.899999976158,575425.5,7114,WL,C,14.0
4,45.568000078201294,learn,14431.999921798706,Fri Mar 28 2025 13:44:20 GMT-0500 (Central Daylight Time),585972.5,A,doc,O,c,143,1,10547.0,575425.5,7114,WL,C,14.0
4,45.71799993515015,learn,14282.000064849854,Fri Mar 28 2025 13:44:20 GMT-0500 (Central Daylight Time),586122.3999999762,A,doct,O,t,112,1,10696.899999976158,575425.5,7114,WL,C,14.0
4,45.799999952316284,learn,14200.000047683716,Fri Mar 28 2025 13:44:20 GMT-0500 (Central Daylight Time),586204.8999999762,A,docto,O,o,60,1,10779.399999976158,575425.5,7114,WL,C,14.0
4,45.901000022888184,learn,14098.999977111816,Fri Mar 28 2025 13:44:20 GMT-0500 (Central Daylight Time),586305.8999999762,A,doctor,O,r,86,1,10880.399999976158,575425.5,7114,WL,C,14.0
4,46.049999952316284,learn,13950.000047683716,Fri Mar 28 2025 13:44:20 GMT-0500 (Central Daylight Time),586454.7000000477,A,doctorenter,O,enter,115,1,11029.200000047684,575425.5,7114,WL,C,14.0
4,60.01300001144409,learn,-13.000011444091797,Fri Mar 28 2025 13:44:20 GMT-0500 (Central Daylight Time),600417.7000000477,A,None,O,None,13956,1,13962.600000023842,586455.1000000238,7114,WL,C,15.0
5,1.0329999923706055,learn,60000.0,Fri Mar 28 2025 13:44:20 GMT-0500 (Central Daylight Time),686873.3000000715,A,t,O,t,1004,1,1033.2000000476837,685840.1000000238,7114,WL,C,1.0
5,1.182999849319458,learn,60000.0,Fri Mar 28 2025 13:44:20 GMT-0500 (Central Daylight Time),687023.0,A,to,O,o,112,1,1182.8999999761581,685840.1000000238,7114,WL,C,1.0
5,1.3829998970031738,learn,60000.0,Fri Mar 28 2025 13:44:20 GMT-0500 (Central Daylight Time),687222.7000000477,A,tow,O,w,163,1,1382.6000000238419,685840.1000000238,7114,WL,C,1.0
5,1.498999834060669,learn,60000.0,Fri Mar 28 2025 13:44:20 GMT-0500 (Central Daylight Time),687338.5,A,towe,O,e,85,1,1498.3999999761581,685840.1000000238,7114,WL,C,1.0
5,1.6329998970031738,learn,60000.0,Fri Mar 28 2025 13:44:20 GMT-0500 (Central Daylight Time),687472.8999999762,A,tower,O,r,111,1,1632.7999999523163,685840.1000000238,7114,WL,C,1.0
5,3.047999858856201,learn,60000.0,Fri Mar 28 2025 13:44:20 GMT-0500 (Central Daylight Time),688887.8000000715,A,towerenter,O,enter,1377,1,3047.7000000476837,685840.1000000238,7114,WL,C,1.0
5,3.365999937057495,learn,60000.0,Fri Mar 28 2025 13:44:20 GMT-0500 (Central Daylight Time),689205.3999999762,A,s,O,s,310,1,317.39999997615814,688888.0,7114,WL,C,2.0
5,3.5319998264312744,learn,60000.0,Fri Mar 28 2025 13:44:20 GMT-0500 (Central Daylight Time),689371.8000000715,A,su,O,u,138,1,483.8000000715256,688888.0,7114,WL,C,2.0
5,3.8489999771118164,learn,60000.0,Fri Mar 28 2025 13:44:20 GMT-0500 (Central Daylight Time),689688.5,A,sug,O,g,278,1,800.5,688888.0,7114,WL,C,2.0
5,4.081999778747559,learn,60000.0,Fri Mar 28 2025 13:44:20 GMT-0500 (Central Daylight Time),689921.6000000238,A,suga,O,a,195,1,1033.6000000238419,688888.0,7114,WL,C,2.0
5,4.247999906539917,learn,60000.0,Fri Mar 28 2025 13:44:20 GMT-0500 (Central Daylight Time),690088.3000000715,A,sugar,O,r,138,1,1200.3000000715256,688888.0,7114,WL,C,2.0
5,5.063999891281128,learn,60000.0,Fri Mar 28 2025 13:44:20 GMT-0500 (Central Daylight Time),690903.7000000477,A,sugarenter,O,enter,785,1,2015.7000000476837,688888.0,7114,WL,C,2.0
5,6.013999938964844,learn,60000.0,Fri Mar 28 2025 13:44:20 GMT-0500 (Central Daylight Time),691854.3000000715,A,h,O,h,942,1,950.3000000715256,690904.0,7114,WL,C,3.0
5,6.230999946594238,learn,60000.0,Fri Mar 28 2025 13:44:20 GMT-0500 (Central Daylight Time),692070.8000000715,A,ho,O,o,180,1,1166.8000000715256,690904.0,7114,WL,C,3.0
5,6.46399998664856,learn,60000.0,Fri Mar 28 2025 13:44:20 GMT-0500 (Central Daylight Time),692304.3000000715,A,hom,O,m,193,1,1400.3000000715256,690904.0,7114,WL,C,3.0
5,6.764999866485596,learn,60000.0,Fri Mar 28 2025 13:44:20 GMT-0500 (Central Daylight Time),692605.3000000715,A,home,O,e,257,1,1701.3000000715256,690904.0,7114,WL,C,3.0
5,7.379999876022339,learn,60000.0,Fri Mar 28 2025 13:44:20 GMT-0500 (Central Daylight Time),693219.6000000238,A,homeenter,O,enter,578,1,2315.600000023842,690904.0,7114,WL,C,3.0
5,7.813999891281128,learn,60000.0,Fri Mar 28 2025 13:44:20 GMT-0500 (Central Daylight Time),693654.0,A,b,O,b,418,1,434.0,693220.0,7114,WL,C,4.0
5,8.063999891281128,learn,60000.0,Fri Mar 28 2025 13:44:20 GMT-0500 (Central Daylight Time),693903.8000000715,A,bo,O,o,221,1,683.8000000715256,693220.0,7114,WL,C,4.0
5,8.413999795913696,learn,60000.0,Fri Mar 28 2025 13:44:20 GMT-0500 (Central Daylight Time),694253.7000000477,A,boi,O,i,316,1,1033.7000000476837,693220.0,7114,WL,C,4.0
5,8.929999828338623,learn,60000.0,Fri Mar 28 2025 13:44:20 GMT-0500 (Central Daylight Time),694770.3000000715,A,bo,O,backspace,477,1,1550.3000000715256,693220.0,7114,WL,C,4.0
5,9.996999979019165,learn,60000.0,Fri Mar 28 2025 13:44:20 GMT-0500 (Central Daylight Time),695836.6000000238,A,boy,O,y,1024,1,2616.600000023842,693220.0,7114,WL,C,4.0
5,10.561999797821045,learn,60000.0,Fri Mar 28 2025 13:44:20 GMT-0500 (Central Daylight Time),696401.8999999762,A,boyenter,O,enter,538,1,3181.899999976158,693220.0,7114,WL,C,4.0
5,11.412999868392944,learn,60000.0,Fri Mar 28 2025 13:44:20 GMT-0500 (Central Daylight Time),697253.3999999762,A,n,O,n,845,1,851.1999999284744,696402.2000000477,7114,WL,C,5.0
5,11.61299991607666,learn,60000.0,Fri Mar 28 2025 13:44:20 GMT-0500 (Central Daylight Time),697452.6000000238,A,na,O,a,172,1,1050.3999999761581,696402.2000000477,7114,WL,C,5.0
5,11.745999813079834,learn,60000.0,Fri Mar 28 2025 13:44:20 GMT-0500 (Central Daylight Time),697585.8000000715,A,nai,O,i,104,1,1183.6000000238419,696402.2000000477,7114,WL,C,5.0
5,11.995999813079834,learn,60000.0,Fri Mar 28 2025 13:44:20 GMT-0500 (Central Daylight Time),697835.8000000715,A,nail,O,l,208,1,1433.6000000238419,696402.2000000477,7114,WL,C,5.0
5,12.311999797821045,learn,60000.0,Fri Mar 28 2025 13:44:20 GMT-0500 (Central Daylight Time),698151.3999999762,A,nailenter,O,enter,277,1,1749.1999999284744,696402.2000000477,7114,WL,C,5.0
5,12.561999797821045,learn,60000.0,Fri Mar 28 2025 13:44:20 GMT-0500 (Central Daylight Time),698402.2000000477,A,f,O,f,238,1,250.5,698151.7000000477,7114,WL,C,6.0
5,12.711999893188477,learn,60000.0,Fri Mar 28 2025 13:44:20 GMT-0500 (Central Daylight Time),698552.0,A,fl,O,l,120,1,400.2999999523163,698151.7000000477,7114,WL,C,6.0
5,12.84499979019165,learn,60000.0,Fri Mar 28 2025 13:44:20 GMT-0500 (Central Daylight Time),698685.2000000477,A,fla,O,a,106,1,533.5,698151.7000000477,7114,WL,C,6.0
5,14.128999948501587,learn,60000.0,Fri Mar 28 2025 13:44:20 GMT-0500 (Central Daylight Time),699968.7000000477,A,flad,O,d,1257,1,1817.0,698151.7000000477,7114,WL,C,6.0
5,15.09499979019165,learn,60000.0,Fri Mar 28 2025 13:44:20 GMT-0500 (Central Daylight Time),700934.6000000238,A,fla,O,backspace,930,1,2782.899999976158,698151.7000000477,7114,WL,C,6.0
5,15.294999837875366,learn,60000.0,Fri Mar 28 2025 13:44:20 GMT-0500 (Central Daylight Time),701134.8999999762,A,flag,O,g,167,1,2983.1999999284744,698151.7000000477,7114,WL,C,6.0
5,15.959999799728394,learn,60000.0,Fri Mar 28 2025 13:44:20 GMT-0500 (Central Daylight Time),701800.2000000477,A,flagenter,O,enter,634,1,3648.5,698151.7000000477,7114,WL,C,6.0
5,16.42799997329712,learn,60000.0,Fri Mar 28 2025 13:44:20 GMT-0500 (Central Daylight Time),702267.8000000715,A,c,O,c,445,1,467.40000009536743,701800.3999999762,7114,WL,C,7.0
5,16.661999940872192,learn,60000.0,Fri Mar 28 2025 13:44:20 GMT-0500 (Central Daylight Time),702501.6000000238,A,ca,O,a,206,1,701.2000000476837,701800.3999999762,7114,WL,C,7.0
5,16.861999988555908,learn,60000.0,Fri Mar 28 2025 13:44:20 GMT-0500 (Central Daylight Time),702701.6000000238,A,cam,O,m,172,1,901.2000000476837,701800.3999999762,7114,WL,C,7.0
5,18.877999782562256,learn,60000.0,Fri Mar 28 2025 13:44:20 GMT-0500 (Central Daylight Time),704717.0,A,camp,O,p,1983,1,2916.600000023842,701800.3999999762,7114,WL,C,7.0
5,19.942999839782715,learn,60000.0,Fri Mar 28 2025 13:44:20 GMT-0500 (Central Daylight Time),705782.2000000477,A,campenter,O,enter,1039,1,3981.8000000715256,701800.3999999762,7114,WL,C,7.0
5,23.092999935150146,learn,60000.0,Fri Mar 28 2025 13:44:20 GMT-0500 (Central Daylight Time),708932.2000000477,A,n,O,n,3128,1,3149.8000000715256,705782.3999999762,7114,WL,C,8.0
5,23.292999982833862,learn,60000.0,Fri Mar 28 2025 13:44:20 GMT-0500 (Central Daylight Time),709131.8999999762,A,na,O,a,164,1,3349.5,705782.3999999762,7114,WL,C,8.0
5,23.47599983215332,learn,60000.0,Fri Mar 28 2025 13:44:20 GMT-0500 (Central Daylight Time),709315.3999999762,A,nai,O,i,151,1,3533.0,705782.3999999762,7114,WL,C,8.0
5,23.741999864578247,learn,60000.0,Fri Mar 28 2025 13:44:20 GMT-0500 (Central Daylight Time),709581.6000000238,A,nail,O,l,237,1,3799.2000000476837,705782.3999999762,7114,WL,C,8.0
5,24.057999849319458,learn,60000.0,Fri Mar 28 2025 13:44:20 GMT-0500 (Central Daylight Time),709897.5,A,nailenter,O,enter,282,1,4115.100000023842,705782.3999999762,7114,WL,C,8.0
5,24.29099988937378,learn,60000.0,Fri Mar 28 2025 13:44:20 GMT-0500 (Central Daylight Time),710130.7000000477,A,c,O,c,211,1,232.89999997615814,709897.8000000715,7114,WL,C,9.0
5,24.54199981689453,learn,60000.0,Fri Mar 28 2025 13:44:20 GMT-0500 (Central Daylight Time),710381.7000000477,A,ca,O,a,230,1,483.89999997615814,709897.8000000715,7114,WL,C,9.0
5,24.72599983215332,learn,60000.0,Fri Mar 28 2025 13:44:20 GMT-0500 (Central Daylight Time),710565.2000000477,A,cat,O,t,159,1,667.3999999761581,709897.8000000715,7114,WL,C,9.0
5,24.858999967575073,learn,60000.0,Fri Mar 28 2025 13:44:20 GMT-0500 (Central Daylight Time),710698.2000000477,A,catt,O,t,105,1,800.3999999761581,709897.8000000715,7114,WL,C,9.0
5,24.97499990463257,learn,60000.0,Fri Mar 28 2025 13:44:20 GMT-0500 (Central Daylight Time),710814.6000000238,A,cattl,O,l,89,1,916.7999999523163,709897.8000000715,7114,WL,C,9.0
5,25.191999912261963,learn,60000.0,Fri Mar 28 2025 13:44:20 GMT-0500 (Central Daylight Time),711031.3999999762,A,cattle,O,e,181,1,1133.5999999046326,709897.8000000715,7114,WL,C,9.0
5,27.04099988937378,learn,60000.0,Fri Mar 28 2025 13:44:20 GMT-0500 (Central Daylight Time),712879.8999999762,A,cattleenter,O,enter,1816,1,2982.0999999046326,709897.8000000715,7114,WL,C,9.0
5,28.70799994468689,learn,60000.0,Fri Mar 28 2025 13:44:20 GMT-0500 (Central Daylight Time),714546.8999999762,A,c,O,c,1654,1,1666.6999999284744,712880.2000000477,7114,WL,C,10.0
5,28.890999794006348,learn,60000.0,Fri Mar 28 2025 13:44:20 GMT-0500 (Central Daylight Time),714730.0,A,co,O,o,153,1,1849.7999999523163,712880.2000000477,7114,WL,C,10.0
5,29.69099998474121,learn,60000.0,Fri Mar 28 2025 13:44:20 GMT-0500 (Central Daylight Time),715529.8999999762,A,cor,O,r,769,1,2649.6999999284744,712880.2000000477,7114,WL,C,10.0
5,30.056999921798706,learn,60000.0,Fri Mar 28 2025 13:44:20 GMT-0500 (Central Daylight Time),715896.5,A,corn,O,n,337,1,3016.2999999523163,712880.2000000477,7114,WL,C,10.0
5,32.25599980354309,learn,60000.0,Fri Mar 28 2025 13:44:20 GMT-0500 (Central Daylight Time),718094.8000000715,A,cornenter,O,enter,2169,1,5214.600000023842,712880.2000000477,7114,WL,C,10.0
5,38.204999923706055,learn,60000.0,Fri Mar 28 2025 13:44:20 GMT-0500 (Central Daylight Time),724043.8000000715,A,s,O,s,5935,1,5948.700000047684,718095.1000000238,7114,WL,C,11.0
5,38.63799977302551,learn,60000.0,Fri Mar 28 2025 13:44:20 GMT-0500 (Central Daylight Time),724476.8999999762,A,su,O,u,390,1,6381.799999952316,718095.1000000238,7114,WL,C,11.0
5,38.83699989318848,learn,60000.0,Fri Mar 28 2025 13:44:20 GMT-0500 (Central Daylight Time),724676.8000000715,A,sug,O,g,174,1,6581.700000047684,718095.1000000238,7114,WL,C,11.0
5,39.07099986076355,learn,60000.0,Fri Mar 28 2025 13:44:20 GMT-0500 (Central Daylight Time),724909.8000000715,A,suga,O,a,212,1,6814.700000047684,718095.1000000238,7114,WL,C,11.0
5,39.46999979019165,learn,60000.0,Fri Mar 28 2025 13:44:20 GMT-0500 (Central Daylight Time),725309.7000000477,A,sugar,O,r,373,1,7214.600000023842,718095.1000000238,7114,WL,C,11.0
5,41.68599987030029,learn,60000.0,Fri Mar 28 2025 13:44:20 GMT-0500 (Central Daylight Time),727525.1000000238,A,sugarenter,O,enter,2180,1,9430.0,718095.1000000238,7114,WL,C,11.0
5,48.234999895095825,learn,60000.0,Fri Mar 28 2025 13:44:20 GMT-0500 (Central Daylight Time),734073.8999999762,A,b,O,b,6529,1,6548.599999904633,727525.3000000715,7114,WL,C,12.0
5,48.76799988746643,learn,60000.0,Fri Mar 28 2025 13:44:20 GMT-0500 (Central Daylight Time),734606.8000000715,A,bo,O,o,506,1,7081.5,727525.3000000715,7114,WL,C,12.0
5,49.317999839782715,learn,60000.0,Fri Mar 28 2025 13:44:20 GMT-0500 (Central Daylight Time),735157.3000000715,A,boy,O,y,524,1,7632.0,727525.3000000715,7114,WL,C,12.0
5,50.25,learn,60000.0,Fri Mar 28 2025 13:44:20 GMT-0500 (Central Daylight Time),736088.8999999762,A,boyenter,O,enter,892,1,8563.599999904633,727525.3000000715,7114,WL,C,12.0
5,57.21499991416931,learn,60000.0,Fri Mar 28 2025 13:44:20 GMT-0500 (Central Daylight Time),743054.3000000715,A,l,O,l,6949,1,6965.200000047684,736089.1000000238,7114,WL,C,13.0
5,57.364999771118164,learn,60000.0,Fri Mar 28 2025 13:44:20 GMT-0500 (Central Daylight Time),743203.8000000715,A,le,O,e,119,1,7114.700000047684,736089.1000000238,7114,WL,C,13.0
5,57.514999866485596,learn,60000.0,Fri Mar 28 2025 13:44:20 GMT-0500 (Central Daylight Time),743353.8000000715,A,let,O,t,114,1,7264.700000047684,736089.1000000238,7114,WL,C,13.0
5,57.63099980354309,learn,60000.0,Fri Mar 28 2025 13:44:20 GMT-0500 (Central Daylight Time),743470.5,A,lett,O,t,84,1,7381.399999976158,736089.1000000238,7114,WL,C,13.0
5,57.764999866485596,learn,60000.0,Fri Mar 28 2025 13:44:20 GMT-0500 (Central Daylight Time),743604.1000000238,A,lette,O,e,105,1,7515.0,736089.1000000238,7114,WL,C,13.0
5,57.86399984359741,learn,60000.0,Fri Mar 28 2025 13:44:20 GMT-0500 (Central Daylight Time),743703.2000000477,A,letter,O,r,67,1,7614.100000023842,736089.1000000238,7114,WL,C,13.0
5,58.763999938964844,learn,60000.0,Fri Mar 28 2025 13:44:20 GMT-0500 (Central Daylight Time),744603.0,A,letterenter,O,enter,859,1,8513.899999976158,736089.1000000238,7114,WL,C,13.0
5,61.64699983596802,learn,60000.0,Fri Mar 28 2025 13:44:20 GMT-0500 (Central Daylight Time),747486.1000000238,A,q,O,q,2866,1,2882.899999976158,744603.2000000477,7114,WL,C,14.0
6,0.9170000553131104,distr,59082.99994468689,Fri Mar 28 2025 13:44:20 GMT-0500 (Central Daylight Time),824544.2000000477,B,h,O,h,889,1,916.0,823628.2000000477,7114,WL,C,1.0
6,1.2000000476837158,distr,58799.999952316284,Fri Mar 28 2025 13:44:20 GMT-0500 (Central Daylight Time),824827.3999999762,B,ho,O,o,249,1,1199.1999999284744,823628.2000000477,7114,WL,C,1.0
6,1.7000000476837158,distr,58299.999952316284,Fri Mar 28 2025 13:44:20 GMT-0500 (Central Daylight Time),825327.2000000477,B,hot,O,t,462,1,1699.0,823628.2000000477,7114,WL,C,1.0
6,1.8670001029968262,distr,58132.999897003174,Fri Mar 28 2025 13:44:20 GMT-0500 (Central Daylight Time),825494.0,B,hote,O,e,131,1,1865.7999999523163,823628.2000000477,7114,WL,C,1.0
6,2.0,distr,58000.0,Fri Mar 28 2025 13:44:20 GMT-0500 (Central Daylight Time),825627.3999999762,B,hotel,O,l,95,1,1999.1999999284744,823628.2000000477,7114,WL,C,1.0
6,2.432000160217285,distr,57567.999839782715,Fri Mar 28 2025 13:44:20 GMT-0500 (Central Daylight Time),826059.3000000715,B,hotelenter,O,enter,406,1,2431.100000023842,823628.2000000477,7114,WL,C,1.0
6,2.7330000400543213,distr,57266.99995994568,Fri Mar 28 2025 13:44:20 GMT-0500 (Central Daylight Time),826360.1000000238,B,c,O,c,291,1,300.5,826059.6000000238,7114,WL,C,2.0
6,2.8330001831054688,distr,57166.99981689453,Fri Mar 28 2025 13:44:20 GMT-0500 (Central Daylight Time),826459.6000000238,B,ch,O,h,66,1,400.0,826059.6000000238,7114,WL,C,2.0
6,3.0329999923706055,distr,56967.000007629395,Fri Mar 28 2025 13:44:20 GMT-0500 (Central Daylight Time),826660.3999999762,B,chr,O,r,170,1,600.7999999523163,826059.6000000238,7114,WL,C,2.0
6,3.115000009536743,distr,56884.99999046326,Fri Mar 28 2025 13:44:20 GMT-0500 (Central Daylight Time),826742.5,B,chri,O,i,55,1,682.8999999761581,826059.6000000238,7114,WL,C,2.0
6,3.2340002059936523,distr,56765.99979400635,Fri Mar 28 2025 13:44:20 GMT-0500 (Central Daylight Time),826860.8999999762,B,chris,O,s,94,1,801.2999999523163,826059.6000000238,7114,WL,C,2.0
6,3.565999984741211,distr,56434.00001525879,Fri Mar 28 2025 13:44:20 GMT-0500 (Central Daylight Time),827193.2000000477,B,chrism,O,m,292,1,1133.6000000238419,826059.6000000238,7114,WL,C,2.0
6,3.7660000324249268,distr,56233.99996757507,Fri Mar 28 2025 13:44:20 GMT-0500 (Central Daylight Time),827393.2000000477,B,chrisma,O,a,169,1,1333.6000000238419,826059.6000000238,7114,WL,C,2.0
6,4.949000120162964,distr,55050.999879837036,Fri Mar 28 2025 13:44:20 GMT-0500 (Central Daylight Time),828576.3000000715,B,chrism,O,backspace,1145,1,2516.7000000476837,826059.6000000238,7114,WL,C,2.0
6,5.115000009536743,distr,54884.99999046326,Fri Mar 28 2025 13:44:20 GMT-0500 (Central Daylight Time),828741.8000000715,B,chris,O,backspace,135,1,2682.2000000476837,826059.6000000238,7114,WL,C,2.0
6,5.565999984741211,distr,54434.00001525879,Fri Mar 28 2025 13:44:20 GMT-0500 (Central Daylight Time),829192.6000000238,B,christ,O,t,431,1,3133.0,826059.6000000238,7114,WL,C,2.0
6,6.04800009727478,distr,53951.99990272522,Fri Mar 28 2025 13:44:20 GMT-0500 (Central Daylight Time),829675.5,B,christm,O,m,450,1,3615.899999976158,826059.6000000238,7114,WL,C,2.0
6,6.248000144958496,distr,53751.999855041504,Fri Mar 28 2025 13:44:20 GMT-0500 (Central Daylight Time),829875.5,B,christma,O,a,175,1,3815.899999976158,826059.6000000238,7114,WL,C,2.0
6,6.448000192642212,distr,53551.99980735779,Fri Mar 28 2025 13:44:20 GMT-0500 (Central Daylight Time),830075.3999999762,B,christmas,O,s,170,1,4015.7999999523163,826059.6000000238,7114,WL,C,2.0
6,6.748000144958496,distr,53251.999855041504,Fri Mar 28 2025 13:44:20 GMT-0500 (Central Daylight Time),830374.5,B,christmasenter,O,enter,263,1,4314.899999976158,826059.6000000238,7114,WL,C,2.0
6,7.049000024795532,distr,52950.99997520447,Fri Mar 28 2025 13:44:20 GMT-0500 (Central Daylight Time),830675.8000000715,B,v,O,v,280,1,301.0,830374.8000000715,7114,WL,C,3.0
6,7.315000057220459,distr,52684.99994277954,Fri Mar 28 2025 13:44:20 GMT-0500 (Central Daylight Time),830941.6000000238,B,va,O,a,239,1,566.7999999523163,830374.8000000715,7114,WL,C,3.0
6,7.515000104904175,distr,52484.999895095825,Fri Mar 28 2025 13:44:20 GMT-0500 (Central Daylight Time),831141.8000000715,B,val,O,l,166,1,767.0,830374.8000000715,7114,WL,C,3.0
6,7.698000192642212,distr,52301.99980735779,Fri Mar 28 2025 13:44:20 GMT-0500 (Central Daylight Time),831325.2000000477,B,vall,O,l,155,1,950.3999999761581,830374.8000000715,7114,WL,C,3.0
6,7.814000129699707,distr,52185.99987030029,Fri Mar 28 2025 13:44:20 GMT-0500 (Central Daylight Time),831440.8999999762,B,valle,O,e,84,1,1066.0999999046326,830374.8000000715,7114,WL,C,3.0
6,8.015000104904175,distr,51984.999895095825,Fri Mar 28 2025 13:44:20 GMT-0500 (Central Daylight Time),831641.7000000477,B,valley,O,y,176,1,1266.8999999761581,830374.8000000715,7114,WL,C,3.0
6,8.865000009536743,distr,51134.99999046326,Fri Mar 28 2025 13:44:20 GMT-0500 (Central Daylight Time),832491.6000000238,B,valleyenter,O,enter,807,1,2116.7999999523163,830374.8000000715,7114,WL,C,3.0
6,9.264000177383423,distr,50735.99982261658,Fri Mar 28 2025 13:44:20 GMT-0500 (Central Daylight Time),832891.3999999762,B,s,O,s,386,1,399.59999990463257,832491.8000000715,7114,WL,C,4.0
6,9.38100004196167,distr,50618.99995803833,Fri Mar 28 2025 13:44:20 GMT-0500 (Central Daylight Time),833008.3000000715,B,sk,O,k,81,1,516.5,832491.8000000715,7114,WL,C,4.0
6,9.71399998664856,distr,50286.00001335144,Fri Mar 28 2025 13:44:20 GMT-0500 (Central Daylight Time),833341.3999999762,B,sky,O,y,306,1,849.5999999046326,832491.8000000715,7114,WL,C,4.0
6,11.746999979019165,distr,48253.000020980835,Fri Mar 28 2025 13:44:20 GMT-0500 (Central Daylight Time),835373.8999999762,B,skyb,O,b,1998,1,2882.0999999046326,832491.8000000715,7114,WL,C,4.0
6,12.380000114440918,distr,47619.99988555908,Fri Mar 28 2025 13:44:20 GMT-0500 (Central Daylight Time),836007.0,B,sky,O,backspace,596,1,3515.1999999284744,832491.8000000715,7114,WL,C,4.0
6,12.796000003814697,distr,47203.9999961853,Fri Mar 28 2025 13:44:20 GMT-0500 (Central Daylight Time),836422.6000000238,B,skyenter,O,enter,379,1,3930.7999999523163,832491.8000000715,7114,WL,C,4.0
6,13.213000059127808,distr,46786.99994087219,Fri Mar 28 2025 13:44:20 GMT-0500 (Central Daylight Time),836840.0,B,b,O,b,408,1,417.1999999284744,836422.8000000715,7114,WL,C,5.0
6,13.580000162124634,distr,46419.999837875366,Fri Mar 28 2025 13:44:20 GMT-0500 (Central Daylight Time),837206.6000000238,B,bu,O,u,331,1,783.7999999523163,836422.8000000715,7114,WL,C,5.0
6,13.84600019454956,distr,46153.99980545044,Fri Mar 28 2025 13:44:20 GMT-0500 (Central Daylight Time),837473.6000000238,B,but,O,t,235,1,1050.7999999523163,836422.8000000715,7114,WL,C,5.0
6,13.963000059127808,distr,46036.99994087219,Fri Mar 28 2025 13:44:20 GMT-0500 (Central Daylight Time),837589.8000000715,B,butt,O,t,85,1,1167.0,836422.8000000715,7114,WL,C,5.0
6,14.17900013923645,distr,45820.99986076355,Fri Mar 28 2025 13:44:20 GMT-0500 (Central Daylight Time),837806.0,B,butte,O,e,187,1,1383.1999999284744,836422.8000000715,7114,WL,C,5.0
6,14.279000043869019,distr,45720.99995613098,Fri Mar 28 2025 13:44:20 GMT-0500 (Central Daylight Time),837905.8999999762,B,butter,O,r,64,1,1483.0999999046326,836422.8000000715,7114,WL,C,5.0
6,15.295000076293945,distr,44704.999923706055,Fri Mar 28 2025 13:44:20 GMT-0500 (Central Daylight Time),838921.7000000477,B,butterenter,O,enter,988,1,2498.899999976158,836422.8000000715,7114,WL,C,5.0
6,19.677000045776367,distr,40322.99995422363,Fri Mar 28 2025 13:44:20 GMT-0500 (Central Daylight Time),843304.5,B,m,O,m,4372,1,4382.399999976158,838922.1000000238,7114,WL,C,6.0
6,19.89400005340576,distr,40105.99994659424,Fri Mar 28 2025 13:44:20 GMT-0500 (Central Daylight Time),843521.3000000715,B,mo,O,o,176,1,4599.200000047684,838922.1000000238,7114,WL,C,6.0
6,20.094000101089478,distr,39905.99989891052,Fri Mar 28 2025 13:44:20 GMT-0500 (Central Daylight Time),843721.1000000238,B,mon,O,n,163,1,4799.0,838922.1000000238,7114,WL,C,6.0
6,20.3270001411438,distr,39672.9998588562,Fri Mar 28 2025 13:44:20 GMT-0500 (Central Daylight Time),843954.5,B,mone,O,e,199,1,5032.399999976158,838922.1000000238,7114,WL,C,6.0
6,20.49400019645691,distr,39505.99980354309,Fri Mar 28 2025 13:44:20 GMT-0500 (Central Daylight Time),844121.1000000238,B,money,O,y,129,1,5199.0,838922.1000000238,7114,WL,C,6.0
6,21.2260000705719,distr,38773.9999294281,Fri Mar 28 2025 13:44:20 GMT-0500 (Central Daylight Time),844853.2000000477,B,moneyenter,O,enter,698,1,5931.100000023842,838922.1000000238,7114,WL,C,6.0
6,27.259000062942505,distr,32740.999937057495,Fri Mar 28 2025 13:44:20 GMT-0500 (Central Daylight Time),850885.7000000477,B,t,O,t,6025,1,6032.200000047684,844853.5,7114,WL,C,7.0
6,27.642000198364258,distr,32357.999801635742,Fri Mar 28 2025 13:44:20 GMT-0500 (Central Daylight Time),851269.0,B,tr,O,r,357,1,6415.5,844853.5,7114,WL,C,7.0
6,27.94099998474121,distr,32059.00001525879,Fri Mar 28 2025 13:44:20 GMT-0500 (Central Daylight Time),851567.8999999762,B,tre,O,e,267,1,6714.399999976158,844853.5,7114,WL,C,7.0
6,28.10800004005432,distr,31891.99995994568,Fri Mar 28 2025 13:44:20 GMT-0500 (Central Daylight Time),851735.2000000477,B,tree,O,e,153,1,6881.700000047684,844853.5,7114,WL,C,7.0
6,28.424000024795532,distr,31575.999975204468,Fri Mar 28 2025 13:44:20 GMT-0500 (Central Daylight Time),852050.7000000477,B,treeenter,O,enter,282,1,7197.200000047684,844853.5,7114,WL,C,7.0
6,51.79900002479553,distr,8200.999975204468,Fri Mar 28 2025 13:44:20 GMT-0500 (Central Daylight Time),875426.5,B,enter,O,enter,23354,1,23375.5,852051.0,7114,WL,C,8.0
6,60.015000104904175,distr,-15.000104904174805,Fri Mar 28 2025 13:44:20 GMT-0500 (Central Daylight Time),883641.6000000238,B,None,O,None,8207,1,8214.799999952316,875426.8000000715,7114,WL,C,9.0
7,3.0820000171661377,immed,56917.99998283386,Fri Mar 28 2025 13:44:20 GMT-0500 (Central Daylight Time),905867.6000000238,A,t,O,t,3050,1,3081.600000023842,902786.0,7114,WL,C,1.0
7,3.1649999618530273,immed,56835.00003814697,Fri Mar 28 2025 13:44:20 GMT-0500 (Central Daylight Time),905950.2000000477,A,to,O,o,57,1,3164.2000000476837,902786.0,7114,WL,C,1.0
7,3.381999969482422,immed,56618.00003051758,Fri Mar 28 2025 13:44:20 GMT-0500 (Central Daylight Time),906167.2000000477,A,tow,O,w,193,1,3381.2000000476837,902786.0,7114,WL,C,1.0
7,3.5160000324249268,immed,56483.99996757507,Fri Mar 28 2025 13:44:20 GMT-0500 (Central Daylight Time),906301.2000000477,A,towe,O,e,107,1,3515.2000000476837,902786.0,7114,WL,C,1.0
7,3.6480000019073486,immed,56351.99999809265,Fri Mar 28 2025 13:44:20 GMT-0500 (Central Daylight Time),906433.8999999762,A,tower,O,r,101,1,3647.899999976158,902786.0,7114,WL,C,1.0
7,4.430999994277954,immed,55569.000005722046,Fri Mar 28 2025 13:44:20 GMT-0500 (Central Daylight Time),907216.0,A,towerenter,O,enter,754,1,4430.0,902786.0,7114,WL,C,1.0
7,5.164000034332275,immed,54835.999965667725,Fri Mar 28 2025 13:44:20 GMT-0500 (Central Daylight Time),907949.6000000238,A,c,O,c,726,1,733.2999999523163,907216.3000000715,7114,WL,C,2.0
7,5.297999858856201,immed,54702.0001411438,Fri Mar 28 2025 13:44:20 GMT-0500 (Central Daylight Time),908083.2000000477,A,co,O,o,100,1,866.8999999761581,907216.3000000715,7114,WL,C,2.0
7,5.531999826431274,immed,54468.000173568726,Fri Mar 28 2025 13:44:20 GMT-0500 (Central Daylight Time),908317.2000000477,A,cor,O,r,210,1,1100.8999999761581,907216.3000000715,7114,WL,C,2.0
7,5.747999906539917,immed,54252.00009346008,Fri Mar 28 2025 13:44:20 GMT-0500 (Central Daylight Time),908533.3999999762,A,corn,O,n,191,1,1317.0999999046326,907216.3000000715,7114,WL,C,2.0
7,6.346999883651733,immed,53653.00011634827,Fri Mar 28 2025 13:44:20 GMT-0500 (Central Daylight Time),909132.0,A,cornenter,O,enter,566,1,1915.6999999284744,907216.3000000715,7114,WL,C,2.0
7,6.71399998664856,immed,53286.00001335144,Fri Mar 28 2025 13:44:20 GMT-0500 (Central Daylight Time),909499.5,A,c,O,c,346,1,367.2999999523163,909132.2000000477,7114,WL,C,3.0
7,6.980000019073486,immed,53019.999980926514,Fri Mar 28 2025 13:44:20 GMT-0500 (Central Daylight Time),909765.8000000715,A,ca,O,a,239,1,633.6000000238419,909132.2000000477,7114,WL,C,3.0
7,7.21399998664856,immed,52786.00001335144,Fri Mar 28 2025 13:44:20 GMT-0500 (Central Daylight Time),909999.3000000715,A,cat,O,t,201,1,867.1000000238419,909132.2000000477,7114,WL,C,3.0
7,7.3480000495910645,immed,52651.999950408936,Fri Mar 28 2025 13:44:20 GMT-0500 (Central Daylight Time),910133.0,A,catt,O,t,93,1,1000.7999999523163,909132.2000000477,7114,WL,C,3.0
7,7.480000019073486,immed,52519.999980926514,Fri Mar 28 2025 13:44:20 GMT-0500 (Central Daylight Time),910266.0,A,cattl,O,l,94,1,1133.7999999523163,909132.2000000477,7114,WL,C,3.0
7,7.7799999713897705,immed,52220.00002861023,Fri Mar 28 2025 13:44:20 GMT-0500 (Central Daylight Time),910565.5,A,cattle,O,e,272,1,1433.2999999523163,909132.2000000477,7114,WL,C,3.0
7,8.312999963760376,immed,51687.000036239624,Fri Mar 28 2025 13:44:20 GMT-0500 (Central Daylight Time),911098.1000000238,A,cattleenter,O,enter,492,1,1965.8999999761581,909132.2000000477,7114,WL,C,3.0
7,8.845999956130981,immed,51154.00004386902,Fri Mar 28 2025 13:44:20 GMT-0500 (Central Daylight Time),911631.8000000715,A,f,O,f,524,1,533.4000000953674,911098.3999999762,7114,WL,C,4.0
7,8.996999979019165,immed,51003.000020980835,Fri Mar 28 2025 13:44:20 GMT-0500 (Central Daylight Time),911782.1000000238,A,fl,O,l,123,1,683.7000000476837,911098.3999999762,7114,WL,C,4.0
7,9.146999835968018,immed,50853.00016403198,Fri Mar 28 2025 13:44:20 GMT-0500 (Central Daylight Time),911932.3000000715,A,fla,O,a,117,1,833.9000000953674,911098.3999999762,7114,WL,C,4.0
7,9.562999963760376,immed,50437.000036239624,Fri Mar 28 2025 13:44:20 GMT-0500 (Central Daylight Time),912348.6000000238,A,flag,O,g,374,1,1250.2000000476837,911098.3999999762,7114,WL,C,4.0
7,9.878999948501587,immed,50121.00005149841,Fri Mar 28 2025 13:44:20 GMT-0500 (Central Daylight Time),912664.3000000715,A,flagenter,O,enter,283,1,1565.9000000953674,911098.3999999762,7114,WL,C,4.0
7,10.263000011444092,immed,49736.99998855591,Fri Mar 28 2025 13:44:20 GMT-0500 (Central Daylight Time),913048.3999999762,A,m,O,m,367,1,384.0,912664.3999999762,7114,WL,C,5.0
7,10.328999996185303,immed,49671.0000038147,Fri Mar 28 2025 13:44:20 GMT-0500 (Central Daylight Time),913114.3000000715,A,ma,O,a,34,1,449.90000009536743,912664.3999999762,7114,WL,C,5.0
7,10.912999868392944,immed,49087.000131607056,Fri Mar 28 2025 13:44:20 GMT-0500 (Central Daylight Time),913698.1000000238,A,m,O,backspace,566,1,1033.7000000476837,912664.3999999762,7114,WL,C,5.0
7,11.145999908447266,immed,48854.000091552734,Fri Mar 28 2025 13:44:20 GMT-0500 (Central Daylight Time),913931.5,A,,O,backspace,198,1,1267.1000000238419,912664.3999999762,7114,WL,C,5.0
7,11.395999908447266,immed,48604.000091552734,Fri Mar 28 2025 13:44:20 GMT-0500 (Central Daylight Time),914181.2000000477,A,n,O,n,226,1,1516.8000000715256,912664.3999999762,7114,WL,C,5.0
7,11.77999997138977,immed,48220.00002861023,Fri Mar 28 2025 13:44:20 GMT-0500 (Central Daylight Time),914565.2000000477,A,na,O,a,355,1,1900.8000000715256,912664.3999999762,7114,WL,C,5.0
7,11.928999900817871,immed,48071.00009918213,Fri Mar 28 2025 13:44:20 GMT-0500 (Central Daylight Time),914714.3999999762,A,nai,O,i,121,1,2050.0,912664.3999999762,7114,WL,C,5.0
7,12.178999900817871,immed,47821.00009918213,Fri Mar 28 2025 13:44:20 GMT-0500 (Central Daylight Time),914964.3999999762,A,nail,O,l,218,1,2300.0,912664.3999999762,7114,WL,C,5.0
7,12.460999965667725,immed,47539.000034332275,Fri Mar 28 2025 13:44:20 GMT-0500 (Central Daylight Time),915246.7000000477,A,nailenter,O,enter,252,1,2582.3000000715256,912664.3999999762,7114,WL,C,5.0
7,12.728999853134155,immed,47271.000146865845,Fri Mar 28 2025 13:44:20 GMT-0500 (Central Daylight Time),915514.2000000477,A,s,O,s,255,1,267.3000000715256,915246.8999999762,7114,WL,C,6.0
7,12.861999988555908,immed,47138.00001144409,Fri Mar 28 2025 13:44:20 GMT-0500 (Central Daylight Time),915647.7000000477,A,sh,O,h,105,1,400.8000000715256,915246.8999999762,7114,WL,C,6.0
7,13.09500002861023,immed,46904.99997138977,Fri Mar 28 2025 13:44:20 GMT-0500 (Central Daylight Time),915880.8000000715,A,sho,O,o,203,1,633.9000000953674,915246.8999999762,7114,WL,C,6.0
7,13.227999925613403,immed,46772.0000743866,Fri Mar 28 2025 13:44:20 GMT-0500 (Central Daylight Time),916013.7000000477,A,shor,O,r,99,1,766.8000000715256,915246.8999999762,7114,WL,C,6.0
7,13.310999870300293,immed,46689.00012969971,Fri Mar 28 2025 13:44:20 GMT-0500 (Central Daylight Time),916096.3999999762,A,shore,O,e,61,1,849.5,915246.8999999762,7114,WL,C,6.0
7,13.628000020980835,immed,46371.999979019165,Fri Mar 28 2025 13:44:20 GMT-0500 (Central Daylight Time),916413.0,A,shoreenter,O,enter,298,1,1166.1000000238419,915246.8999999762,7114,WL,C,6.0
7,13.911999940872192,immed,46088.00005912781,Fri Mar 28 2025 13:44:20 GMT-0500 (Central Daylight Time),916697.2000000477,A,h,O,h,265,1,283.89999997615814,916413.3000000715,7114,WL,C,7.0
7,13.994999885559082,immed,46005.00011444092,Fri Mar 28 2025 13:44:20 GMT-0500 (Central Daylight Time),916780.5,A,ho,O,o,56,1,367.1999999284744,916413.3000000715,7114,WL,C,7.0
7,14.17799997329712,immed,45822.00002670288,Fri Mar 28 2025 13:44:20 GMT-0500 (Central Daylight Time),916963.8999999762,A,hom,O,m,163,1,550.5999999046326,916413.3000000715,7114,WL,C,7.0
7,14.277999877929688,immed,45722.00012207031,Fri Mar 28 2025 13:44:20 GMT-0500 (Central Daylight Time),917063.7000000477,A,home,O,e,73,1,650.3999999761581,916413.3000000715,7114,WL,C,7.0
7,14.543999910354614,immed,45456.000089645386,Fri Mar 28 2025 13:44:20 GMT-0500 (Central Daylight Time),917329.3999999762,A,homeenter,O,enter,224,1,916.0999999046326,916413.3000000715,7114,WL,C,7.0
7,14.760999917984009,immed,45239.00008201599,Fri Mar 28 2025 13:44:20 GMT-0500 (Central Daylight Time),917546.8000000715,A,c,O,c,204,1,217.20000004768372,917329.6000000238,7114,WL,C,8.0
7,14.960999965667725,immed,45039.000034332275,Fri Mar 28 2025 13:44:20 GMT-0500 (Central Daylight Time),917746.8999999762,A,ca,O,a,160,1,417.2999999523163,917329.6000000238,7114,WL,C,8.0
7,15.01199984550476,immed,44988.00015449524,Fri Mar 28 2025 13:44:20 GMT-0500 (Central Daylight Time),917797.2000000477,A,cam,O,m,14,1,467.60000002384186,917329.6000000238,7114,WL,C,8.0
7,15.310999870300293,immed,44689.00012969971,Fri Mar 28 2025 13:44:20 GMT-0500 (Central Daylight Time),918096.8000000715,A,camp,O,p,281,1,767.2000000476837,917329.6000000238,7114,WL,C,8.0
7,16.40999984741211,immed,43590.00015258789,Fri Mar 28 2025 13:44:20 GMT-0500 (Central Daylight Time),919195.3999999762,A,campenter,O,enter,1065,1,1865.7999999523163,917329.6000000238,7114,WL,C,8.0
7,20.743000030517578,immed,39256.99996948242,Fri Mar 28 2025 13:44:20 GMT-0500 (Central Daylight Time),923528.0,A,w,O,w,4316,1,4332.299999952316,919195.7000000477,7114,WL,C,9.0
7,20.858999967575073,immed,39141.00003242493,Fri Mar 28 2025 13:44:20 GMT-0500 (Central Daylight Time),923644.8999999762,A,wh,O,h,91,1,4449.199999928474,919195.7000000477,7114,WL,C,9.0
7,21.008999824523926,immed,38991.000175476074,Fri Mar 28 2025 13:44:20 GMT-0500 (Central Daylight Time),923794.8999999762,A,whe,O,e,124,1,4599.199999928474,919195.7000000477,7114,WL,C,9.0
7,21.30900001525879,immed,38690.99998474121,Fri Mar 28 2025 13:44:20 GMT-0500 (Central Daylight Time),924094.3999999762,A,whea,O,a,277,1,4898.699999928474,919195.7000000477,7114,WL,C,9.0
7,21.575999975204468,immed,38424.00002479553,Fri Mar 28 2025 13:44:20 GMT-0500 (Central Daylight Time),924361.3000000715,A,wheat,O,t,242,1,5165.600000023842,919195.7000000477,7114,WL,C,9.0
7,23.257999897003174,immed,36742.000102996826,Fri Mar 28 2025 13:44:20 GMT-0500 (Central Daylight Time),926043.2000000477,A,wheatenter,O,enter,1652,1,6847.5,919195.7000000477,7114,WL,C,9.0
7,29.457000017166138,immed,30542.999982833862,Fri Mar 28 2025 13:44:20 GMT-0500 (Central Daylight Time),932242.0,A,b,O,b,6187,1,6198.5,926043.5,7114,WL,C,10.0
7,29.6729998588562,immed,30327.0001411438,Fri Mar 28 2025 13:44:20 GMT-0500 (Central Daylight Time),932458.6000000238,A,bo,O,o,183,1,6415.100000023842,926043.5,7114,WL,C,10.0
7,29.83999991416931,immed,30160.00008583069,Fri Mar 28 2025 13:44:20 GMT-0500 (Central Daylight Time),932625.0,A,bod,O,d,136,1,6581.5,926043.5,7114,WL,C,10.0
7,30.039999961853027,immed,29960.000038146973,Fri Mar 28 2025 13:44:20 GMT-0500 (Central Daylight Time),932825.2000000477,A,body,O,y,163,1,6781.700000047684,926043.5,7114,WL,C,10.0
7,30.75499987602234,immed,29245.00012397766,Fri Mar 28 2025 13:44:20 GMT-0500 (Central Daylight Time),933540.7000000477,A,bodyenter,O,enter,688,1,7497.200000047684,926043.5,7114,WL,C,10.0
7,31.139999866485596,immed,28860.000133514404,Fri Mar 28 2025 13:44:20 GMT-0500 (Central Daylight Time),933925.5,A,b,O,b,377,1,384.60000002384186,933540.8999999762,7114,WL,C,11.0
7,31.4229998588562,immed,28577.0001411438,Fri Mar 28 2025 13:44:20 GMT-0500 (Central Daylight Time),934208.0,A,bo,O,o,253,1,667.1000000238419,933540.8999999762,7114,WL,C,11.0
7,31.805999994277954,immed,28194.000005722046,Fri Mar 28 2025 13:44:20 GMT-0500 (Central Daylight Time),934591.5,A,boy,O,y,347,1,1050.6000000238419,933540.8999999762,7114,WL,C,11.0
7,32.23799991607666,immed,27762.00008392334,Fri Mar 28 2025 13:44:20 GMT-0500 (Central Daylight Time),935023.5,A,boyenter,O,enter,392,1,1482.6000000238419,933540.8999999762,7114,WL,C,11.0
7,32.60599994659424,immed,27394.00005340576,Fri Mar 28 2025 13:44:20 GMT-0500 (Central Daylight Time),935390.8999999762,A,h,O,h,358,1,367.09999990463257,935023.8000000715,7114,WL,C,12.0
7,32.77199983596802,immed,27228.000164031982,Fri Mar 28 2025 13:44:20 GMT-0500 (Central Daylight Time),935557.6000000238,A,ho,O,o,132,1,533.7999999523163,935023.8000000715,7114,WL,C,12.0
7,33.00499987602234,immed,26995.00012397766,Fri Mar 28 2025 13:44:20 GMT-0500 (Central Daylight Time),935790.6000000238,A,hom,O,m,207,1,766.7999999523163,935023.8000000715,7114,WL,C,12.0
7,33.22199988365173,immed,26778.000116348267,Fri Mar 28 2025 13:44:20 GMT-0500 (Central Daylight Time),936007.5,A,home,O,e,184,1,983.6999999284744,935023.8000000715,7114,WL,C,12.0
7,33.57099986076355,immed,26429.00013923645,Fri Mar 28 2025 13:44:20 GMT-0500 (Central Daylight Time),936356.3999999762,A,homeenter,O,enter,314,1,1332.5999999046326,935023.8000000715,7114,WL,C,12.0
7,60.013999938964844,immed,-13.99993896484375,Fri Mar 28 2025 13:44:20 GMT-0500 (Central Daylight Time),962798.8000000715,A,None,O,None,26436,1,26442.200000047684,936356.6000000238,7114,WL,C,13.0
