block_c,block_dur,condition,countdown,datetime,endtime,list,multichar_response,project,response,response_time,session_number,start_end,starttime,subject_id,task,task_vers,trial
,,,,Wed Mar 05 2025 11:11:55 GMT-0600 (Central Standard Time),,,,O,space,725,1,,,7086,WL,C,
prac,,0,,Wed Mar 05 2025 11:11:55 GMT-0600 (Central Standard Time),,NA,b,O,b,2330,1,,,7086,WL,C,1.0
prac,,0,,Wed Mar 05 2025 11:11:55 GMT-0600 (Central Standard Time),,NA,bo,O,o,326,1,,,7086,WL,C,1.0
prac,,0,,Wed Mar 05 2025 11:11:55 GMT-0600 (Central Standard Time),,NA,boo,O,o,144,1,,,7086,WL,C,1.0
prac,,0,,Wed Mar 05 2025 11:11:55 GMT-0600 (Central Standard Time),,NA,boos,O,s,127,1,,,7086,WL,C,1.0
prac,,0,,Wed Mar 05 2025 11:11:55 GMT-0600 (Central Standard Time),,NA,boost,O,t,123,1,,,7086,WL,C,1.0
prac,,0,,Wed Mar 05 2025 11:11:55 GMT-0600 (Central Standard Time),,NA,boostenter,O,enter,1851,1,,,7086,WL,C,1.0
1,3.0490000247955322,learn,56950.99997520447,Wed Mar 05 2025 11:11:55 GMT-0600 (Central Standard Time),151055.60000002384,A,t,O,t,3030,1,3048.7000000476837,148006.89999997616,7086,WL,C,1.0
1,3.198000192642212,learn,56801.99980735779,Wed Mar 05 2025 11:11:55 GMT-0600 (Central Standard Time),151204.79999995232,A,to,O,o,132,1,3197.899999976158,148006.89999997616,7086,WL,C,1.0
1,3.2810001373291016,learn,56718.9998626709,Wed Mar 05 2025 11:11:55 GMT-0600 (Central Standard Time),151287.29999995232,A,tow,O,w,72,1,3280.399999976158,148006.89999997616,7086,WL,C,1.0
1,3.682000160217285,learn,56317.999839782715,Wed Mar 05 2025 11:11:55 GMT-0600 (Central Standard Time),151688.10000002384,A,towe,O,e,380,1,3681.2000000476837,148006.89999997616,7086,WL,C,1.0
1,3.8490002155303955,learn,56150.999784469604,Wed Mar 05 2025 11:11:55 GMT-0600 (Central Standard Time),151855.5,A,tower,O,r,156,1,3848.600000023842,148006.89999997616,7086,WL,C,1.0
1,5.464000225067139,learn,54535.99977493286,Wed Mar 05 2025 11:11:55 GMT-0600 (Central Standard Time),153470.79999995232,A,towerenter,O,enter,1604,1,5463.899999976158,148006.89999997616,7086,WL,C,1.0
1,7.114000082015991,learn,52885.99991798401,Wed Mar 05 2025 11:11:55 GMT-0600 (Central Standard Time),155120.70000004768,A,w,O,w,1638,1,1649.5,153471.20000004768,7086,WL,C,2.0
1,7.331000089645386,learn,52668.999910354614,Wed Mar 05 2025 11:11:55 GMT-0600 (Central Standard Time),155337.60000002384,A,wh,O,h,193,1,1866.3999999761581,153471.20000004768,7086,WL,C,2.0
1,7.632000207901001,learn,52367.999792099,Wed Mar 05 2025 11:11:55 GMT-0600 (Central Standard Time),155638.0,A,whe,O,e,292,1,2166.7999999523163,153471.20000004768,7086,WL,C,2.0
1,7.880000114440918,learn,52119.99988555908,Wed Mar 05 2025 11:11:55 GMT-0600 (Central Standard Time),155886.0,A,whea,O,a,231,1,2414.7999999523163,153471.20000004768,7086,WL,C,2.0
1,8.013000011444092,learn,51986.99998855591,Wed Mar 05 2025 11:11:55 GMT-0600 (Central Standard Time),156019.79999995232,A,wheat,O,t,116,1,2548.5999999046326,153471.20000004768,7086,WL,C,2.0
1,8.496000051498413,learn,51503.99994850159,Wed Mar 05 2025 11:11:55 GMT-0600 (Central Standard Time),156502.70000004768,A,wheatenter,O,enter,463,1,3031.5,153471.20000004768,7086,WL,C,2.0
1,11.59600019454956,learn,48403.99980545044,Wed Mar 05 2025 11:11:55 GMT-0600 (Central Standard Time),159602.20000004768,A,q,O,q,3078,1,3099.2000000476837,156503.0,7086,WL,C,3.0
1,11.86300015449524,learn,48136.99984550476,Wed Mar 05 2025 11:11:55 GMT-0600 (Central Standard Time),159869.0,A,qu,O,u,259,1,3366.0,156503.0,7086,WL,C,3.0
1,12.145000219345093,learn,47854.99978065491,Wed Mar 05 2025 11:11:55 GMT-0600 (Central Standard Time),160151.79999995232,A,que,O,e,259,1,3648.7999999523163,156503.0,7086,WL,C,3.0
1,12.645000219345093,learn,47354.99978065491,Wed Mar 05 2025 11:11:55 GMT-0600 (Central Standard Time),160651.70000004768,A,quee,O,e,485,1,4148.700000047684,156503.0,7086,WL,C,3.0
1,12.912000179290771,learn,47087.99982070923,Wed Mar 05 2025 11:11:55 GMT-0600 (Central Standard Time),160918.29999995232,A,queen,O,n,248,1,4415.299999952316,156503.0,7086,WL,C,3.0
1,13.478000164031982,learn,46521.99983596802,Wed Mar 05 2025 11:11:55 GMT-0600 (Central Standard Time),161484.70000004768,A,queenenter,O,enter,557,1,4981.700000047684,156503.0,7086,WL,C,3.0
1,14.829000234603882,learn,45170.99976539612,Wed Mar 05 2025 11:11:55 GMT-0600 (Central Standard Time),162835.79999995232,A,s,O,s,1346,1,1350.7999999523163,161485.0,7086,WL,C,4.0
1,14.963000059127808,learn,45036.99994087219,Wed Mar 05 2025 11:11:55 GMT-0600 (Central Standard Time),162969.20000004768,A,su,O,u,113,1,1484.2000000476837,161485.0,7086,WL,C,4.0
1,16.11300015449524,learn,43886.99984550476,Wed Mar 05 2025 11:11:55 GMT-0600 (Central Standard Time),164119.0,A,sug,O,g,1138,1,2634.0,161485.0,7086,WL,C,4.0
1,16.24500012397766,learn,43754.99987602234,Wed Mar 05 2025 11:11:55 GMT-0600 (Central Standard Time),164251.70000004768,A,suga,O,a,125,1,2766.7000000476837,161485.0,7086,WL,C,4.0
1,16.396000146865845,learn,43603.999853134155,Wed Mar 05 2025 11:11:55 GMT-0600 (Central Standard Time),164402.29999995232,A,sugar,O,r,127,1,2917.2999999523163,161485.0,7086,WL,C,4.0
1,16.8270001411438,learn,43172.9998588562,Wed Mar 05 2025 11:11:55 GMT-0600 (Central Standard Time),164833.79999995232,A,sugarenter,O,enter,418,1,3348.7999999523163,161485.0,7086,WL,C,4.0
1,17.694000005722046,learn,42305.999994277954,Wed Mar 05 2025 11:11:55 GMT-0600 (Central Standard Time),165700.70000004768,A,b,O,b,851,1,866.6000000238419,164834.10000002384,7086,WL,C,5.0
1,17.81000018119812,learn,42189.99981880188,Wed Mar 05 2025 11:11:55 GMT-0600 (Central Standard Time),165816.89999997616,A,bo,O,o,96,1,982.7999999523163,164834.10000002384,7086,WL,C,5.0
1,17.962000131607056,learn,42037.999868392944,Wed Mar 05 2025 11:11:55 GMT-0600 (Central Standard Time),165968.60000002384,A,boy,O,y,129,1,1134.5,164834.10000002384,7086,WL,C,5.0
1,20.045000076293945,learn,39954.999923706055,Wed Mar 05 2025 11:11:55 GMT-0600 (Central Standard Time),168051.10000002384,A,boyenter,O,enter,2078,1,3217.0,164834.10000002384,7086,WL,C,5.0
1,20.80900001525879,learn,39190.99998474121,Wed Mar 05 2025 11:11:55 GMT-0600 (Central Standard Time),168815.89999997616,A,c,O,c,746,1,764.3999999761581,168051.5,7086,WL,C,6.0
1,20.926000118255615,learn,39073.999881744385,Wed Mar 05 2025 11:11:55 GMT-0600 (Central Standard Time),168932.79999995232,A,co,O,o,94,1,881.2999999523163,168051.5,7086,WL,C,6.0
1,21.04300022125244,learn,38956.99977874756,Wed Mar 05 2025 11:11:55 GMT-0600 (Central Standard Time),169049.39999997616,A,cor,O,r,94,1,997.8999999761581,168051.5,7086,WL,C,6.0
1,21.177000045776367,learn,38822.99995422363,Wed Mar 05 2025 11:11:55 GMT-0600 (Central Standard Time),169183.20000004768,A,corn,O,n,113,1,1131.7000000476837,168051.5,7086,WL,C,6.0
1,21.444000005722046,learn,38555.999994277954,Wed Mar 05 2025 11:11:55 GMT-0600 (Central Standard Time),169450.20000004768,A,cornenter,O,enter,259,1,1398.7000000476837,168051.5,7086,WL,C,6.0
1,24.41000008583069,learn,35589.99991416931,Wed Mar 05 2025 11:11:55 GMT-0600 (Central Standard Time),172416.10000002384,A,n,O,n,2955,1,2965.600000023842,169450.5,7086,WL,C,7.0
1,24.510000228881836,learn,35489.999771118164,Wed Mar 05 2025 11:11:55 GMT-0600 (Central Standard Time),172516.10000002384,A,na,O,a,77,1,3065.600000023842,169450.5,7086,WL,C,7.0
1,24.625,learn,35375.0,Wed Mar 05 2025 11:11:55 GMT-0600 (Central Standard Time),172631.29999995232,A,nai,O,i,104,1,3180.7999999523163,169450.5,7086,WL,C,7.0
1,25.058000087738037,learn,34941.99991226196,Wed Mar 05 2025 11:11:55 GMT-0600 (Central Standard Time),173064.39999997616,A,nail,O,l,422,1,3613.899999976158,169450.5,7086,WL,C,7.0
1,25.326000213623047,learn,34673.99978637695,Wed Mar 05 2025 11:11:55 GMT-0600 (Central Standard Time),173332.60000002384,A,nailenter,O,enter,251,1,3882.100000023842,169450.5,7086,WL,C,7.0
1,27.808000087738037,learn,32191.999912261963,Wed Mar 05 2025 11:11:55 GMT-0600 (Central Standard Time),175814.29999995232,A,d,O,d,2464,1,2481.5,173332.79999995232,7086,WL,C,8.0
1,27.924000024795532,learn,32075.999975204468,Wed Mar 05 2025 11:11:55 GMT-0600 (Central Standard Time),175930.60000002384,A,do,O,o,104,1,2597.8000000715256,173332.79999995232,7086,WL,C,8.0
1,28.091000080108643,learn,31908.999919891357,Wed Mar 05 2025 11:11:55 GMT-0600 (Central Standard Time),176097.5,A,doc,O,c,154,1,2764.7000000476837,173332.79999995232,7086,WL,C,8.0
1,28.29100012779236,learn,31708.99987220764,Wed Mar 05 2025 11:11:55 GMT-0600 (Central Standard Time),176297.29999995232,A,doct,O,t,187,1,2964.5,173332.79999995232,7086,WL,C,8.0
1,28.408000230789185,learn,31591.999769210815,Wed Mar 05 2025 11:11:55 GMT-0600 (Central Standard Time),176414.79999995232,A,docto,O,o,111,1,3082.0,173332.79999995232,7086,WL,C,8.0
1,28.558000087738037,learn,31441.999912261963,Wed Mar 05 2025 11:11:55 GMT-0600 (Central Standard Time),176564.89999997616,A,doctor,O,r,144,1,3232.100000023842,173332.79999995232,7086,WL,C,8.0
1,28.890000104904175,learn,31109.999895095825,Wed Mar 05 2025 11:11:55 GMT-0600 (Central Standard Time),176897.10000002384,A,doctorenter,O,enter,319,1,3564.3000000715256,173332.79999995232,7086,WL,C,8.0
1,37.97200012207031,learn,22027.999877929688,Wed Mar 05 2025 11:11:55 GMT-0600 (Central Standard Time),185978.89999997616,A,b,O,b,9068,1,9081.5,176897.39999997616,7086,WL,C,9.0
1,38.104000091552734,learn,21895.999908447266,Wed Mar 05 2025 11:11:55 GMT-0600 (Central Standard Time),186110.79999995232,A,bo,O,o,114,1,9213.399999976158,176897.39999997616,7086,WL,C,9.0
1,38.27000021934509,learn,21729.999780654907,Wed Mar 05 2025 11:11:55 GMT-0600 (Central Standard Time),186276.5,A,bod,O,d,157,1,9379.100000023842,176897.39999997616,7086,WL,C,9.0
1,38.4060001373291,learn,21593.9998626709,Wed Mar 05 2025 11:11:55 GMT-0600 (Central Standard Time),186412.70000004768,A,body,O,y,129,1,9515.300000071526,176897.39999997616,7086,WL,C,9.0
1,39.03700017929077,learn,20962.99982070923,Wed Mar 05 2025 11:11:55 GMT-0600 (Central Standard Time),187044.0,A,bodyenter,O,enter,616,1,10146.600000023842,176897.39999997616,7086,WL,C,9.0
1,39.52000021934509,learn,20479.999780654907,Wed Mar 05 2025 11:11:55 GMT-0600 (Central Standard Time),187526.70000004768,A,c,O,c,473,1,482.40000009536743,187044.29999995232,7086,WL,C,10.0
1,39.68600010871887,learn,20313.999891281128,Wed Mar 05 2025 11:11:55 GMT-0600 (Central Standard Time),187693.10000002384,A,ca,O,a,159,1,648.8000000715256,187044.29999995232,7086,WL,C,10.0
1,39.771000146865845,learn,20228.999853134155,Wed Mar 05 2025 11:11:55 GMT-0600 (Central Standard Time),187777.5,A,cam,O,m,61,1,733.2000000476837,187044.29999995232,7086,WL,C,10.0
1,39.937000036239624,learn,20062.999963760376,Wed Mar 05 2025 11:11:55 GMT-0600 (Central Standard Time),187943.70000004768,A,camp,O,p,155,1,899.4000000953674,187044.29999995232,7086,WL,C,10.0
1,40.20300006866455,learn,19796.99993133545,Wed Mar 05 2025 11:11:55 GMT-0600 (Central Standard Time),188209.79999995232,A,campenter,O,enter,251,1,1165.5,187044.29999995232,7086,WL,C,10.0
1,44.35199999809265,learn,15648.000001907349,Wed Mar 05 2025 11:11:55 GMT-0600 (Central Standard Time),192359.29999995232,A,c,O,c,4139,1,4149.199999928474,188210.10000002384,7086,WL,C,11.0
1,44.486000061035156,learn,15513.999938964844,Wed Mar 05 2025 11:11:55 GMT-0600 (Central Standard Time),192493.0,A,ca,O,a,128,1,4282.899999976158,188210.10000002384,7086,WL,C,11.0
1,44.61900019645691,learn,15380.99980354309,Wed Mar 05 2025 11:11:55 GMT-0600 (Central Standard Time),192625.79999995232,A,cat,O,t,110,1,4415.699999928474,188210.10000002384,7086,WL,C,11.0
1,44.76900005340576,learn,15230.999946594238,Wed Mar 05 2025 11:11:55 GMT-0600 (Central Standard Time),192775.89999997616,A,catt,O,t,139,1,4565.799999952316,188210.10000002384,7086,WL,C,11.0
1,44.9520001411438,learn,15047.999858856201,Wed Mar 05 2025 11:11:55 GMT-0600 (Central Standard Time),192958.79999995232,A,cattl,O,l,174,1,4748.699999928474,188210.10000002384,7086,WL,C,11.0
1,45.10199999809265,learn,14898.000001907349,Wed Mar 05 2025 11:11:55 GMT-0600 (Central Standard Time),193109.0,A,cattle,O,e,142,1,4898.899999976158,188210.10000002384,7086,WL,C,11.0
1,45.58400011062622,learn,14415.99988937378,Wed Mar 05 2025 11:11:55 GMT-0600 (Central Standard Time),193590.89999997616,A,cattleenter,O,enter,463,1,5380.799999952316,188210.10000002384,7086,WL,C,11.0
1,53.3510000705719,learn,6648.999929428101,Wed Mar 05 2025 11:11:55 GMT-0600 (Central Standard Time),201358.29999995232,A,s,O,s,7761,1,7767.099999904633,193591.20000004768,7086,WL,C,12.0
1,53.44800019264221,learn,6551.999807357788,Wed Mar 05 2025 11:11:55 GMT-0600 (Central Standard Time),201454.89999997616,A,sh,O,h,83,1,7863.699999928474,193591.20000004768,7086,WL,C,12.0
1,53.56600022315979,learn,6433.99977684021,Wed Mar 05 2025 11:11:55 GMT-0600 (Central Standard Time),201572.89999997616,A,sho,O,o,110,1,7981.699999928474,193591.20000004768,7086,WL,C,12.0
1,53.61400008201599,learn,6385.999917984009,Wed Mar 05 2025 11:11:55 GMT-0600 (Central Standard Time),201621.0,A,shor,O,r,24,1,8029.799999952316,193591.20000004768,7086,WL,C,12.0
1,53.75,learn,6250.0,Wed Mar 05 2025 11:11:55 GMT-0600 (Central Standard Time),201756.5,A,shore,O,e,120,1,8165.299999952316,193591.20000004768,7086,WL,C,12.0
1,53.96500015258789,learn,6034.999847412109,Wed Mar 05 2025 11:11:55 GMT-0600 (Central Standard Time),201972.0,A,shoreenter,O,enter,206,1,8380.799999952316,193591.20000004768,7086,WL,C,12.0
1,60.01300001144409,learn,-13.000011444091797,Wed Mar 05 2025 11:11:55 GMT-0600 (Central Standard Time),208020.0,A,None,O,None,6042,1,6047.700000047684,201972.29999995232,7086,WL,C,13.0
2,0.7999999523162842,learn,59200.000047683716,Wed Mar 05 2025 11:11:55 GMT-0600 (Central Standard Time),286645.0,A,t,O,t,783,1,799.1000000238419,285845.89999997616,7086,WL,C,1.0
2,0.9170000553131104,learn,59082.99994468689,Wed Mar 05 2025 11:11:55 GMT-0600 (Central Standard Time),286762.2999999523,A,to,O,o,95,1,916.3999999761581,285845.89999997616,7086,WL,C,1.0
2,1.0510001182556152,learn,58948.999881744385,Wed Mar 05 2025 11:11:55 GMT-0600 (Central Standard Time),286896.2999999523,A,tow,O,w,113,1,1050.3999999761581,285845.89999997616,7086,WL,C,1.0
2,1.1670000553131104,learn,58832.99994468689,Wed Mar 05 2025 11:11:55 GMT-0600 (Central Standard Time),287011.89999997616,A,towe,O,e,100,1,1166.0,285845.89999997616,7086,WL,C,1.0
2,1.3020000457763672,learn,58697.99995422363,Wed Mar 05 2025 11:11:55 GMT-0600 (Central Standard Time),287147.0,A,tower,O,r,129,1,1301.1000000238419,285845.89999997616,7086,WL,C,1.0
2,2.5829999446868896,learn,57417.00005531311,Wed Mar 05 2025 11:11:55 GMT-0600 (Central Standard Time),288428.10000002384,A,towerenter,O,enter,1274,1,2582.2000000476837,285845.89999997616,7086,WL,C,1.0
2,2.815999984741211,learn,57184.00001525879,Wed Mar 05 2025 11:11:55 GMT-0600 (Central Standard Time),288661.2999999523,A,w,O,w,217,1,232.89999997615814,288428.39999997616,7086,WL,C,2.0
2,2.9670000076293945,learn,57032.999992370605,Wed Mar 05 2025 11:11:55 GMT-0600 (Central Standard Time),288812.5,A,wh,O,h,128,1,384.10000002384186,288428.39999997616,7086,WL,C,2.0
2,2.9800000190734863,learn,57019.999980926514,Wed Mar 05 2025 11:11:55 GMT-0600 (Central Standard Time),288825.39999997616,A,whe,O,e,6,1,397.0,288428.39999997616,7086,WL,C,2.0
2,4.117000102996826,learn,55882.999897003174,Wed Mar 05 2025 11:11:55 GMT-0600 (Central Standard Time),289961.89999997616,A,whea,O,a,1117,1,1533.5,288428.39999997616,7086,WL,C,2.0
2,4.197999954223633,learn,55802.00004577637,Wed Mar 05 2025 11:11:55 GMT-0600 (Central Standard Time),290043.39999997616,A,wheat,O,t,66,1,1615.0,288428.39999997616,7086,WL,C,2.0
2,4.367000102996826,learn,55632.999897003174,Wed Mar 05 2025 11:11:55 GMT-0600 (Central Standard Time),290212.39999997616,A,wheatenter,O,enter,162,1,1784.0,288428.39999997616,7086,WL,C,2.0
2,4.983000040054321,learn,55016.99995994568,Wed Mar 05 2025 11:11:55 GMT-0600 (Central Standard Time),290828.60000002384,A,q,O,q,602,1,615.8999999761581,290212.7000000477,7086,WL,C,3.0
2,5.131999969482422,learn,54868.00003051758,Wed Mar 05 2025 11:11:55 GMT-0600 (Central Standard Time),290977.7999999523,A,qu,O,u,127,1,765.0999999046326,290212.7000000477,7086,WL,C,3.0
2,5.180999994277954,learn,54819.000005722046,Wed Mar 05 2025 11:11:55 GMT-0600 (Central Standard Time),291026.39999997616,A,que,O,e,41,1,813.6999999284744,290212.7000000477,7086,WL,C,3.0
2,5.348999977111816,learn,54651.00002288818,Wed Mar 05 2025 11:11:55 GMT-0600 (Central Standard Time),291194.2999999523,A,quee,O,e,147,1,981.5999999046326,290212.7000000477,7086,WL,C,3.0
2,5.914999961853027,learn,54085.00003814697,Wed Mar 05 2025 11:11:55 GMT-0600 (Central Standard Time),291760.89999997616,A,queen,O,n,545,1,1548.1999999284744,290212.7000000477,7086,WL,C,3.0
2,6.331000089645386,learn,53668.999910354614,Wed Mar 05 2025 11:11:55 GMT-0600 (Central Standard Time),292176.5,A,queenenter,O,enter,395,1,1963.7999999523163,290212.7000000477,7086,WL,C,3.0
2,8.281000137329102,learn,51718.9998626709,Wed Mar 05 2025 11:11:55 GMT-0600 (Central Standard Time),294126.0,A,s,O,s,1932,1,1949.2000000476837,292176.7999999523,7086,WL,C,4.0
2,9.067000150680542,learn,50932.99984931946,Wed Mar 05 2025 11:11:55 GMT-0600 (Central Standard Time),294912.10000002384,A,su,O,u,774,1,2735.3000000715256,292176.7999999523,7086,WL,C,4.0
2,9.38100004196167,learn,50618.99995803833,Wed Mar 05 2025 11:11:55 GMT-0600 (Central Standard Time),295226.2000000477,A,sug,O,g,295,1,3049.4000000953674,292176.7999999523,7086,WL,C,4.0
2,9.498000144958496,learn,50501.999855041504,Wed Mar 05 2025 11:11:55 GMT-0600 (Central Standard Time),295343.7999999523,A,suga,O,a,99,1,3167.0,292176.7999999523,7086,WL,C,4.0
2,9.61300015449524,learn,50386.99984550476,Wed Mar 05 2025 11:11:55 GMT-0600 (Central Standard Time),295458.7999999523,A,sugar,O,r,101,1,3282.0,292176.7999999523,7086,WL,C,4.0
2,9.848000049591064,learn,50151.999950408936,Wed Mar 05 2025 11:11:55 GMT-0600 (Central Standard Time),295692.89999997616,A,sugarenter,O,enter,226,1,3516.100000023842,292176.7999999523,7086,WL,C,4.0
2,10.265000104904175,learn,49734.999895095825,Wed Mar 05 2025 11:11:55 GMT-0600 (Central Standard Time),296110.10000002384,A,h,O,h,394,1,416.8000000715256,295693.2999999523,7086,WL,C,5.0
2,10.347000122070312,learn,49652.99987792969,Wed Mar 05 2025 11:11:55 GMT-0600 (Central Standard Time),296192.0,A,ho,O,o,70,1,498.7000000476837,295693.2999999523,7086,WL,C,5.0
2,10.48200011253357,learn,49517.99988746643,Wed Mar 05 2025 11:11:55 GMT-0600 (Central Standard Time),296326.89999997616,A,hom,O,m,116,1,633.6000000238419,295693.2999999523,7086,WL,C,5.0
2,10.631999969482422,learn,49368.00003051758,Wed Mar 05 2025 11:11:55 GMT-0600 (Central Standard Time),296477.10000002384,A,home,O,e,126,1,783.8000000715256,295693.2999999523,7086,WL,C,5.0
2,10.946000099182129,learn,49053.99990081787,Wed Mar 05 2025 11:11:55 GMT-0600 (Central Standard Time),296792.0,A,homeenter,O,enter,302,1,1098.7000000476837,295693.2999999523,7086,WL,C,5.0
2,11.546000003814697,learn,48453.9999961853,Wed Mar 05 2025 11:11:55 GMT-0600 (Central Standard Time),297391.7999999523,A,b,O,b,580,1,599.5,296792.2999999523,7086,WL,C,6.0
2,11.630000114440918,learn,48369.99988555908,Wed Mar 05 2025 11:11:55 GMT-0600 (Central Standard Time),297475.39999997616,A,bo,O,o,69,1,683.1000000238419,296792.2999999523,7086,WL,C,6.0
2,11.746000051498413,learn,48253.99994850159,Wed Mar 05 2025 11:11:55 GMT-0600 (Central Standard Time),297591.5,A,boy,O,y,105,1,799.2000000476837,296792.2999999523,7086,WL,C,6.0
2,12.496000051498413,learn,47503.99994850159,Wed Mar 05 2025 11:11:55 GMT-0600 (Central Standard Time),298341.2999999523,A,boyenter,O,enter,740,1,1549.0,296792.2999999523,7086,WL,C,6.0
2,12.946000099182129,learn,47053.99990081787,Wed Mar 05 2025 11:11:55 GMT-0600 (Central Standard Time),298791.7000000477,A,d,O,d,431,1,450.10000002384186,298341.60000002384,7086,WL,C,7.0
2,13.047000169754028,learn,46952.99983024597,Wed Mar 05 2025 11:11:55 GMT-0600 (Central Standard Time),298892.7999999523,A,do,O,o,94,1,551.1999999284744,298341.60000002384,7086,WL,C,7.0
2,13.36300015449524,learn,46636.99984550476,Wed Mar 05 2025 11:11:55 GMT-0600 (Central Standard Time),299208.5,A,doc,O,c,304,1,866.8999999761581,298341.60000002384,7086,WL,C,7.0
2,13.562999963760376,learn,46437.000036239624,Wed Mar 05 2025 11:11:55 GMT-0600 (Central Standard Time),299409.10000002384,A,doct,O,t,180,1,1067.5,298341.60000002384,7086,WL,C,7.0
2,13.67900013923645,learn,46320.99986076355,Wed Mar 05 2025 11:11:55 GMT-0600 (Central Standard Time),299525.10000002384,A,docto,O,o,100,1,1183.5,298341.60000002384,7086,WL,C,7.0
2,13.796000003814697,learn,46203.9999961853,Wed Mar 05 2025 11:11:55 GMT-0600 (Central Standard Time),299642.0,A,doctor,O,r,102,1,1300.3999999761581,298341.60000002384,7086,WL,C,7.0
2,14.562000036239624,learn,45437.999963760376,Wed Mar 05 2025 11:11:55 GMT-0600 (Central Standard Time),300407.89999997616,A,doctorenter,O,enter,754,1,2066.2999999523163,298341.60000002384,7086,WL,C,7.0
2,19.927000045776367,learn,40072.99995422363,Wed Mar 05 2025 11:11:55 GMT-0600 (Central Standard Time),305772.60000002384,A,l,O,l,5342,1,5364.399999976158,300408.2000000477,7086,WL,C,8.0
2,20.045000076293945,learn,39954.999923706055,Wed Mar 05 2025 11:11:55 GMT-0600 (Central Standard Time),305890.7000000477,A,le,O,e,96,1,5482.5,300408.2000000477,7086,WL,C,8.0
2,20.22699999809265,learn,39773.00000190735,Wed Mar 05 2025 11:11:55 GMT-0600 (Central Standard Time),306072.89999997616,A,lee,O,e,170,1,5664.699999928474,300408.2000000477,7086,WL,C,8.0
2,20.712000131607056,learn,39287.999868392944,Wed Mar 05 2025 11:11:55 GMT-0600 (Central Standard Time),306557.7999999523,A,le,O,backspace,462,1,6149.599999904633,300408.2000000477,7086,WL,C,8.0
2,20.861000061035156,learn,39138.999938964844,Wed Mar 05 2025 11:11:55 GMT-0600 (Central Standard Time),306706.39999997616,A,let,O,t,134,1,6298.199999928474,300408.2000000477,7086,WL,C,8.0
2,21.009000062942505,learn,38990.999937057495,Wed Mar 05 2025 11:11:55 GMT-0600 (Central Standard Time),306855.10000002384,A,lett,O,t,129,1,6446.899999976158,300408.2000000477,7086,WL,C,8.0
2,21.14300012588501,learn,38856.99987411499,Wed Mar 05 2025 11:11:55 GMT-0600 (Central Standard Time),306988.7999999523,A,lette,O,e,126,1,6580.599999904633,300408.2000000477,7086,WL,C,8.0
2,21.261000156402588,learn,38738.99984359741,Wed Mar 05 2025 11:11:55 GMT-0600 (Central Standard Time),307106.89999997616,A,letter,O,r,93,1,6698.699999928474,300408.2000000477,7086,WL,C,8.0
2,21.743000030517578,learn,38256.99996948242,Wed Mar 05 2025 11:11:55 GMT-0600 (Central Standard Time),307589.2999999523,A,letterenter,O,enter,465,1,7181.099999904633,300408.2000000477,7086,WL,C,8.0
2,23.22699999809265,learn,36773.00000190735,Wed Mar 05 2025 11:11:55 GMT-0600 (Central Standard Time),309072.39999997616,A,c,O,c,1463,1,1482.7999999523163,307589.60000002384,7086,WL,C,9.0
2,23.39300012588501,learn,36606.99987411499,Wed Mar 05 2025 11:11:55 GMT-0600 (Central Standard Time),309239.0,A,ca,O,a,148,1,1649.3999999761581,307589.60000002384,7086,WL,C,9.0
2,23.4760000705719,learn,36523.9999294281,Wed Mar 05 2025 11:11:55 GMT-0600 (Central Standard Time),309321.89999997616,A,cam,O,m,76,1,1732.2999999523163,307589.60000002384,7086,WL,C,9.0
2,23.693000078201294,learn,36306.999921798706,Wed Mar 05 2025 11:11:55 GMT-0600 (Central Standard Time),309538.39999997616,A,camp,O,p,194,1,1948.7999999523163,307589.60000002384,7086,WL,C,9.0
2,24.877000093460083,learn,35122.99990653992,Wed Mar 05 2025 11:11:55 GMT-0600 (Central Standard Time),310723.0,A,campenter,O,enter,1179,1,3133.399999976158,307589.60000002384,7086,WL,C,9.0
2,27.742000102996826,learn,32257.999897003174,Wed Mar 05 2025 11:11:55 GMT-0600 (Central Standard Time),313588.10000002384,A,c,O,c,2860,1,2864.7000000476837,310723.39999997616,7086,WL,C,10.0
2,27.85800004005432,learn,32141.99995994568,Wed Mar 05 2025 11:11:55 GMT-0600 (Central Standard Time),313704.2999999523,A,co,O,o,95,1,2980.899999976158,310723.39999997616,7086,WL,C,10.0
2,27.975000143051147,learn,32024.999856948853,Wed Mar 05 2025 11:11:55 GMT-0600 (Central Standard Time),313820.7000000477,A,cor,O,r,101,1,3097.3000000715256,310723.39999997616,7086,WL,C,10.0
2,28.124000072479248,learn,31875.999927520752,Wed Mar 05 2025 11:11:55 GMT-0600 (Central Standard Time),313970.2000000477,A,corn,O,n,137,1,3246.8000000715256,310723.39999997616,7086,WL,C,10.0
2,28.407999992370605,learn,31592.000007629395,Wed Mar 05 2025 11:11:55 GMT-0600 (Central Standard Time),314253.39999997616,A,cornenter,O,enter,278,1,3530.0,310723.39999997616,7086,WL,C,10.0
2,28.807000160217285,learn,31192.999839782715,Wed Mar 05 2025 11:11:55 GMT-0600 (Central Standard Time),314652.60000002384,A,n,O,n,392,1,398.89999997615814,314253.7000000477,7086,WL,C,11.0
2,28.924999952316284,learn,31075.000047683716,Wed Mar 05 2025 11:11:55 GMT-0600 (Central Standard Time),314770.89999997616,A,na,O,a,96,1,517.1999999284744,314253.7000000477,7086,WL,C,11.0
2,29.057000160217285,learn,30942.999839782715,Wed Mar 05 2025 11:11:55 GMT-0600 (Central Standard Time),314903.2000000477,A,nai,O,i,114,1,649.5,314253.7000000477,7086,WL,C,11.0
2,29.29100012779236,learn,30708.99987220764,Wed Mar 05 2025 11:11:55 GMT-0600 (Central Standard Time),315136.39999997616,A,nail,O,l,221,1,882.6999999284744,314253.7000000477,7086,WL,C,11.0
2,29.572999954223633,learn,30427.000045776367,Wed Mar 05 2025 11:11:55 GMT-0600 (Central Standard Time),315419.10000002384,A,nailenter,O,enter,260,1,1165.3999999761581,314253.7000000477,7086,WL,C,11.0
2,31.907999992370605,learn,28092.000007629395,Wed Mar 05 2025 11:11:55 GMT-0600 (Central Standard Time),317753.39999997616,A,c,O,c,2323,1,2334.0,315419.39999997616,7086,WL,C,12.0
2,32.44000005722046,learn,27559.99994277954,Wed Mar 05 2025 11:11:55 GMT-0600 (Central Standard Time),318286.0,A,ca,O,a,514,1,2866.600000023842,315419.39999997616,7086,WL,C,12.0
2,32.59000015258789,learn,27409.99984741211,Wed Mar 05 2025 11:11:55 GMT-0600 (Central Standard Time),318436.10000002384,A,cat,O,t,133,1,3016.7000000476837,315419.39999997616,7086,WL,C,12.0
2,32.70700001716614,learn,27292.999982833862,Wed Mar 05 2025 11:11:55 GMT-0600 (Central Standard Time),318553.2000000477,A,catt,O,t,103,1,3133.8000000715256,315419.39999997616,7086,WL,C,12.0
2,33.388999938964844,learn,26611.000061035156,Wed Mar 05 2025 11:11:55 GMT-0600 (Central Standard Time),319234.7000000477,A,cattl,O,l,669,1,3815.3000000715256,315419.39999997616,7086,WL,C,12.0
2,33.5220000743866,learn,26477.999925613403,Wed Mar 05 2025 11:11:55 GMT-0600 (Central Standard Time),319368.10000002384,A,cattle,O,e,113,1,3948.7000000476837,315419.39999997616,7086,WL,C,12.0
2,34.557000160217285,learn,25442.999839782715,Wed Mar 05 2025 11:11:55 GMT-0600 (Central Standard Time),320402.2999999523,A,cattleenter,O,enter,1019,1,4982.899999976158,315419.39999997616,7086,WL,C,12.0
2,35.18900012969971,learn,24810.999870300293,Wed Mar 05 2025 11:11:55 GMT-0600 (Central Standard Time),321035.2000000477,A,s,O,s,618,1,632.6000000238419,320402.60000002384,7086,WL,C,13.0
2,35.32299995422363,learn,24677.000045776367,Wed Mar 05 2025 11:11:55 GMT-0600 (Central Standard Time),321168.7999999523,A,sh,O,h,112,1,766.1999999284744,320402.60000002384,7086,WL,C,13.0
2,35.390000104904175,learn,24609.999895095825,Wed Mar 05 2025 11:11:55 GMT-0600 (Central Standard Time),321235.5,A,sho,O,o,52,1,832.8999999761581,320402.60000002384,7086,WL,C,13.0
2,35.94000005722046,learn,24059.99994277954,Wed Mar 05 2025 11:11:55 GMT-0600 (Central Standard Time),321785.5,A,shor,O,r,527,1,1382.8999999761581,320402.60000002384,7086,WL,C,13.0
2,36.15700006484985,learn,23842.999935150146,Wed Mar 05 2025 11:11:55 GMT-0600 (Central Standard Time),322002.2999999523,A,shore,O,e,195,1,1599.6999999284744,320402.60000002384,7086,WL,C,13.0
2,36.7039999961853,learn,23296.000003814697,Wed Mar 05 2025 11:11:55 GMT-0600 (Central Standard Time),322549.89999997616,A,shoreenter,O,enter,537,1,2147.2999999523163,320402.60000002384,7086,WL,C,13.0
2,40.12000012397766,learn,19879.99987602234,Wed Mar 05 2025 11:11:55 GMT-0600 (Central Standard Time),325966.2000000477,A,f,O,f,3408,1,3416.100000023842,322550.10000002384,7086,WL,C,14.0
2,40.271000146865845,learn,19728.999853134155,Wed Mar 05 2025 11:11:55 GMT-0600 (Central Standard Time),326116.7999999523,A,fl,O,l,132,1,3566.6999999284744,322550.10000002384,7086,WL,C,14.0
2,40.371999979019165,learn,19628.000020980835,Wed Mar 05 2025 11:11:55 GMT-0600 (Central Standard Time),326217.60000002384,A,fla,O,a,90,1,3667.5,322550.10000002384,7086,WL,C,14.0
2,40.50500011444092,learn,19494.999885559082,Wed Mar 05 2025 11:11:55 GMT-0600 (Central Standard Time),326350.89999997616,A,flag,O,g,114,1,3800.7999999523163,322550.10000002384,7086,WL,C,14.0
2,40.63700008392334,learn,19362.99991607666,Wed Mar 05 2025 11:11:55 GMT-0600 (Central Standard Time),326482.2999999523,A,flagenter,O,enter,114,1,3932.1999999284744,322550.10000002384,7086,WL,C,14.0
2,45.53500008583069,learn,14464.999914169312,Wed Mar 05 2025 11:11:55 GMT-0600 (Central Standard Time),331380.7999999523,A,enter,O,enter,4894,1,4898.199999928474,326482.60000002384,7086,WL,C,15.0
3,1.5,learn,58500.0,Wed Mar 05 2025 11:11:55 GMT-0600 (Central Standard Time),408073.60000002384,A,t,O,t,1485,1,1499.8999999761581,406573.7000000477,7086,WL,C,1.0
3,1.633000135421753,learn,58366.99986457825,Wed Mar 05 2025 11:11:55 GMT-0600 (Central Standard Time),408205.7999999523,A,to,O,o,123,1,1632.0999999046326,406573.7000000477,7086,WL,C,1.0
3,1.7660000324249268,learn,58233.99996757507,Wed Mar 05 2025 11:11:55 GMT-0600 (Central Standard Time),408339.89999997616,A,tow,O,w,116,1,1766.1999999284744,406573.7000000477,7086,WL,C,1.0
3,1.933000087738037,learn,58066.99991226196,Wed Mar 05 2025 11:11:55 GMT-0600 (Central Standard Time),408506.60000002384,A,towe,O,e,153,1,1932.8999999761581,406573.7000000477,7086,WL,C,1.0
3,2.3530001640319824,learn,57646.99983596802,Wed Mar 05 2025 11:11:55 GMT-0600 (Central Standard Time),408926.0,A,tower,O,r,395,1,2352.2999999523163,406573.7000000477,7086,WL,C,1.0
3,2.75,learn,57250.0,Wed Mar 05 2025 11:11:55 GMT-0600 (Central Standard Time),409322.7999999523,A,towerenter,O,enter,381,1,2749.0999999046326,406573.7000000477,7086,WL,C,1.0
3,3.200000047683716,learn,56799.999952316284,Wed Mar 05 2025 11:11:55 GMT-0600 (Central Standard Time),409773.5,A,w,O,w,445,1,450.5,409323.0,7086,WL,C,2.0
3,3.383000135421753,learn,56616.99986457825,Wed Mar 05 2025 11:11:55 GMT-0600 (Central Standard Time),409956.7000000477,A,wh,O,h,175,1,633.7000000476837,409323.0,7086,WL,C,2.0
3,3.5,learn,56500.0,Wed Mar 05 2025 11:11:55 GMT-0600 (Central Standard Time),410073.60000002384,A,whe,O,e,93,1,750.6000000238419,409323.0,7086,WL,C,2.0
3,3.699000120162964,learn,56300.999879837036,Wed Mar 05 2025 11:11:55 GMT-0600 (Central Standard Time),410272.39999997616,A,whea,O,a,186,1,949.3999999761581,409323.0,7086,WL,C,2.0
3,3.815999984741211,learn,56184.00001525879,Wed Mar 05 2025 11:11:55 GMT-0600 (Central Standard Time),410388.89999997616,A,wheat,O,t,99,1,1065.8999999761581,409323.0,7086,WL,C,2.0
3,4.434000015258789,learn,55565.99998474121,Wed Mar 05 2025 11:11:55 GMT-0600 (Central Standard Time),411007.10000002384,A,wheatenter,O,enter,599,1,1684.1000000238419,409323.0,7086,WL,C,2.0
3,4.916000127792358,learn,55083.99987220764,Wed Mar 05 2025 11:11:55 GMT-0600 (Central Standard Time),411489.2999999523,A,q,O,q,472,1,481.89999997615814,411007.39999997616,7086,WL,C,3.0
3,5.134000062942505,learn,54865.999937057495,Wed Mar 05 2025 11:11:55 GMT-0600 (Central Standard Time),411706.89999997616,A,qu,O,u,196,1,699.5,411007.39999997616,7086,WL,C,3.0
3,5.216000080108643,learn,54783.99991989136,Wed Mar 05 2025 11:11:55 GMT-0600 (Central Standard Time),411789.5,A,que,O,e,65,1,782.1000000238419,411007.39999997616,7086,WL,C,3.0
3,5.397000074386597,learn,54602.9999256134,Wed Mar 05 2025 11:11:55 GMT-0600 (Central Standard Time),411970.39999997616,A,quee,O,e,166,1,963.0,411007.39999997616,7086,WL,C,3.0
3,5.664999961853027,learn,54335.00003814697,Wed Mar 05 2025 11:11:55 GMT-0600 (Central Standard Time),412238.2000000477,A,queen,O,n,258,1,1230.8000000715256,411007.39999997616,7086,WL,C,3.0
3,7.3500001430511475,learn,52649.99985694885,Wed Mar 05 2025 11:11:55 GMT-0600 (Central Standard Time),413923.0,A,queenenter,O,enter,1679,1,2915.600000023842,411007.39999997616,7086,WL,C,3.0
3,7.864000082015991,learn,52135.99991798401,Wed Mar 05 2025 11:11:55 GMT-0600 (Central Standard Time),414436.7999999523,A,s,O,s,498,1,513.5,413923.2999999523,7086,WL,C,4.0
3,8.148000001907349,learn,51851.99999809265,Wed Mar 05 2025 11:11:55 GMT-0600 (Central Standard Time),414721.2000000477,A,su,O,u,265,1,797.9000000953674,413923.2999999523,7086,WL,C,4.0
3,8.531000137329102,learn,51468.9998626709,Wed Mar 05 2025 11:11:55 GMT-0600 (Central Standard Time),415104.10000002384,A,sug,O,g,359,1,1180.8000000715256,413923.2999999523,7086,WL,C,4.0
3,8.647000074386597,learn,51352.9999256134,Wed Mar 05 2025 11:11:55 GMT-0600 (Central Standard Time),415220.7999999523,A,suga,O,a,109,1,1297.5,413923.2999999523,7086,WL,C,4.0
3,8.781000137329102,learn,51218.9998626709,Wed Mar 05 2025 11:11:55 GMT-0600 (Central Standard Time),415354.5,A,sugar,O,r,118,1,1431.2000000476837,413923.2999999523,7086,WL,C,4.0
3,9.014000177383423,learn,50985.99982261658,Wed Mar 05 2025 11:11:55 GMT-0600 (Central Standard Time),415587.7000000477,A,sugarenter,O,enter,217,1,1664.4000000953674,413923.2999999523,7086,WL,C,4.0
3,10.02999997138977,learn,49970.00002861023,Wed Mar 05 2025 11:11:55 GMT-0600 (Central Standard Time),416604.2999999523,A,h,O,h,1003,1,1016.2999999523163,415588.0,7086,WL,C,5.0
3,10.114000082015991,learn,49885.99991798401,Wed Mar 05 2025 11:11:55 GMT-0600 (Central Standard Time),416687.2999999523,A,ho,O,o,73,1,1099.2999999523163,415588.0,7086,WL,C,5.0
3,10.246999979019165,learn,49753.000020980835,Wed Mar 05 2025 11:11:55 GMT-0600 (Central Standard Time),416820.89999997616,A,hom,O,m,119,1,1232.8999999761581,415588.0,7086,WL,C,5.0
3,10.414999961853027,learn,49585.00003814697,Wed Mar 05 2025 11:11:55 GMT-0600 (Central Standard Time),416988.60000002384,A,home,O,e,161,1,1400.6000000238419,415588.0,7086,WL,C,5.0
3,10.680000066757202,learn,49319.9999332428,Wed Mar 05 2025 11:11:55 GMT-0600 (Central Standard Time),417253.5,A,homeenter,O,enter,245,1,1665.5,415588.0,7086,WL,C,5.0
3,11.67900013923645,learn,48320.99986076355,Wed Mar 05 2025 11:11:55 GMT-0600 (Central Standard Time),418252.5,A,b,O,b,983,1,998.6000000238419,417253.89999997616,7086,WL,C,6.0
3,11.847000122070312,learn,48152.99987792969,Wed Mar 05 2025 11:11:55 GMT-0600 (Central Standard Time),418421.2000000477,A,bo,O,o,162,1,1167.3000000715256,417253.89999997616,7086,WL,C,6.0
3,12.02999997138977,learn,47970.00002861023,Wed Mar 05 2025 11:11:55 GMT-0600 (Central Standard Time),418604.0,A,boy,O,y,175,1,1350.1000000238419,417253.89999997616,7086,WL,C,6.0
3,13.27999997138977,learn,46720.00002861023,Wed Mar 05 2025 11:11:55 GMT-0600 (Central Standard Time),419854.0,A,boyenter,O,enter,1231,1,2600.100000023842,417253.89999997616,7086,WL,C,6.0
3,13.848000049591064,learn,46151.999950408936,Wed Mar 05 2025 11:11:55 GMT-0600 (Central Standard Time),420421.89999997616,A,d,O,d,552,1,567.6999999284744,419854.2000000477,7086,WL,C,7.0
3,13.962000131607056,learn,46037.999868392944,Wed Mar 05 2025 11:11:55 GMT-0600 (Central Standard Time),420536.2999999523,A,do,O,o,95,1,682.0999999046326,419854.2000000477,7086,WL,C,7.0
3,14.078999996185303,learn,45921.0000038147,Wed Mar 05 2025 11:11:55 GMT-0600 (Central Standard Time),420652.39999997616,A,doc,O,c,107,1,798.1999999284744,419854.2000000477,7086,WL,C,7.0
3,14.279000043869019,learn,45720.99995613098,Wed Mar 05 2025 11:11:55 GMT-0600 (Central Standard Time),420852.39999997616,A,doct,O,t,180,1,998.1999999284744,419854.2000000477,7086,WL,C,7.0
3,14.963000059127808,learn,45036.99994087219,Wed Mar 05 2025 11:11:55 GMT-0600 (Central Standard Time),421536.89999997616,A,docto,O,o,671,1,1682.6999999284744,419854.2000000477,7086,WL,C,7.0
3,15.062000036239624,learn,44937.999963760376,Wed Mar 05 2025 11:11:55 GMT-0600 (Central Standard Time),421636.2999999523,A,doctor,O,r,93,1,1782.0999999046326,419854.2000000477,7086,WL,C,7.0
3,15.511000156402588,learn,44488.99984359741,Wed Mar 05 2025 11:11:55 GMT-0600 (Central Standard Time),422085.0,A,doctorenter,O,enter,439,1,2230.7999999523163,419854.2000000477,7086,WL,C,7.0
3,15.913000106811523,learn,44086.99989318848,Wed Mar 05 2025 11:11:55 GMT-0600 (Central Standard Time),422486.5,A,f,O,f,396,1,401.2999999523163,422085.2000000477,7086,WL,C,8.0
3,16.078999996185303,learn,43921.0000038147,Wed Mar 05 2025 11:11:55 GMT-0600 (Central Standard Time),422652.5,A,fl,O,l,150,1,567.2999999523163,422085.2000000477,7086,WL,C,8.0
3,16.230000019073486,learn,43769.999980926514,Wed Mar 05 2025 11:11:55 GMT-0600 (Central Standard Time),422803.7000000477,A,fla,O,a,129,1,718.5,422085.2000000477,7086,WL,C,8.0
3,16.511000156402588,learn,43488.99984359741,Wed Mar 05 2025 11:11:55 GMT-0600 (Central Standard Time),423085.0,A,flag,O,g,273,1,999.7999999523163,422085.2000000477,7086,WL,C,8.0
3,16.92900013923645,learn,43070.99986076355,Wed Mar 05 2025 11:11:55 GMT-0600 (Central Standard Time),423502.60000002384,A,flagenter,O,enter,397,1,1417.3999999761581,422085.2000000477,7086,WL,C,8.0
3,17.32800006866455,learn,42671.99993133545,Wed Mar 05 2025 11:11:55 GMT-0600 (Central Standard Time),423901.7999999523,A,c,O,c,393,1,399.0,423502.7999999523,7086,WL,C,9.0
3,17.51200008392334,learn,42487.99991607666,Wed Mar 05 2025 11:11:55 GMT-0600 (Central Standard Time),424085.5,A,ca,O,a,174,1,582.7000000476837,423502.7999999523,7086,WL,C,9.0
3,17.628999948501587,learn,42371.00005149841,Wed Mar 05 2025 11:11:55 GMT-0600 (Central Standard Time),424202.2999999523,A,cam,O,m,93,1,699.5,423502.7999999523,7086,WL,C,9.0
3,17.861000061035156,learn,42138.999938964844,Wed Mar 05 2025 11:11:55 GMT-0600 (Central Standard Time),424435.10000002384,A,camp,O,p,226,1,932.3000000715256,423502.7999999523,7086,WL,C,9.0
3,23.55900001525879,learn,36440.99998474121,Wed Mar 05 2025 11:11:55 GMT-0600 (Central Standard Time),430132.60000002384,A,campenter,O,enter,5681,1,6629.800000071526,423502.7999999523,7086,WL,C,9.0
3,24.026999950408936,learn,35973.000049591064,Wed Mar 05 2025 11:11:55 GMT-0600 (Central Standard Time),430600.7000000477,A,l,O,l,449,1,467.90000009536743,430132.7999999523,7086,WL,C,10.0
3,24.14400005340576,learn,35855.99994659424,Wed Mar 05 2025 11:11:55 GMT-0600 (Central Standard Time),430717.2999999523,A,le,O,e,101,1,584.5,430132.7999999523,7086,WL,C,10.0
3,24.625,learn,35375.0,Wed Mar 05 2025 11:11:55 GMT-0600 (Central Standard Time),431198.89999997616,A,let,O,t,472,1,1066.1000000238419,430132.7999999523,7086,WL,C,10.0
3,24.77500009536743,learn,35224.99990463257,Wed Mar 05 2025 11:11:55 GMT-0600 (Central Standard Time),431348.89999997616,A,lett,O,t,142,1,1216.1000000238419,430132.7999999523,7086,WL,C,10.0
3,25.276000022888184,learn,34723.99997711182,Wed Mar 05 2025 11:11:55 GMT-0600 (Central Standard Time),431849.39999997616,A,lette,O,e,479,1,1716.6000000238419,430132.7999999523,7086,WL,C,10.0
3,25.37600016593933,learn,34623.99983406067,Wed Mar 05 2025 11:11:55 GMT-0600 (Central Standard Time),431949.39999997616,A,letter,O,r,81,1,1816.6000000238419,430132.7999999523,7086,WL,C,10.0
3,25.842000007629395,learn,34157.999992370605,Wed Mar 05 2025 11:11:55 GMT-0600 (Central Standard Time),432415.7999999523,A,letterenter,O,enter,447,1,2283.0,430132.7999999523,7086,WL,C,10.0
3,27.258000135421753,learn,32741.999864578247,Wed Mar 05 2025 11:11:55 GMT-0600 (Central Standard Time),433832.10000002384,A,c,O,c,1406,1,1416.1000000238419,432416.0,7086,WL,C,11.0
3,27.493000030517578,learn,32506.999969482422,Wed Mar 05 2025 11:11:55 GMT-0600 (Central Standard Time),434066.2999999523,A,ca,O,a,213,1,1650.2999999523163,432416.0,7086,WL,C,11.0
3,27.625,learn,32375.0,Wed Mar 05 2025 11:11:55 GMT-0600 (Central Standard Time),434198.7000000477,A,car,O,r,122,1,1782.7000000476837,432416.0,7086,WL,C,11.0
3,28.27500009536743,learn,31724.99990463257,Wed Mar 05 2025 11:11:55 GMT-0600 (Central Standard Time),434849.0,A,ca,O,backspace,638,1,2433.0,432416.0,7086,WL,C,11.0
3,28.424999952316284,learn,31575.000047683716,Wed Mar 05 2025 11:11:55 GMT-0600 (Central Standard Time),434998.39999997616,A,c,O,backspace,141,1,2582.399999976158,432416.0,7086,WL,C,11.0
3,29.473999977111816,learn,30526.000022888184,Wed Mar 05 2025 11:11:55 GMT-0600 (Central Standard Time),436047.7999999523,A,co,O,o,1029,1,3631.7999999523163,432416.0,7086,WL,C,11.0
3,29.593000173568726,learn,30406.999826431274,Wed Mar 05 2025 11:11:55 GMT-0600 (Central Standard Time),436167.10000002384,A,cor,O,r,99,1,3751.100000023842,432416.0,7086,WL,C,11.0
3,29.890000104904175,learn,30109.999895095825,Wed Mar 05 2025 11:11:55 GMT-0600 (Central Standard Time),436463.39999997616,A,corn,O,n,286,1,4047.399999976158,432416.0,7086,WL,C,11.0
3,31.83899998664856,learn,28161.00001335144,Wed Mar 05 2025 11:11:55 GMT-0600 (Central Standard Time),438413.2000000477,A,cornenter,O,enter,1935,1,5997.200000047684,432416.0,7086,WL,C,11.0
3,32.259000062942505,learn,27740.999937057495,Wed Mar 05 2025 11:11:55 GMT-0600 (Central Standard Time),438832.2999999523,A,n,O,n,399,1,418.89999997615814,438413.39999997616,7086,WL,C,12.0
3,32.375,learn,27625.0,Wed Mar 05 2025 11:11:55 GMT-0600 (Central Standard Time),438948.5,A,na,O,a,102,1,535.1000000238419,438413.39999997616,7086,WL,C,12.0
3,32.52300000190735,learn,27476.99999809265,Wed Mar 05 2025 11:11:55 GMT-0600 (Central Standard Time),439097.0,A,nai,O,i,136,1,683.6000000238419,438413.39999997616,7086,WL,C,12.0
3,32.8050000667572,learn,27194.999933242798,Wed Mar 05 2025 11:11:55 GMT-0600 (Central Standard Time),439379.0,A,nail,O,l,277,1,965.6000000238419,438413.39999997616,7086,WL,C,12.0
3,33.390000104904175,learn,26609.999895095825,Wed Mar 05 2025 11:11:55 GMT-0600 (Central Standard Time),439963.7999999523,A,nailenter,O,enter,579,1,1550.3999999761581,438413.39999997616,7086,WL,C,12.0
3,34.10700011253357,learn,25892.99988746643,Wed Mar 05 2025 11:11:55 GMT-0600 (Central Standard Time),440680.7000000477,A,c,O,c,706,1,716.7000000476837,439964.0,7086,WL,C,13.0
3,34.32299995422363,learn,25677.000045776367,Wed Mar 05 2025 11:11:55 GMT-0600 (Central Standard Time),440896.2999999523,A,ca,O,a,206,1,932.2999999523163,439964.0,7086,WL,C,13.0
3,34.5550000667572,learn,25444.999933242798,Wed Mar 05 2025 11:11:55 GMT-0600 (Central Standard Time),441129.0,A,cat,O,t,220,1,1165.0,439964.0,7086,WL,C,13.0
3,34.72200012207031,learn,25277.999877929688,Wed Mar 05 2025 11:11:55 GMT-0600 (Central Standard Time),441295.39999997616,A,catt,O,t,154,1,1331.3999999761581,439964.0,7086,WL,C,13.0
3,35.123000144958496,learn,24876.999855041504,Wed Mar 05 2025 11:11:55 GMT-0600 (Central Standard Time),441696.39999997616,A,cattl,O,l,390,1,1732.3999999761581,439964.0,7086,WL,C,13.0
3,35.47200012207031,learn,24527.999877929688,Wed Mar 05 2025 11:11:55 GMT-0600 (Central Standard Time),442045.5,A,cattle,O,e,332,1,2081.5,439964.0,7086,WL,C,13.0
3,35.75600004196167,learn,24243.99995803833,Wed Mar 05 2025 11:11:55 GMT-0600 (Central Standard Time),442329.89999997616,A,cattleenter,O,enter,265,1,2365.899999976158,439964.0,7086,WL,C,13.0
3,36.13900017738342,learn,23860.999822616577,Wed Mar 05 2025 11:11:55 GMT-0600 (Central Standard Time),442712.89999997616,A,s,O,s,362,1,382.7999999523163,442330.10000002384,7086,WL,C,14.0
3,36.25699996948242,learn,23743.000030517578,Wed Mar 05 2025 11:11:55 GMT-0600 (Central Standard Time),442830.39999997616,A,sh,O,h,109,1,500.2999999523163,442330.10000002384,7086,WL,C,14.0
3,36.371999979019165,learn,23628.000020980835,Wed Mar 05 2025 11:11:55 GMT-0600 (Central Standard Time),442945.39999997616,A,sho,O,o,104,1,615.2999999523163,442330.10000002384,7086,WL,C,14.0
3,36.53800010681152,learn,23461.999893188477,Wed Mar 05 2025 11:11:55 GMT-0600 (Central Standard Time),443111.60000002384,A,shor,O,r,156,1,781.5,442330.10000002384,7086,WL,C,14.0
3,36.6560001373291,learn,23343.9998626709,Wed Mar 05 2025 11:11:55 GMT-0600 (Central Standard Time),443229.2999999523,A,shore,O,e,114,1,899.1999999284744,442330.10000002384,7086,WL,C,14.0
3,37.00500011444092,learn,22994.999885559082,Wed Mar 05 2025 11:11:55 GMT-0600 (Central Standard Time),443579.10000002384,A,shoreenter,O,enter,343,1,1249.0,442330.10000002384,7086,WL,C,14.0
3,37.72200012207031,learn,22277.999877929688,Wed Mar 05 2025 11:11:55 GMT-0600 (Central Standard Time),444295.2000000477,A,b,O,b,705,1,715.8000000715256,443579.39999997616,7086,WL,C,15.0
3,37.84100008010864,learn,22158.999919891357,Wed Mar 05 2025 11:11:55 GMT-0600 (Central Standard Time),444414.5,A,bo,O,o,102,1,835.1000000238419,443579.39999997616,7086,WL,C,15.0
3,38.28800010681152,learn,21711.999893188477,Wed Mar 05 2025 11:11:55 GMT-0600 (Central Standard Time),444861.60000002384,A,bod,O,d,439,1,1282.2000000476837,443579.39999997616,7086,WL,C,15.0
3,38.44000005722046,learn,21559.99994277954,Wed Mar 05 2025 11:11:55 GMT-0600 (Central Standard Time),445013.2999999523,A,body,O,y,146,1,1433.8999999761581,443579.39999997616,7086,WL,C,15.0
3,38.771000146865845,learn,21228.999853134155,Wed Mar 05 2025 11:11:55 GMT-0600 (Central Standard Time),445344.2999999523,A,bodyenter,O,enter,309,1,1764.8999999761581,443579.39999997616,7086,WL,C,15.0
4,0.8680000305175781,learn,59131.99996948242,Wed Mar 05 2025 11:11:55 GMT-0600 (Central Standard Time),518956.7000000477,A,t,O,t,860,1,867.0,518089.7000000477,7086,WL,C,1.0
4,1.0160000324249268,learn,58983.99996757507,Wed Mar 05 2025 11:11:55 GMT-0600 (Central Standard Time),519105.10000002384,A,to,O,o,129,1,1015.3999999761581,518089.7000000477,7086,WL,C,1.0
4,1.3819999694824219,learn,58618.00003051758,Wed Mar 05 2025 11:11:55 GMT-0600 (Central Standard Time),519471.10000002384,A,tow,O,w,355,1,1381.3999999761581,518089.7000000477,7086,WL,C,1.0
4,1.4659998416900635,learn,58534.00015830994,Wed Mar 05 2025 11:11:55 GMT-0600 (Central Standard Time),519554.89999997616,A,towe,O,e,69,1,1465.1999999284744,518089.7000000477,7086,WL,C,1.0
4,1.6510000228881836,learn,58348.99997711182,Wed Mar 05 2025 11:11:55 GMT-0600 (Central Standard Time),519739.7000000477,A,tower,O,r,163,1,1650.0,518089.7000000477,7086,WL,C,1.0
4,2.065000057220459,learn,57934.99994277954,Wed Mar 05 2025 11:11:55 GMT-0600 (Central Standard Time),520154.39999997616,A,towerenter,O,enter,402,1,2064.6999999284744,518089.7000000477,7086,WL,C,1.0
4,2.7660000324249268,learn,57233.99996757507,Wed Mar 05 2025 11:11:55 GMT-0600 (Central Standard Time),520855.0,A,w,O,w,682,1,700.2999999523163,520154.7000000477,7086,WL,C,2.0
4,2.932999849319458,learn,57067.00015068054,Wed Mar 05 2025 11:11:55 GMT-0600 (Central Standard Time),521022.39999997616,A,wh,O,h,161,1,867.6999999284744,520154.7000000477,7086,WL,C,2.0
4,2.997999906539917,learn,57002.00009346008,Wed Mar 05 2025 11:11:55 GMT-0600 (Central Standard Time),521087.39999997616,A,whe,O,e,46,1,932.6999999284744,520154.7000000477,7086,WL,C,2.0
4,3.2649998664855957,learn,56735.000133514404,Wed Mar 05 2025 11:11:55 GMT-0600 (Central Standard Time),521353.89999997616,A,whea,O,a,254,1,1199.1999999284744,520154.7000000477,7086,WL,C,2.0
4,3.296999931335449,learn,56703.00006866455,Wed Mar 05 2025 11:11:55 GMT-0600 (Central Standard Time),521385.7000000477,A,wheat,O,t,27,1,1231.0,520154.7000000477,7086,WL,C,2.0
4,3.7639999389648438,learn,56236.000061035156,Wed Mar 05 2025 11:11:55 GMT-0600 (Central Standard Time),521853.5,A,wheatenter,O,enter,460,1,1698.7999999523163,520154.7000000477,7086,WL,C,2.0
4,5.181999921798706,learn,54818.000078201294,Wed Mar 05 2025 11:11:55 GMT-0600 (Central Standard Time),523271.0,A,q,O,q,1399,1,1417.2000000476837,521853.7999999523,7086,WL,C,3.0
4,5.379999876022339,learn,54620.00012397766,Wed Mar 05 2025 11:11:55 GMT-0600 (Central Standard Time),523469.2999999523,A,qu,O,u,181,1,1615.5,521853.7999999523,7086,WL,C,3.0
4,5.664000034332275,learn,54335.999965667725,Wed Mar 05 2025 11:11:55 GMT-0600 (Central Standard Time),523753.0,A,que,O,e,263,1,1899.2000000476837,521853.7999999523,7086,WL,C,3.0
4,5.815000057220459,learn,54184.99994277954,Wed Mar 05 2025 11:11:55 GMT-0600 (Central Standard Time),523903.7999999523,A,quee,O,e,132,1,2050.0,521853.7999999523,7086,WL,C,3.0
4,5.997999906539917,learn,54002.00009346008,Wed Mar 05 2025 11:11:55 GMT-0600 (Central Standard Time),524087.0,A,queen,O,n,173,1,2233.2000000476837,521853.7999999523,7086,WL,C,3.0
4,7.813999891281128,learn,52186.00010871887,Wed Mar 05 2025 11:11:55 GMT-0600 (Central Standard Time),525902.8999999762,A,queenenter,O,enter,1806,1,4049.100000023842,521853.7999999523,7086,WL,C,3.0
4,8.19700002670288,learn,51802.99997329712,Wed Mar 05 2025 11:11:55 GMT-0600 (Central Standard Time),526286.3999999762,A,s,O,s,366,1,383.1999999284744,525903.2000000477,7086,WL,C,4.0
4,8.44700002670288,learn,51552.99997329712,Wed Mar 05 2025 11:11:55 GMT-0600 (Central Standard Time),526536.5,A,su,O,u,239,1,633.2999999523163,525903.2000000477,7086,WL,C,4.0
4,8.978999853134155,learn,51021.000146865845,Wed Mar 05 2025 11:11:55 GMT-0600 (Central Standard Time),527068.6000000238,A,sug,O,g,525,1,1165.3999999761581,525903.2000000477,7086,WL,C,4.0
4,9.129999876022339,learn,50870.00012397766,Wed Mar 05 2025 11:11:55 GMT-0600 (Central Standard Time),527219.3999999762,A,suga,O,a,134,1,1316.1999999284744,525903.2000000477,7086,WL,C,4.0
4,9.27999997138977,learn,50720.00002861023,Wed Mar 05 2025 11:11:55 GMT-0600 (Central Standard Time),527369.2000000477,A,sugar,O,r,128,1,1466.0,525903.2000000477,7086,WL,C,4.0
4,9.697999954223633,learn,50302.00004577637,Wed Mar 05 2025 11:11:55 GMT-0600 (Central Standard Time),527787.0,A,sugarenter,O,enter,413,1,1883.7999999523163,525903.2000000477,7086,WL,C,4.0
4,11.029000043869019,learn,48970.99995613098,Wed Mar 05 2025 11:11:55 GMT-0600 (Central Standard Time),529118.0,A,h,O,h,1323,1,1330.7999999523163,527787.2000000477,7086,WL,C,5.0
4,11.148000001907349,learn,48851.99999809265,Wed Mar 05 2025 11:11:55 GMT-0600 (Central Standard Time),529236.7999999523,A,ho,O,o,113,1,1449.5999999046326,527787.2000000477,7086,WL,C,5.0
4,11.411999940872192,learn,48588.00005912781,Wed Mar 05 2025 11:11:55 GMT-0600 (Central Standard Time),529501.2000000477,A,hom,O,m,256,1,1714.0,527787.2000000477,7086,WL,C,5.0
4,12.996000051498413,learn,47003.99994850159,Wed Mar 05 2025 11:11:55 GMT-0600 (Central Standard Time),531085.5,A,home,O,e,1576,1,3298.2999999523163,527787.2000000477,7086,WL,C,5.0
4,13.477999925613403,learn,46522.0000743866,Wed Mar 05 2025 11:11:55 GMT-0600 (Central Standard Time),531567.0,A,homeenter,O,enter,463,1,3779.7999999523163,527787.2000000477,7086,WL,C,5.0
4,14.227999925613403,learn,45772.0000743866,Wed Mar 05 2025 11:11:55 GMT-0600 (Central Standard Time),532317.7999999523,A,b,O,b,735,1,750.5999999046326,531567.2000000477,7086,WL,C,6.0
4,14.346999883651733,learn,45653.00011634827,Wed Mar 05 2025 11:11:55 GMT-0600 (Central Standard Time),532436.1000000238,A,bo,O,o,112,1,868.8999999761581,531567.2000000477,7086,WL,C,6.0
4,15.010999917984009,learn,44989.00008201599,Wed Mar 05 2025 11:11:55 GMT-0600 (Central Standard Time),533100.2000000477,A,boy,O,y,648,1,1533.0,531567.2000000477,7086,WL,C,6.0
4,16.861000061035156,learn,43138.999938964844,Wed Mar 05 2025 11:11:55 GMT-0600 (Central Standard Time),534950.2000000477,A,boyenter,O,enter,1840,1,3383.0,531567.2000000477,7086,WL,C,6.0
4,18.17799997329712,learn,41822.00002670288,Wed Mar 05 2025 11:11:55 GMT-0600 (Central Standard Time),536267.5,A,d,O,d,1296,1,1317.1000000238419,534950.3999999762,7086,WL,C,7.0
4,18.312999963760376,learn,41687.000036239624,Wed Mar 05 2025 11:11:55 GMT-0600 (Central Standard Time),536402.0,A,do,O,o,121,1,1451.6000000238419,534950.3999999762,7086,WL,C,7.0
4,18.444000005722046,learn,41555.999994277954,Wed Mar 05 2025 11:11:55 GMT-0600 (Central Standard Time),536532.7000000477,A,doc,O,c,114,1,1582.3000000715256,534950.3999999762,7086,WL,C,7.0
4,18.694000005722046,learn,41305.999994277954,Wed Mar 05 2025 11:11:55 GMT-0600 (Central Standard Time),536783.2999999523,A,doct,O,t,231,1,1832.8999999761581,534950.3999999762,7086,WL,C,7.0
4,18.842999935150146,learn,41157.00006484985,Wed Mar 05 2025 11:11:55 GMT-0600 (Central Standard Time),536932.7000000477,A,docto,O,o,134,1,1982.3000000715256,534950.3999999762,7086,WL,C,7.0
4,18.95899987220764,learn,41041.00012779236,Wed Mar 05 2025 11:11:55 GMT-0600 (Central Standard Time),537048.7000000477,A,doctor,O,r,96,1,2098.3000000715256,534950.3999999762,7086,WL,C,7.0
4,23.057999849319458,learn,36942.00015068054,Wed Mar 05 2025 11:11:55 GMT-0600 (Central Standard Time),541147.8999999762,A,doctorenter,O,enter,4084,1,6197.5,534950.3999999762,7086,WL,C,7.0
4,28.00600004196167,learn,31993.99995803833,Wed Mar 05 2025 11:11:55 GMT-0600 (Central Standard Time),546095.7999999523,A,c,O,c,4929,1,4947.699999928474,541148.1000000238,7086,WL,C,8.0
4,28.19000005722046,learn,31809.99994277954,Wed Mar 05 2025 11:11:55 GMT-0600 (Central Standard Time),546279.7999999523,A,ca,O,a,173,1,5131.699999928474,541148.1000000238,7086,WL,C,8.0
4,28.322999954223633,learn,31677.000045776367,Wed Mar 05 2025 11:11:55 GMT-0600 (Central Standard Time),546412.3999999762,A,cam,O,m,125,1,5264.299999952316,541148.1000000238,7086,WL,C,8.0
4,28.52300000190735,learn,31476.99999809265,Wed Mar 05 2025 11:11:55 GMT-0600 (Central Standard Time),546613.0,A,camp,O,p,185,1,5464.899999976158,541148.1000000238,7086,WL,C,8.0
4,28.889999866485596,learn,31110.000133514404,Wed Mar 05 2025 11:11:55 GMT-0600 (Central Standard Time),546979.3999999762,A,campenter,O,enter,351,1,5831.299999952316,541148.1000000238,7086,WL,C,8.0
4,29.240999937057495,learn,30759.000062942505,Wed Mar 05 2025 11:11:55 GMT-0600 (Central Standard Time),547330.5,A,f,O,f,346,1,350.89999997615814,546979.6000000238,7086,WL,C,9.0
4,29.388000011444092,learn,30611.99998855591,Wed Mar 05 2025 11:11:55 GMT-0600 (Central Standard Time),547477.3999999762,A,fl,O,l,138,1,497.7999999523163,546979.6000000238,7086,WL,C,9.0
4,29.588000059127808,learn,30411.999940872192,Wed Mar 05 2025 11:11:55 GMT-0600 (Central Standard Time),547678.1000000238,A,fla,O,a,182,1,698.5,546979.6000000238,7086,WL,C,9.0
4,29.75499987602234,learn,30245.00012397766,Wed Mar 05 2025 11:11:55 GMT-0600 (Central Standard Time),547845.0,A,flag,O,g,157,1,865.3999999761581,546979.6000000238,7086,WL,C,9.0
4,32.98799991607666,learn,27012.00008392334,Wed Mar 05 2025 11:11:55 GMT-0600 (Central Standard Time),551077.3999999762,A,flagenter,O,enter,3215,1,4097.799999952316,546979.6000000238,7086,WL,C,9.0
4,37.38800001144409,learn,22611.99998855591,Wed Mar 05 2025 11:11:55 GMT-0600 (Central Standard Time),555477.7999999523,A,c,O,c,4384,1,4400.199999928474,551077.6000000238,7086,WL,C,10.0
4,37.519999980926514,learn,22480.000019073486,Wed Mar 05 2025 11:11:55 GMT-0600 (Central Standard Time),555610.1000000238,A,ca,O,a,111,1,4532.5,551077.6000000238,7086,WL,C,10.0
4,37.65299987792969,learn,22347.000122070312,Wed Mar 05 2025 11:11:55 GMT-0600 (Central Standard Time),555742.2000000477,A,car,O,r,123,1,4664.600000023842,551077.6000000238,7086,WL,C,10.0
4,38.319000005722046,learn,21680.999994277954,Wed Mar 05 2025 11:11:55 GMT-0600 (Central Standard Time),556408.2999999523,A,ca,O,backspace,653,1,5330.699999928474,551077.6000000238,7086,WL,C,10.0
4,38.4689998626709,learn,21531.0001373291,Wed Mar 05 2025 11:11:55 GMT-0600 (Central Standard Time),556559.0,A,c,O,backspace,134,1,5481.399999976158,551077.6000000238,7086,WL,C,10.0
4,39.97099995613098,learn,20029.00004386902,Wed Mar 05 2025 11:11:55 GMT-0600 (Central Standard Time),558061.0,A,co,O,o,1492,1,6983.399999976158,551077.6000000238,7086,WL,C,10.0
4,40.085999965667725,learn,19914.000034332275,Wed Mar 05 2025 11:11:55 GMT-0600 (Central Standard Time),558175.1000000238,A,cor,O,r,102,1,7097.5,551077.6000000238,7086,WL,C,10.0
4,40.22000002861023,learn,19779.99997138977,Wed Mar 05 2025 11:11:55 GMT-0600 (Central Standard Time),558309.8999999762,A,corn,O,n,115,1,7232.299999952316,551077.6000000238,7086,WL,C,10.0
4,40.51799988746643,learn,19482.00011253357,Wed Mar 05 2025 11:11:55 GMT-0600 (Central Standard Time),558608.0,A,cornenter,O,enter,286,1,7530.399999976158,551077.6000000238,7086,WL,C,10.0
4,41.21799993515015,learn,18782.000064849854,Wed Mar 05 2025 11:11:55 GMT-0600 (Central Standard Time),559307.5,A,n,O,n,685,1,699.2000000476837,558608.2999999523,7086,WL,C,11.0
4,41.335999965667725,learn,18664.000034332275,Wed Mar 05 2025 11:11:55 GMT-0600 (Central Standard Time),559425.2999999523,A,na,O,a,97,1,817.0,558608.2999999523,7086,WL,C,11.0
4,41.83500003814697,learn,18164.999961853027,Wed Mar 05 2025 11:11:55 GMT-0600 (Central Standard Time),559925.0,A,nai,O,i,490,1,1316.7000000476837,558608.2999999523,7086,WL,C,11.0
4,42.418999910354614,learn,17581.000089645386,Wed Mar 05 2025 11:11:55 GMT-0600 (Central Standard Time),560509.0,A,nail,O,l,570,1,1900.7000000476837,558608.2999999523,7086,WL,C,11.0
4,44.38499999046326,learn,15615.000009536743,Wed Mar 05 2025 11:11:55 GMT-0600 (Central Standard Time),562474.7000000477,A,nailenter,O,enter,1950,1,3866.4000000953674,558608.2999999523,7086,WL,C,11.0
4,46.23199987411499,learn,13768.00012588501,Wed Mar 05 2025 11:11:55 GMT-0600 (Central Standard Time),564322.0,A,c,O,c,1841,1,1847.2000000476837,562474.7999999523,7086,WL,C,12.0
4,46.39999985694885,learn,13600.000143051147,Wed Mar 05 2025 11:11:55 GMT-0600 (Central Standard Time),564489.2000000477,A,ca,O,a,155,1,2014.4000000953674,562474.7999999523,7086,WL,C,12.0
4,46.5,learn,13500.0,Wed Mar 05 2025 11:11:55 GMT-0600 (Central Standard Time),564589.5,A,cat,O,t,84,1,2114.7000000476837,562474.7999999523,7086,WL,C,12.0
4,46.63199996948242,learn,13368.000030517578,Wed Mar 05 2025 11:11:55 GMT-0600 (Central Standard Time),564721.7000000477,A,catt,O,t,128,1,2246.9000000953674,562474.7999999523,7086,WL,C,12.0
4,46.81500005722046,learn,13184.999942779541,Wed Mar 05 2025 11:11:55 GMT-0600 (Central Standard Time),564904.8999999762,A,cattl,O,l,164,1,2430.100000023842,562474.7999999523,7086,WL,C,12.0
4,48.299999952316284,learn,11700.000047683716,Wed Mar 05 2025 11:11:55 GMT-0600 (Central Standard Time),566389.8999999762,A,cattle,O,e,1471,1,3915.100000023842,562474.7999999523,7086,WL,C,12.0
4,48.598999977111816,learn,11401.000022888184,Wed Mar 05 2025 11:11:55 GMT-0600 (Central Standard Time),566689.1000000238,A,cattleenter,O,enter,285,1,4214.300000071526,562474.7999999523,7086,WL,C,12.0
4,49.0,learn,11000.0,Wed Mar 05 2025 11:11:55 GMT-0600 (Central Standard Time),567089.7999999523,A,s,O,s,389,1,400.39999997615814,566689.3999999762,7086,WL,C,13.0
4,49.132999897003174,learn,10867.000102996826,Wed Mar 05 2025 11:11:55 GMT-0600 (Central Standard Time),567222.5,A,sh,O,h,118,1,533.1000000238419,566689.3999999762,7086,WL,C,13.0
4,49.217000007629395,learn,10782.999992370605,Wed Mar 05 2025 11:11:55 GMT-0600 (Central Standard Time),567307.0,A,sho,O,o,74,1,617.6000000238419,566689.3999999762,7086,WL,C,13.0
4,49.86699986457825,learn,10133.000135421753,Wed Mar 05 2025 11:11:55 GMT-0600 (Central Standard Time),567956.5,A,shor,O,r,633,1,1267.1000000238419,566689.3999999762,7086,WL,C,13.0
4,50.00099992752075,learn,9999.000072479248,Wed Mar 05 2025 11:11:55 GMT-0600 (Central Standard Time),568091.0,A,shore,O,e,127,1,1401.6000000238419,566689.3999999762,7086,WL,C,13.0
4,50.41700005531311,learn,9582.99994468689,Wed Mar 05 2025 11:11:55 GMT-0600 (Central Standard Time),568506.3999999762,A,shoreenter,O,enter,403,1,1817.0,566689.3999999762,7086,WL,C,13.0
4,51.18299984931946,learn,8817.000150680542,Wed Mar 05 2025 11:11:55 GMT-0600 (Central Standard Time),569273.0,A,b,O,b,755,1,766.3999999761581,568506.6000000238,7086,WL,C,14.0
4,51.282999992370605,learn,8717.000007629395,Wed Mar 05 2025 11:11:55 GMT-0600 (Central Standard Time),569372.1000000238,A,bo,O,o,79,1,865.5,568506.6000000238,7086,WL,C,14.0
4,51.5,learn,8500.0,Wed Mar 05 2025 11:11:55 GMT-0600 (Central Standard Time),569589.5,A,bod,O,d,200,1,1082.8999999761581,568506.6000000238,7086,WL,C,14.0
4,51.89999985694885,learn,8100.0001430511475,Wed Mar 05 2025 11:11:55 GMT-0600 (Central Standard Time),569989.7999999523,A,body,O,y,379,1,1483.1999999284744,568506.6000000238,7086,WL,C,14.0
4,52.21599984169006,learn,7784.0001583099365,Wed Mar 05 2025 11:11:55 GMT-0600 (Central Standard Time),570306.1000000238,A,bodyenter,O,enter,309,1,1799.5,568506.6000000238,7086,WL,C,14.0
4,59.996999979019165,learn,3.000020980834961,Wed Mar 05 2025 11:11:55 GMT-0600 (Central Standard Time),578086.3999999762,A,s,O,s,7772,1,7780.100000023842,570306.2999999523,7086,WL,C,15.0
4,60.01099991798401,learn,-10.999917984008789,Wed Mar 05 2025 11:11:55 GMT-0600 (Central Standard Time),578100.3999999762,A,sNone,O,None,5,1,7794.100000023842,570306.2999999523,7086,WL,C,15.0
5,1.0840001106262207,learn,60000.0,Wed Mar 05 2025 11:11:55 GMT-0600 (Central Standard Time),652380.2000000477,A,t,O,t,1063,1,1084.3000000715256,651295.8999999762,7086,WL,C,1.0
5,1.2340002059936523,learn,60000.0,Wed Mar 05 2025 11:11:55 GMT-0600 (Central Standard Time),652530.0,A,to,O,o,128,1,1234.1000000238419,651295.8999999762,7086,WL,C,1.0
5,1.382000207901001,learn,60000.0,Wed Mar 05 2025 11:11:55 GMT-0600 (Central Standard Time),652678.5,A,toe,O,e,138,1,1382.6000000238419,651295.8999999762,7086,WL,C,1.0
5,2.0160000324249268,learn,60000.0,Wed Mar 05 2025 11:11:55 GMT-0600 (Central Standard Time),653312.5,A,to,O,backspace,614,1,2016.6000000238419,651295.8999999762,7086,WL,C,1.0
5,2.1010000705718994,learn,60000.0,Wed Mar 05 2025 11:11:55 GMT-0600 (Central Standard Time),653397.5,A,tow,O,w,79,1,2101.600000023842,651295.8999999762,7086,WL,C,1.0
5,2.6650002002716064,learn,60000.0,Wed Mar 05 2025 11:11:55 GMT-0600 (Central Standard Time),653961.3999999762,A,towe,O,e,557,1,2665.5,651295.8999999762,7086,WL,C,1.0
5,2.8000001907348633,learn,60000.0,Wed Mar 05 2025 11:11:55 GMT-0600 (Central Standard Time),654096.0,A,tower,O,r,124,1,2800.100000023842,651295.8999999762,7086,WL,C,1.0
5,3.1490001678466797,learn,60000.0,Wed Mar 05 2025 11:11:55 GMT-0600 (Central Standard Time),654444.8999999762,A,towerenter,O,enter,331,1,3149.0,651295.8999999762,7086,WL,C,1.0
5,3.6000001430511475,learn,60000.0,Wed Mar 05 2025 11:11:55 GMT-0600 (Central Standard Time),654895.6000000238,A,w,O,w,432,1,450.39999997615814,654445.2000000477,7086,WL,C,2.0
5,3.748000144958496,learn,60000.0,Wed Mar 05 2025 11:11:55 GMT-0600 (Central Standard Time),655044.5,A,wh,O,h,140,1,599.2999999523163,654445.2000000477,7086,WL,C,2.0
5,3.8480000495910645,learn,60000.0,Wed Mar 05 2025 11:11:55 GMT-0600 (Central Standard Time),655144.3999999762,A,whe,O,e,78,1,699.1999999284744,654445.2000000477,7086,WL,C,2.0
5,4.199000120162964,learn,60000.0,Wed Mar 05 2025 11:11:55 GMT-0600 (Central Standard Time),655494.7000000477,A,whea,O,a,341,1,1049.5,654445.2000000477,7086,WL,C,2.0
5,4.299000024795532,learn,60000.0,Wed Mar 05 2025 11:11:55 GMT-0600 (Central Standard Time),655595.5,A,wheat,O,t,86,1,1150.2999999523163,654445.2000000477,7086,WL,C,2.0
5,4.998000144958496,learn,60000.0,Wed Mar 05 2025 11:11:55 GMT-0600 (Central Standard Time),656294.2000000477,A,wheatenter,O,enter,680,1,1849.0,654445.2000000477,7086,WL,C,2.0
5,5.565000057220459,learn,60000.0,Wed Mar 05 2025 11:11:55 GMT-0600 (Central Standard Time),656861.5,A,q,O,q,562,1,567.0,656294.5,7086,WL,C,3.0
5,5.815000057220459,learn,60000.0,Wed Mar 05 2025 11:11:55 GMT-0600 (Central Standard Time),657111.7000000477,A,qu,O,u,240,1,817.2000000476837,656294.5,7086,WL,C,3.0
5,5.898000001907349,learn,60000.0,Wed Mar 05 2025 11:11:55 GMT-0600 (Central Standard Time),657194.7999999523,A,que,O,e,61,1,900.2999999523163,656294.5,7086,WL,C,3.0
5,6.331000089645386,learn,60000.0,Wed Mar 05 2025 11:11:55 GMT-0600 (Central Standard Time),657627.7999999523,A,quee,O,e,418,1,1333.2999999523163,656294.5,7086,WL,C,3.0
5,6.897000074386597,learn,60000.0,Wed Mar 05 2025 11:11:55 GMT-0600 (Central Standard Time),658194.0,A,queen,O,n,552,1,1899.5,656294.5,7086,WL,C,3.0
5,7.315000057220459,learn,60000.0,Wed Mar 05 2025 11:11:55 GMT-0600 (Central Standard Time),658611.6000000238,A,queenenter,O,enter,411,1,2317.100000023842,656294.5,7086,WL,C,3.0
5,8.180000066757202,learn,60000.0,Wed Mar 05 2025 11:11:55 GMT-0600 (Central Standard Time),659476.5,A,s,O,s,858,1,864.6000000238419,658611.8999999762,7086,WL,C,4.0
5,9.564000129699707,learn,60000.0,Wed Mar 05 2025 11:11:55 GMT-0600 (Central Standard Time),660860.7999999523,A,su,O,u,1366,1,2248.899999976158,658611.8999999762,7086,WL,C,4.0
5,9.746000051498413,learn,60000.0,Wed Mar 05 2025 11:11:55 GMT-0600 (Central Standard Time),661042.8999999762,A,sug,O,g,168,1,2431.0,658611.8999999762,7086,WL,C,4.0
5,9.880000114440918,learn,60000.0,Wed Mar 05 2025 11:11:55 GMT-0600 (Central Standard Time),661176.5,A,suga,O,a,113,1,2564.600000023842,658611.8999999762,7086,WL,C,4.0
5,10.014000177383423,learn,60000.0,Wed Mar 05 2025 11:11:55 GMT-0600 (Central Standard Time),661310.1000000238,A,sugar,O,r,115,1,2698.2000000476837,658611.8999999762,7086,WL,C,4.0
5,10.647000074386597,learn,60000.0,Wed Mar 05 2025 11:11:55 GMT-0600 (Central Standard Time),661943.6000000238,A,sugarenter,O,enter,624,1,3331.7000000476837,658611.8999999762,7086,WL,C,4.0
5,11.246000051498413,learn,60000.0,Wed Mar 05 2025 11:11:55 GMT-0600 (Central Standard Time),662542.6000000238,A,h,O,h,582,1,598.7000000476837,661943.8999999762,7086,WL,C,5.0
5,11.330000162124634,learn,60000.0,Wed Mar 05 2025 11:11:55 GMT-0600 (Central Standard Time),662626.6000000238,A,ho,O,o,61,1,682.7000000476837,661943.8999999762,7086,WL,C,5.0
5,12.728000164031982,learn,60000.0,Wed Mar 05 2025 11:11:55 GMT-0600 (Central Standard Time),664024.5,A,hom,O,m,1385,1,2080.600000023842,661943.8999999762,7086,WL,C,5.0
5,13.196000099182129,learn,60000.0,Wed Mar 05 2025 11:11:55 GMT-0600 (Central Standard Time),664493.1000000238,A,home,O,e,465,1,2549.2000000476837,661943.8999999762,7086,WL,C,5.0
5,13.528000116348267,learn,60000.0,Wed Mar 05 2025 11:11:55 GMT-0600 (Central Standard Time),664824.5,A,homeenter,O,enter,309,1,2880.600000023842,661943.8999999762,7086,WL,C,5.0
5,13.896000146865845,learn,60000.0,Wed Mar 05 2025 11:11:55 GMT-0600 (Central Standard Time),665192.2000000477,A,b,O,b,357,1,367.5,664824.7000000477,7086,WL,C,6.0
5,14.029000043869019,learn,60000.0,Wed Mar 05 2025 11:11:55 GMT-0600 (Central Standard Time),665325.1000000238,A,bo,O,o,118,1,500.39999997615814,664824.7000000477,7086,WL,C,6.0
5,14.16100001335144,learn,60000.0,Wed Mar 05 2025 11:11:55 GMT-0600 (Central Standard Time),665457.6000000238,A,boy,O,y,120,1,632.8999999761581,664824.7000000477,7086,WL,C,6.0
5,14.811000108718872,learn,60000.0,Wed Mar 05 2025 11:11:55 GMT-0600 (Central Standard Time),666108.0,A,boyenter,O,enter,645,1,1283.2999999523163,664824.7000000477,7086,WL,C,6.0
5,15.148000001907349,learn,60000.0,Wed Mar 05 2025 11:11:55 GMT-0600 (Central Standard Time),666444.7999999523,A,d,O,d,321,1,336.59999990463257,666108.2000000477,7086,WL,C,7.0
5,15.279000043869019,learn,60000.0,Wed Mar 05 2025 11:11:55 GMT-0600 (Central Standard Time),666575.5,A,do,O,o,112,1,467.2999999523163,666108.2000000477,7086,WL,C,7.0
5,15.476999998092651,learn,60000.0,Wed Mar 05 2025 11:11:55 GMT-0600 (Central Standard Time),666774.1000000238,A,doc,O,c,190,1,665.8999999761581,666108.2000000477,7086,WL,C,7.0
5,15.694000005722046,learn,60000.0,Wed Mar 05 2025 11:11:55 GMT-0600 (Central Standard Time),666990.2999999523,A,doct,O,t,206,1,882.0999999046326,666108.2000000477,7086,WL,C,7.0
5,15.82800006866455,learn,60000.0,Wed Mar 05 2025 11:11:55 GMT-0600 (Central Standard Time),667124.2999999523,A,docto,O,o,111,1,1016.0999999046326,666108.2000000477,7086,WL,C,7.0
5,15.945000171661377,learn,60000.0,Wed Mar 05 2025 11:11:55 GMT-0600 (Central Standard Time),667241.3999999762,A,doctor,O,r,102,1,1133.1999999284744,666108.2000000477,7086,WL,C,7.0
5,18.960000038146973,learn,60000.0,Wed Mar 05 2025 11:11:55 GMT-0600 (Central Standard Time),670256.6000000238,A,doctorenter,O,enter,3003,1,4148.399999976158,666108.2000000477,7086,WL,C,7.0
5,21.759999990463257,learn,60000.0,Wed Mar 05 2025 11:11:55 GMT-0600 (Central Standard Time),673056.1000000238,A,c,O,c,2789,1,2799.2000000476837,670256.8999999762,7086,WL,C,8.0
5,21.978000164031982,learn,60000.0,Wed Mar 05 2025 11:11:55 GMT-0600 (Central Standard Time),673274.3999999762,A,ca,O,a,198,1,3017.5,670256.8999999762,7086,WL,C,8.0
5,22.159000158309937,learn,60000.0,Wed Mar 05 2025 11:11:55 GMT-0600 (Central Standard Time),673455.8999999762,A,cam,O,m,163,1,3199.0,670256.8999999762,7086,WL,C,8.0
5,24.427000045776367,learn,60000.0,Wed Mar 05 2025 11:11:55 GMT-0600 (Central Standard Time),675723.6000000238,A,camp,O,p,2261,1,5466.700000047684,670256.8999999762,7086,WL,C,8.0
5,25.30900001525879,learn,60000.0,Wed Mar 05 2025 11:11:55 GMT-0600 (Central Standard Time),676605.2000000477,A,campenter,O,enter,864,1,6348.300000071526,670256.8999999762,7086,WL,C,8.0
5,26.009999990463257,learn,60000.0,Wed Mar 05 2025 11:11:55 GMT-0600 (Central Standard Time),677306.5,A,f,O,f,689,1,701.1000000238419,676605.3999999762,7086,WL,C,9.0
5,26.141000032424927,learn,60000.0,Wed Mar 05 2025 11:11:55 GMT-0600 (Central Standard Time),677437.8999999762,A,fl,O,l,123,1,832.5,676605.3999999762,7086,WL,C,9.0
5,26.407999992370605,learn,60000.0,Wed Mar 05 2025 11:11:55 GMT-0600 (Central Standard Time),677704.3999999762,A,fla,O,a,245,1,1099.0,676605.3999999762,7086,WL,C,9.0
5,26.694000005722046,learn,60000.0,Wed Mar 05 2025 11:11:55 GMT-0600 (Central Standard Time),677990.2999999523,A,flag,O,g,277,1,1384.8999999761581,676605.3999999762,7086,WL,C,9.0
5,26.924000024795532,learn,60000.0,Wed Mar 05 2025 11:11:55 GMT-0600 (Central Standard Time),678220.3999999762,A,flagenter,O,enter,214,1,1615.0,676605.3999999762,7086,WL,C,9.0
5,27.341000080108643,learn,60000.0,Wed Mar 05 2025 11:11:55 GMT-0600 (Central Standard Time),678637.7000000477,A,l,O,l,409,1,417.0,678220.7000000477,7086,WL,C,10.0
5,27.424000024795532,learn,60000.0,Wed Mar 05 2025 11:11:55 GMT-0600 (Central Standard Time),678720.0,A,le,O,e,62,1,499.2999999523163,678220.7000000477,7086,WL,C,10.0
5,27.642000198364258,learn,60000.0,Wed Mar 05 2025 11:11:55 GMT-0600 (Central Standard Time),678938.7999999523,A,let,O,t,211,1,718.0999999046326,678220.7000000477,7086,WL,C,10.0
5,27.79200005531311,learn,60000.0,Wed Mar 05 2025 11:11:55 GMT-0600 (Central Standard Time),679089.0,A,lett,O,t,139,1,868.2999999523163,678220.7000000477,7086,WL,C,10.0
5,27.974000215530396,learn,60000.0,Wed Mar 05 2025 11:11:55 GMT-0600 (Central Standard Time),679270.5,A,lette,O,e,171,1,1049.7999999523163,678220.7000000477,7086,WL,C,10.0
5,28.076000213623047,learn,60000.0,Wed Mar 05 2025 11:11:55 GMT-0600 (Central Standard Time),679372.7999999523,A,letter,O,r,97,1,1152.0999999046326,678220.7000000477,7086,WL,C,10.0
5,29.77400016784668,learn,60000.0,Wed Mar 05 2025 11:11:55 GMT-0600 (Central Standard Time),681070.3999999762,A,letterenter,O,enter,1679,1,2849.6999999284744,678220.7000000477,7086,WL,C,10.0
5,33.00600004196167,learn,60000.0,Wed Mar 05 2025 11:11:55 GMT-0600 (Central Standard Time),684302.7000000477,A,c,O,c,3224,1,3232.100000023842,681070.6000000238,7086,WL,C,11.0
5,33.324000120162964,learn,60000.0,Wed Mar 05 2025 11:11:55 GMT-0600 (Central Standard Time),684621.0,A,co,O,o,310,1,3550.399999976158,681070.6000000238,7086,WL,C,11.0
5,33.44099998474121,learn,60000.0,Wed Mar 05 2025 11:11:55 GMT-0600 (Central Standard Time),684737.2999999523,A,cor,O,r,102,1,3666.6999999284744,681070.6000000238,7086,WL,C,11.0
5,34.372000217437744,learn,60000.0,Wed Mar 05 2025 11:11:55 GMT-0600 (Central Standard Time),685668.8999999762,A,corn,O,n,921,1,4598.299999952316,681070.6000000238,7086,WL,C,11.0
5,34.705000162124634,learn,60000.0,Wed Mar 05 2025 11:11:55 GMT-0600 (Central Standard Time),686001.7000000477,A,cornenter,O,enter,312,1,4931.100000023842,681070.6000000238,7086,WL,C,11.0
5,35.13900017738342,learn,60000.0,Wed Mar 05 2025 11:11:55 GMT-0600 (Central Standard Time),686435.7999999523,A,n,O,n,413,1,433.89999997615814,686001.8999999762,7086,WL,C,12.0
5,35.25600004196167,learn,60000.0,Wed Mar 05 2025 11:11:55 GMT-0600 (Central Standard Time),686552.2000000477,A,na,O,a,97,1,550.3000000715256,686001.8999999762,7086,WL,C,12.0
5,35.37100005149841,learn,60000.0,Wed Mar 05 2025 11:11:55 GMT-0600 (Central Standard Time),686667.7999999523,A,nai,O,i,107,1,665.8999999761581,686001.8999999762,7086,WL,C,12.0
5,35.82200002670288,learn,60000.0,Wed Mar 05 2025 11:11:55 GMT-0600 (Central Standard Time),687119.0,A,nail,O,l,444,1,1117.1000000238419,686001.8999999762,7086,WL,C,12.0
5,38.455000162124634,learn,60000.0,Wed Mar 05 2025 11:11:55 GMT-0600 (Central Standard Time),689751.0,A,nailenter,O,enter,2612,1,3749.100000023842,686001.8999999762,7086,WL,C,12.0
5,38.97200012207031,learn,60000.0,Wed Mar 05 2025 11:11:55 GMT-0600 (Central Standard Time),690268.6000000238,A,c,O,c,512,1,517.3000000715256,689751.2999999523,7086,WL,C,13.0
5,39.13900017738342,learn,60000.0,Wed Mar 05 2025 11:11:55 GMT-0600 (Central Standard Time),690435.8999999762,A,ca,O,a,143,1,684.6000000238419,689751.2999999523,7086,WL,C,13.0
5,39.33800005912781,learn,60000.0,Wed Mar 05 2025 11:11:55 GMT-0600 (Central Standard Time),690634.2999999523,A,cat,O,t,178,1,883.0,689751.2999999523,7086,WL,C,13.0
5,39.47000002861023,learn,60000.0,Wed Mar 05 2025 11:11:55 GMT-0600 (Central Standard Time),690766.5,A,catt,O,t,120,1,1015.2000000476837,689751.2999999523,7086,WL,C,13.0
5,39.70300006866455,learn,60000.0,Wed Mar 05 2025 11:11:55 GMT-0600 (Central Standard Time),690999.7999999523,A,cattl,O,l,213,1,1248.5,689751.2999999523,7086,WL,C,13.0
5,40.15500020980835,learn,60000.0,Wed Mar 05 2025 11:11:55 GMT-0600 (Central Standard Time),691451.8999999762,A,cattle,O,e,445,1,1700.6000000238419,689751.2999999523,7086,WL,C,13.0
5,40.70300006866455,learn,60000.0,Wed Mar 05 2025 11:11:55 GMT-0600 (Central Standard Time),691999.8999999762,A,cattleenter,O,enter,537,1,2248.600000023842,689751.2999999523,7086,WL,C,13.0
5,41.902000188827515,learn,60000.0,Wed Mar 05 2025 11:11:55 GMT-0600 (Central Standard Time),693198.7000000477,A,s,O,s,1181,1,1198.5,692000.2000000477,7086,WL,C,14.0
5,42.01900005340576,learn,60000.0,Wed Mar 05 2025 11:11:55 GMT-0600 (Central Standard Time),693315.7000000477,A,sh,O,h,110,1,1315.5,692000.2000000477,7086,WL,C,14.0
5,42.13600015640259,learn,60000.0,Wed Mar 05 2025 11:11:55 GMT-0600 (Central Standard Time),693433.0,A,sho,O,o,95,1,1432.7999999523163,692000.2000000477,7086,WL,C,14.0
5,42.205000162124634,learn,60000.0,Wed Mar 05 2025 11:11:55 GMT-0600 (Central Standard Time),693501.2999999523,A,shor,O,r,62,1,1501.0999999046326,692000.2000000477,7086,WL,C,14.0
5,42.32100009918213,learn,60000.0,Wed Mar 05 2025 11:11:55 GMT-0600 (Central Standard Time),693617.5,A,shore,O,e,95,1,1617.2999999523163,692000.2000000477,7086,WL,C,14.0
5,42.586000204086304,learn,60000.0,Wed Mar 05 2025 11:11:55 GMT-0600 (Central Standard Time),693882.6000000238,A,shoreenter,O,enter,258,1,1882.3999999761581,692000.2000000477,7086,WL,C,14.0
5,42.96900010108948,learn,60000.0,Wed Mar 05 2025 11:11:55 GMT-0600 (Central Standard Time),694265.2999999523,A,b,O,b,377,1,382.2999999523163,693883.0,7086,WL,C,15.0
5,43.05200004577637,learn,60000.0,Wed Mar 05 2025 11:11:55 GMT-0600 (Central Standard Time),694348.5,A,bo,O,o,69,1,465.5,693883.0,7086,WL,C,15.0
5,43.420000076293945,learn,60000.0,Wed Mar 05 2025 11:11:55 GMT-0600 (Central Standard Time),694716.8999999762,A,bod,O,d,362,1,833.8999999761581,693883.0,7086,WL,C,15.0
5,43.57300019264221,learn,60000.0,Wed Mar 05 2025 11:11:55 GMT-0600 (Central Standard Time),694869.3999999762,A,body,O,y,147,1,986.3999999761581,693883.0,7086,WL,C,15.0
5,44.40400004386902,learn,60000.0,Wed Mar 05 2025 11:11:55 GMT-0600 (Central Standard Time),695700.2999999523,A,bodyenter,O,enter,827,1,1817.2999999523163,693883.0,7086,WL,C,15.0
6,1.7359998226165771,distr,58264.00017738342,Wed Mar 05 2025 11:11:55 GMT-0600 (Central Standard Time),793119.7000000477,B,d,O,d,1730,1,1735.5,791384.2000000477,7086,WL,C,1.0
6,1.8509998321533203,distr,58149.00016784668,Wed Mar 05 2025 11:11:55 GMT-0600 (Central Standard Time),793234.5,B,dk,O,k,101,1,1850.2999999523163,791384.2000000477,7086,WL,C,1.0
6,2.500999927520752,distr,57499.00007247925,Wed Mar 05 2025 11:11:55 GMT-0600 (Central Standard Time),793884.2999999523,B,d,O,backspace,634,1,2500.0999999046326,791384.2000000477,7086,WL,C,1.0
6,2.6509997844696045,distr,57349.000215530396,Wed Mar 05 2025 11:11:55 GMT-0600 (Central Standard Time),794034.7999999523,B,,O,backspace,136,1,2650.5999999046326,791384.2000000477,7086,WL,C,1.0
6,3.5859999656677246,distr,56414.000034332275,Wed Mar 05 2025 11:11:55 GMT-0600 (Central Standard Time),794969.2999999523,B,s,O,s,922,1,3585.0999999046326,791384.2000000477,7086,WL,C,1.0
6,3.7339999675750732,distr,56266.00003242493,Wed Mar 05 2025 11:11:55 GMT-0600 (Central Standard Time),795117.5,B,sk,O,k,133,1,3733.2999999523163,791384.2000000477,7086,WL,C,1.0
6,4.033999919891357,distr,55966.00008010864,Wed Mar 05 2025 11:11:55 GMT-0600 (Central Standard Time),795417.6000000238,B,sky,O,y,286,1,4033.399999976158,791384.2000000477,7086,WL,C,1.0
6,4.616999864578247,distr,55383.00013542175,Wed Mar 05 2025 11:11:55 GMT-0600 (Central Standard Time),796000.7000000477,B,skyenter,O,enter,562,1,4616.5,791384.2000000477,7086,WL,C,1.0
6,6.549999952316284,distr,53450.000047683716,Wed Mar 05 2025 11:11:55 GMT-0600 (Central Standard Time),797933.6000000238,B,d,O,d,1917,1,1932.8000000715256,796000.7999999523,7086,WL,C,2.0
6,6.682999849319458,distr,53317.00015068054,Wed Mar 05 2025 11:11:55 GMT-0600 (Central Standard Time),798066.2000000477,B,do,O,o,111,1,2065.4000000953674,796000.7999999523,7086,WL,C,2.0
6,6.9009997844696045,distr,53099.000215530396,Wed Mar 05 2025 11:11:55 GMT-0600 (Central Standard Time),798284.2999999523,B,dol,O,l,193,1,2283.5,796000.7999999523,7086,WL,C,2.0
6,7.7829999923706055,distr,52217.000007629395,Wed Mar 05 2025 11:11:55 GMT-0600 (Central Standard Time),799166.1000000238,B,doll,O,l,859,1,3165.3000000715256,796000.7999999523,7086,WL,C,2.0
6,7.9009997844696045,distr,52099.000215530396,Wed Mar 05 2025 11:11:55 GMT-0600 (Central Standard Time),799284.2999999523,B,dolla,O,a,104,1,3283.5,796000.7999999523,7086,WL,C,2.0
6,8.083999872207642,distr,51916.00012779236,Wed Mar 05 2025 11:11:55 GMT-0600 (Central Standard Time),799467.1000000238,B,dollar,O,r,160,1,3466.3000000715256,796000.7999999523,7086,WL,C,2.0
6,8.497999906539917,distr,51502.00009346008,Wed Mar 05 2025 11:11:55 GMT-0600 (Central Standard Time),799881.2000000477,B,dollarenter,O,enter,392,1,3880.4000000953674,796000.7999999523,7086,WL,C,2.0
6,9.014999866485596,distr,50985.000133514404,Wed Mar 05 2025 11:11:55 GMT-0600 (Central Standard Time),800398.7999999523,B,v,O,v,509,1,517.3999999761581,799881.3999999762,7086,WL,C,3.0
6,9.149999856948853,distr,50850.00014305115,Wed Mar 05 2025 11:11:55 GMT-0600 (Central Standard Time),800533.2999999523,B,va,O,a,119,1,651.8999999761581,799881.3999999762,7086,WL,C,3.0
6,9.399999856948853,distr,50600.00014305115,Wed Mar 05 2025 11:11:55 GMT-0600 (Central Standard Time),800783.8999999762,B,val,O,l,231,1,902.5,799881.3999999762,7086,WL,C,3.0
6,9.532999992370605,distr,50467.000007629395,Wed Mar 05 2025 11:11:55 GMT-0600 (Central Standard Time),800916.0,B,vall,O,l,115,1,1034.6000000238419,799881.3999999762,7086,WL,C,3.0
6,10.214999914169312,distr,49785.00008583069,Wed Mar 05 2025 11:11:55 GMT-0600 (Central Standard Time),801598.7000000477,B,valle,O,e,663,1,1717.3000000715256,799881.3999999762,7086,WL,C,3.0
6,10.330999851226807,distr,49669.00014877319,Wed Mar 05 2025 11:11:55 GMT-0600 (Central Standard Time),801714.7000000477,B,valley,O,y,94,1,1833.3000000715256,799881.3999999762,7086,WL,C,3.0
6,10.86299991607666,distr,49137.00008392334,Wed Mar 05 2025 11:11:55 GMT-0600 (Central Standard Time),802246.8999999762,B,valleyenter,O,enter,511,1,2365.5,799881.3999999762,7086,WL,C,3.0
6,16.912999868392944,distr,43087.000131607056,Wed Mar 05 2025 11:11:55 GMT-0600 (Central Standard Time),808296.7999999523,B,b,O,b,6031,1,6049.799999952316,802247.0,7086,WL,C,4.0
6,17.0479998588562,distr,42952.0001411438,Wed Mar 05 2025 11:11:55 GMT-0600 (Central Standard Time),808431.6000000238,B,bu,O,u,118,1,6184.600000023842,802247.0,7086,WL,C,4.0
6,17.228999853134155,distr,42771.000146865845,Wed Mar 05 2025 11:11:55 GMT-0600 (Central Standard Time),808612.3999999762,B,but,O,t,172,1,6365.399999976158,802247.0,7086,WL,C,4.0
6,17.37999987602234,distr,42620.00012397766,Wed Mar 05 2025 11:11:55 GMT-0600 (Central Standard Time),808763.0,B,butt,O,t,142,1,6516.0,802247.0,7086,WL,C,4.0
6,17.645999908447266,distr,42354.000091552734,Wed Mar 05 2025 11:11:55 GMT-0600 (Central Standard Time),809029.2000000477,B,butte,O,e,249,1,6782.200000047684,802247.0,7086,WL,C,4.0
6,17.73099994659424,distr,42269.00005340576,Wed Mar 05 2025 11:11:55 GMT-0600 (Central Standard Time),809114.7999999523,B,butter,O,r,71,1,6867.799999952316,802247.0,7086,WL,C,4.0
6,18.09599995613098,distr,41904.00004386902,Wed Mar 05 2025 11:11:55 GMT-0600 (Central Standard Time),809479.0,B,butterenter,O,enter,355,1,7232.0,802247.0,7086,WL,C,4.0
6,19.161999940872192,distr,40838.00005912781,Wed Mar 05 2025 11:11:55 GMT-0600 (Central Standard Time),810545.2999999523,B,d,O,d,1046,1,1066.0999999046326,809479.2000000477,7086,WL,C,5.0
6,19.311999797821045,distr,40688.000202178955,Wed Mar 05 2025 11:11:55 GMT-0600 (Central Standard Time),810695.3999999762,B,di,O,i,138,1,1216.1999999284744,809479.2000000477,7086,WL,C,5.0
6,19.544999837875366,distr,40455.000162124634,Wed Mar 05 2025 11:11:55 GMT-0600 (Central Standard Time),810928.7999999523,B,dia,O,a,223,1,1449.5999999046326,809479.2000000477,7086,WL,C,5.0
6,19.745999813079834,distr,40254.000186920166,Wed Mar 05 2025 11:11:55 GMT-0600 (Central Standard Time),811129.7999999523,B,diam,O,m,179,1,1650.5999999046326,809479.2000000477,7086,WL,C,5.0
6,20.42799997329712,distr,39572.00002670288,Wed Mar 05 2025 11:11:55 GMT-0600 (Central Standard Time),811811.7000000477,B,diamo,O,o,664,1,2332.5,809479.2000000477,7086,WL,C,5.0
6,20.509999990463257,distr,39490.00000953674,Wed Mar 05 2025 11:11:55 GMT-0600 (Central Standard Time),811893.0,B,diamon,O,n,66,1,2413.7999999523163,809479.2000000477,7086,WL,C,5.0
6,20.97699999809265,distr,39023.00000190735,Wed Mar 05 2025 11:11:55 GMT-0600 (Central Standard Time),812360.0,B,diamond,O,d,449,1,2880.7999999523163,809479.2000000477,7086,WL,C,5.0
6,21.359999895095825,distr,38640.000104904175,Wed Mar 05 2025 11:11:55 GMT-0600 (Central Standard Time),812742.8999999762,B,diamondenter,O,enter,366,1,3263.6999999284744,809479.2000000477,7086,WL,C,5.0
6,21.82799983024597,distr,38172.00016975403,Wed Mar 05 2025 11:11:55 GMT-0600 (Central Standard Time),813211.2999999523,B,h,O,h,454,1,468.1999999284744,812743.1000000238,7086,WL,C,6.0
6,21.911999940872192,distr,38088.00005912781,Wed Mar 05 2025 11:11:55 GMT-0600 (Central Standard Time),813296.0,B,ha,O,a,72,1,552.8999999761581,812743.1000000238,7086,WL,C,6.0
6,22.061999797821045,distr,37938.000202178955,Wed Mar 05 2025 11:11:55 GMT-0600 (Central Standard Time),813445.7000000477,B,hal,O,l,133,1,702.6000000238419,812743.1000000238,7086,WL,C,6.0
6,22.194999933242798,distr,37805.0000667572,Wed Mar 05 2025 11:11:55 GMT-0600 (Central Standard Time),813578.3999999762,B,hall,O,l,127,1,835.2999999523163,812743.1000000238,7086,WL,C,6.0
6,22.610999822616577,distr,37389.00017738342,Wed Mar 05 2025 11:11:55 GMT-0600 (Central Standard Time),813994.3999999762,B,hallenter,O,enter,399,1,1251.2999999523163,812743.1000000238,7086,WL,C,6.0
6,23.996999979019165,distr,36003.000020980835,Wed Mar 05 2025 11:11:55 GMT-0600 (Central Standard Time),815380.2999999523,B,m,O,m,1371,1,1385.6999999284744,813994.6000000238,7086,WL,C,7.0
6,24.0939998626709,distr,35906.0001373291,Wed Mar 05 2025 11:11:55 GMT-0600 (Central Standard Time),815478.0,B,me,O,e,80,1,1483.3999999761581,813994.6000000238,7086,WL,C,7.0
6,24.245999813079834,distr,35754.000186920166,Wed Mar 05 2025 11:11:55 GMT-0600 (Central Standard Time),815629.6000000238,B,mea,O,a,141,1,1635.0,813994.6000000238,7086,WL,C,7.0
6,24.3439998626709,distr,35656.0001373291,Wed Mar 05 2025 11:11:55 GMT-0600 (Central Standard Time),815727.8999999762,B,meat,O,t,76,1,1733.2999999523163,813994.6000000238,7086,WL,C,7.0
6,24.710999965667725,distr,35289.000034332275,Wed Mar 05 2025 11:11:55 GMT-0600 (Central Standard Time),816094.3999999762,B,meatenter,O,enter,343,1,2099.7999999523163,813994.6000000238,7086,WL,C,7.0
6,25.176999807357788,distr,34823.00019264221,Wed Mar 05 2025 11:11:55 GMT-0600 (Central Standard Time),816560.3999999762,B,f,O,f,446,1,465.6999999284744,816094.7000000477,7086,WL,C,8.0
6,25.275999784469604,distr,34724.000215530396,Wed Mar 05 2025 11:11:55 GMT-0600 (Central Standard Time),816659.2999999523,B,fo,O,o,81,1,564.5999999046326,816094.7000000477,7086,WL,C,8.0
6,25.393999814987183,distr,34606.00018501282,Wed Mar 05 2025 11:11:55 GMT-0600 (Central Standard Time),816777.0,B,for,O,r,96,1,682.2999999523163,816094.7000000477,7086,WL,C,8.0
6,25.676999807357788,distr,34323.00019264221,Wed Mar 05 2025 11:11:55 GMT-0600 (Central Standard Time),817060.2999999523,B,fore,O,e,276,1,965.5999999046326,816094.7000000477,7086,WL,C,8.0
6,25.926999807357788,distr,34073.00019264221,Wed Mar 05 2025 11:11:55 GMT-0600 (Central Standard Time),817310.8999999762,B,fores,O,s,232,1,1216.1999999284744,816094.7000000477,7086,WL,C,8.0
6,26.027999877929688,distr,33972.00012207031,Wed Mar 05 2025 11:11:55 GMT-0600 (Central Standard Time),817411.5,B,forest,O,t,95,1,1316.7999999523163,816094.7000000477,7086,WL,C,8.0
6,26.357999801635742,distr,33642.00019836426,Wed Mar 05 2025 11:11:55 GMT-0600 (Central Standard Time),817741.2000000477,B,forestenter,O,enter,311,1,1646.5,816094.7000000477,7086,WL,C,8.0
6,26.657999992370605,distr,33342.000007629395,Wed Mar 05 2025 11:11:55 GMT-0600 (Central Standard Time),818041.3999999762,B,m,O,m,280,1,299.89999997615814,817741.5,7086,WL,C,9.0
6,26.807999849319458,distr,33192.00015068054,Wed Mar 05 2025 11:11:55 GMT-0600 (Central Standard Time),818191.2000000477,B,mo,O,o,141,1,449.7000000476837,817741.5,7086,WL,C,9.0
6,26.90999984741211,distr,33090.00015258789,Wed Mar 05 2025 11:11:55 GMT-0600 (Central Standard Time),818293.7999999523,B,mot,O,t,87,1,552.2999999523163,817741.5,7086,WL,C,9.0
6,27.060999870300293,distr,32939.00012969971,Wed Mar 05 2025 11:11:55 GMT-0600 (Central Standard Time),818444.6000000238,B,moth,O,h,128,1,703.1000000238419,817741.5,7086,WL,C,9.0
6,27.57699990272522,distr,32423.00009727478,Wed Mar 05 2025 11:11:55 GMT-0600 (Central Standard Time),818960.3999999762,B,mothe,O,e,505,1,1218.8999999761581,817741.5,7086,WL,C,9.0
6,27.675999879837036,distr,32324.000120162964,Wed Mar 05 2025 11:11:55 GMT-0600 (Central Standard Time),819059.2999999523,B,mother,O,r,83,1,1317.7999999523163,817741.5,7086,WL,C,9.0
6,28.89199995994568,distr,31108.00004005432,Wed Mar 05 2025 11:11:55 GMT-0600 (Central Standard Time),820275.3999999762,B,motherenter,O,enter,1203,1,2533.899999976158,817741.5,7086,WL,C,9.0
6,43.687999963760376,distr,16312.000036239624,Wed Mar 05 2025 11:11:55 GMT-0600 (Central Standard Time),835071.7000000477,B,enter,O,enter,14785,1,14796.0,820275.7000000477,7086,WL,C,10.0
6,43.98799991607666,distr,16012.00008392334,Wed Mar 05 2025 11:11:55 GMT-0600 (Central Standard Time),835371.7999999523,B,enter,O,enter,285,1,299.7999999523163,835072.0,7086,WL,C,11.0
6,44.186999797821045,distr,15813.000202178955,Wed Mar 05 2025 11:11:55 GMT-0600 (Central Standard Time),835570.7000000477,B,enter,O,enter,196,1,198.60000002384186,835372.1000000238,7086,WL,C,12.0
6,44.55399990081787,distr,15446.000099182129,Wed Mar 05 2025 11:11:55 GMT-0600 (Central Standard Time),835937.8999999762,B,enter,O,enter,356,1,366.7999999523163,835571.1000000238,7086,WL,C,13.0
6,44.90399980545044,distr,15096.00019454956,Wed Mar 05 2025 11:11:55 GMT-0600 (Central Standard Time),836287.5,B,enter,O,enter,333,1,349.39999997615814,835938.1000000238,7086,WL,C,14.0
6,45.569000005722046,distr,14430.999994277954,Wed Mar 05 2025 11:11:55 GMT-0600 (Central Standard Time),836952.7000000477,B,enter,O,enter,653,1,664.9000000953674,836287.7999999523,7086,WL,C,15.0
7,1.1180000305175781,immed,58881.99996948242,Wed Mar 05 2025 11:11:55 GMT-0600 (Central Standard Time),858447.2000000477,A,t,O,t,1098,1,1117.6000000238419,857329.6000000238,7086,WL,C,1.0
7,1.2170000076293945,immed,58782.999992370605,Wed Mar 05 2025 11:11:55 GMT-0600 (Central Standard Time),858546.1000000238,A,to,O,o,85,1,1216.5,857329.6000000238,7086,WL,C,1.0
7,1.3680000305175781,immed,58631.99996948242,Wed Mar 05 2025 11:11:55 GMT-0600 (Central Standard Time),858697.0,A,tow,O,w,138,1,1367.3999999761581,857329.6000000238,7086,WL,C,1.0
7,1.4849998950958252,immed,58515.000104904175,Wed Mar 05 2025 11:11:55 GMT-0600 (Central Standard Time),858813.6000000238,A,towe,O,e,100,1,1484.0,857329.6000000238,7086,WL,C,1.0
7,1.6010000705718994,immed,58398.9999294281,Wed Mar 05 2025 11:11:55 GMT-0600 (Central Standard Time),858929.7999999523,A,tower,O,r,102,1,1600.1999999284744,857329.6000000238,7086,WL,C,1.0
7,2.004999876022339,immed,57995.00012397766,Wed Mar 05 2025 11:11:55 GMT-0600 (Central Standard Time),859333.3999999762,A,towerenter,O,enter,397,1,2003.7999999523163,857329.6000000238,7086,WL,C,1.0
7,3.0169999599456787,immed,56983.00004005432,Wed Mar 05 2025 11:11:55 GMT-0600 (Central Standard Time),860345.8999999762,A,q,O,q,1001,1,1011.8999999761581,859334.0,7086,WL,C,2.0
7,3.2360000610351562,immed,56763.999938964844,Wed Mar 05 2025 11:11:55 GMT-0600 (Central Standard Time),860564.7000000477,A,qu,O,u,213,1,1230.7000000476837,859334.0,7086,WL,C,2.0
7,3.3339998722076416,immed,56666.00012779236,Wed Mar 05 2025 11:11:55 GMT-0600 (Central Standard Time),860663.3999999762,A,que,O,e,79,1,1329.3999999761581,859334.0,7086,WL,C,2.0
7,3.616999864578247,immed,56383.00013542175,Wed Mar 05 2025 11:11:55 GMT-0600 (Central Standard Time),860946.2999999523,A,quee,O,e,257,1,1612.2999999523163,859334.0,7086,WL,C,2.0
7,4.500999927520752,immed,55499.00007247925,Wed Mar 05 2025 11:11:55 GMT-0600 (Central Standard Time),861829.5,A,queen,O,n,878,1,2495.5,859334.0,7086,WL,C,2.0
7,4.931999921798706,immed,55068.000078201294,Wed Mar 05 2025 11:11:55 GMT-0600 (Central Standard Time),862261.2000000477,A,queenenter,O,enter,423,1,2927.2000000476837,859334.0,7086,WL,C,2.0
7,5.315999984741211,immed,54684.00001525879,Wed Mar 05 2025 11:11:55 GMT-0600 (Central Standard Time),862645.0,A,s,O,s,378,1,383.60000002384186,862261.3999999762,7086,WL,C,3.0
7,5.684000015258789,immed,54315.99998474121,Wed Mar 05 2025 11:11:55 GMT-0600 (Central Standard Time),863012.8999999762,A,su,O,u,352,1,751.5,862261.3999999762,7086,WL,C,3.0
7,5.799000024795532,immed,54200.99997520447,Wed Mar 05 2025 11:11:55 GMT-0600 (Central Standard Time),863128.2999999523,A,sug,O,g,94,1,866.8999999761581,862261.3999999762,7086,WL,C,3.0
7,5.966000080108643,immed,54033.99991989136,Wed Mar 05 2025 11:11:55 GMT-0600 (Central Standard Time),863294.7999999523,A,suga,O,a,156,1,1033.3999999761581,862261.3999999762,7086,WL,C,3.0
7,6.085000038146973,immed,53914.99996185303,Wed Mar 05 2025 11:11:55 GMT-0600 (Central Standard Time),863413.5,A,sugar,O,r,114,1,1152.1000000238419,862261.3999999762,7086,WL,C,3.0
7,7.115000009536743,immed,52884.99999046326,Wed Mar 05 2025 11:11:55 GMT-0600 (Central Standard Time),864443.8999999762,A,sugarenter,O,enter,1025,1,2182.5,862261.3999999762,7086,WL,C,3.0
7,8.651000022888184,immed,51348.99997711182,Wed Mar 05 2025 11:11:55 GMT-0600 (Central Standard Time),865979.7000000477,A,h,O,h,1530,1,1535.6000000238419,864444.1000000238,7086,WL,C,4.0
7,10.181999921798706,immed,49818.000078201294,Wed Mar 05 2025 11:11:55 GMT-0600 (Central Standard Time),867510.7999999523,A,ho,O,o,1521,1,3066.6999999284744,864444.1000000238,7086,WL,C,4.0
7,11.414000034332275,immed,48585.999965667725,Wed Mar 05 2025 11:11:55 GMT-0600 (Central Standard Time),868742.7000000477,A,hom,O,m,1221,1,4298.600000023842,864444.1000000238,7086,WL,C,4.0
7,11.582000017166138,immed,48417.99998283386,Wed Mar 05 2025 11:11:55 GMT-0600 (Central Standard Time),868910.6000000238,A,home,O,e,145,1,4466.5,864444.1000000238,7086,WL,C,4.0
7,11.846999883651733,immed,48153.00011634827,Wed Mar 05 2025 11:11:55 GMT-0600 (Central Standard Time),869176.1000000238,A,homeenter,O,enter,254,1,4732.0,864444.1000000238,7086,WL,C,4.0
7,12.596999883651733,immed,47403.00011634827,Wed Mar 05 2025 11:11:55 GMT-0600 (Central Standard Time),869925.7999999523,A,b,O,b,733,1,749.2999999523163,869176.5,7086,WL,C,5.0
7,12.681999921798706,immed,47318.000078201294,Wed Mar 05 2025 11:11:55 GMT-0600 (Central Standard Time),870011.1000000238,A,bo,O,o,70,1,834.6000000238419,869176.5,7086,WL,C,5.0
7,12.865000009536743,immed,47134.99999046326,Wed Mar 05 2025 11:11:55 GMT-0600 (Central Standard Time),870194.2000000477,A,boy,O,y,162,1,1017.7000000476837,869176.5,7086,WL,C,5.0
7,13.598000049591064,immed,46401.999950408936,Wed Mar 05 2025 11:11:55 GMT-0600 (Central Standard Time),870926.8999999762,A,boyenter,O,enter,714,1,1750.3999999761581,869176.5,7086,WL,C,5.0
7,14.21399998664856,immed,45786.00001335144,Wed Mar 05 2025 11:11:55 GMT-0600 (Central Standard Time),871543.1000000238,A,d,O,d,607,1,616.0,870927.1000000238,7086,WL,C,6.0
7,14.296000003814697,immed,45703.9999961853,Wed Mar 05 2025 11:11:55 GMT-0600 (Central Standard Time),871625.2000000477,A,do,O,o,68,1,698.1000000238419,870927.1000000238,7086,WL,C,6.0
7,14.516000032424927,immed,45483.99996757507,Wed Mar 05 2025 11:11:55 GMT-0600 (Central Standard Time),871844.6000000238,A,doc,O,c,213,1,917.5,870927.1000000238,7086,WL,C,6.0
7,15.148000001907349,immed,44851.99999809265,Wed Mar 05 2025 11:11:55 GMT-0600 (Central Standard Time),872476.3999999762,A,doct,O,t,626,1,1549.2999999523163,870927.1000000238,7086,WL,C,6.0
7,15.279000043869019,immed,44720.99995613098,Wed Mar 05 2025 11:11:55 GMT-0600 (Central Standard Time),872608.2000000477,A,docto,O,o,113,1,1681.1000000238419,870927.1000000238,7086,WL,C,6.0
7,15.430999994277954,immed,44569.000005722046,Wed Mar 05 2025 11:11:55 GMT-0600 (Central Standard Time),872759.7000000477,A,doctor,O,r,132,1,1832.6000000238419,870927.1000000238,7086,WL,C,6.0
7,16.996000051498413,immed,43003.99994850159,Wed Mar 05 2025 11:11:55 GMT-0600 (Central Standard Time),874324.7999999523,A,doctorenter,O,enter,1549,1,3397.6999999284744,870927.1000000238,7086,WL,C,6.0
7,20.01200008392334,immed,39987.99991607666,Wed Mar 05 2025 11:11:55 GMT-0600 (Central Standard Time),877340.8999999762,A,c,O,c,3011,1,3015.899999976158,874325.0,7086,WL,C,7.0
7,20.13100004196167,immed,39868.99995803833,Wed Mar 05 2025 11:11:55 GMT-0600 (Central Standard Time),877460.2999999523,A,ca,O,a,113,1,3135.2999999523163,874325.0,7086,WL,C,7.0
7,20.210999965667725,immed,39789.000034332275,Wed Mar 05 2025 11:11:55 GMT-0600 (Central Standard Time),877540.2999999523,A,cam,O,m,74,1,3215.2999999523163,874325.0,7086,WL,C,7.0
7,20.444999933242798,immed,39555.0000667572,Wed Mar 05 2025 11:11:55 GMT-0600 (Central Standard Time),877773.6000000238,A,camp,O,p,217,1,3448.600000023842,874325.0,7086,WL,C,7.0
7,21.01099991798401,immed,38989.00008201599,Wed Mar 05 2025 11:11:55 GMT-0600 (Central Standard Time),878339.6000000238,A,campenter,O,enter,550,1,4014.600000023842,874325.0,7086,WL,C,7.0
7,21.44599986076355,immed,38554.00013923645,Wed Mar 05 2025 11:11:55 GMT-0600 (Central Standard Time),878775.1000000238,A,f,O,f,428,1,435.39999997615814,878339.7000000477,7086,WL,C,8.0
7,21.611999988555908,immed,38388.00001144409,Wed Mar 05 2025 11:11:55 GMT-0600 (Central Standard Time),878940.8999999762,A,fl,O,l,159,1,601.1999999284744,878339.7000000477,7086,WL,C,8.0
7,21.8439998626709,immed,38156.0001373291,Wed Mar 05 2025 11:11:55 GMT-0600 (Central Standard Time),879173.2000000477,A,fla,O,a,215,1,833.5,878339.7000000477,7086,WL,C,8.0
7,22.26200008392334,immed,37737.99991607666,Wed Mar 05 2025 11:11:55 GMT-0600 (Central Standard Time),879590.7000000477,A,flag,O,g,398,1,1251.0,878339.7000000477,7086,WL,C,8.0
7,22.543999910354614,immed,37456.000089645386,Wed Mar 05 2025 11:11:55 GMT-0600 (Central Standard Time),879873.0,A,flagenter,O,enter,263,1,1533.2999999523163,878339.7000000477,7086,WL,C,8.0
7,22.91100001335144,immed,37088.99998664856,Wed Mar 05 2025 11:11:55 GMT-0600 (Central Standard Time),880240.1000000238,A,l,O,l,356,1,366.89999997615814,879873.2000000477,7086,WL,C,9.0
7,22.994999885559082,immed,37005.00011444092,Wed Mar 05 2025 11:11:55 GMT-0600 (Central Standard Time),880323.3999999762,A,le,O,e,67,1,450.1999999284744,879873.2000000477,7086,WL,C,9.0
7,23.17799997329712,immed,36822.00002670288,Wed Mar 05 2025 11:11:55 GMT-0600 (Central Standard Time),880507.0,A,let,O,t,176,1,633.7999999523163,879873.2000000477,7086,WL,C,9.0
7,23.3439998626709,immed,36656.0001373291,Wed Mar 05 2025 11:11:55 GMT-0600 (Central Standard Time),880673.2000000477,A,lett,O,t,146,1,800.0,879873.2000000477,7086,WL,C,9.0
7,23.59500002861023,immed,36404.99997138977,Wed Mar 05 2025 11:11:55 GMT-0600 (Central Standard Time),880924.0,A,lette,O,e,235,1,1050.7999999523163,879873.2000000477,7086,WL,C,9.0
7,23.710999965667725,immed,36289.000034332275,Wed Mar 05 2025 11:11:55 GMT-0600 (Central Standard Time),881039.6000000238,A,letter,O,r,96,1,1166.3999999761581,879873.2000000477,7086,WL,C,9.0
7,24.111999988555908,immed,35888.00001144409,Wed Mar 05 2025 11:11:55 GMT-0600 (Central Standard Time),881440.7000000477,A,letterenter,O,enter,381,1,1567.5,879873.2000000477,7086,WL,C,9.0
7,25.710000038146973,immed,34289.99996185303,Wed Mar 05 2025 11:11:55 GMT-0600 (Central Standard Time),883039.2999999523,A,c,O,c,1581,1,1598.3999999761581,881440.8999999762,7086,WL,C,10.0
7,25.812000036239624,immed,34187.999963760376,Wed Mar 05 2025 11:11:55 GMT-0600 (Central Standard Time),883140.5,A,co,O,o,94,1,1699.6000000238419,881440.8999999762,7086,WL,C,10.0
7,25.943000078201294,immed,34056.999921798706,Wed Mar 05 2025 11:11:55 GMT-0600 (Central Standard Time),883272.2000000477,A,cor,O,r,121,1,1831.3000000715256,881440.8999999762,7086,WL,C,10.0
7,26.292999982833862,immed,33707.00001716614,Wed Mar 05 2025 11:11:55 GMT-0600 (Central Standard Time),883622.0,A,corn,O,n,332,1,2181.100000023842,881440.8999999762,7086,WL,C,10.0
7,27.575999975204468,immed,32424.000024795532,Wed Mar 05 2025 11:11:55 GMT-0600 (Central Standard Time),884904.7999999523,A,cornenter,O,enter,1264,1,3463.899999976158,881440.8999999762,7086,WL,C,10.0
7,27.97699999809265,immed,32023.00000190735,Wed Mar 05 2025 11:11:55 GMT-0600 (Central Standard Time),885306.2999999523,A,n,O,n,389,1,401.1999999284744,884905.1000000238,7086,WL,C,11.0
7,28.092000007629395,immed,31907.999992370605,Wed Mar 05 2025 11:11:55 GMT-0600 (Central Standard Time),885421.2000000477,A,na,O,a,99,1,516.1000000238419,884905.1000000238,7086,WL,C,11.0
7,28.2260000705719,immed,31773.9999294281,Wed Mar 05 2025 11:11:55 GMT-0600 (Central Standard Time),885554.7000000477,A,nai,O,i,120,1,649.6000000238419,884905.1000000238,7086,WL,C,11.0
7,28.57699990272522,immed,31423.00009727478,Wed Mar 05 2025 11:11:55 GMT-0600 (Central Standard Time),885906.1000000238,A,nail,O,l,346,1,1001.0,884905.1000000238,7086,WL,C,11.0
7,29.325999975204468,immed,30674.000024795532,Wed Mar 05 2025 11:11:55 GMT-0600 (Central Standard Time),886654.6000000238,A,nailenter,O,enter,730,1,1749.5,884905.1000000238,7086,WL,C,11.0
7,29.628000020980835,immed,30371.999979019165,Wed Mar 05 2025 11:11:55 GMT-0600 (Central Standard Time),886956.3999999762,A,c,O,c,280,1,301.60000002384186,886654.7999999523,7086,WL,C,12.0
7,29.776999950408936,immed,30223.000049591064,Wed Mar 05 2025 11:11:55 GMT-0600 (Central Standard Time),887105.6000000238,A,ca,O,a,127,1,450.8000000715256,886654.7999999523,7086,WL,C,12.0
7,29.925999879837036,immed,30074.000120162964,Wed Mar 05 2025 11:11:55 GMT-0600 (Central Standard Time),887254.8999999762,A,cat,O,t,130,1,600.1000000238419,886654.7999999523,7086,WL,C,12.0
7,30.092000007629395,immed,29907.999992370605,Wed Mar 05 2025 11:11:55 GMT-0600 (Central Standard Time),887420.5,A,catt,O,t,157,1,765.7000000476837,886654.7999999523,7086,WL,C,12.0
