Q,Q1,Q2,Q3,Q4,acc_sum,block,block_c,correct,correct_response,datetime,endtime,project,response,response_time,row_sel,session_number,squiggle1,squiggle1x,squiggle1y,squiggle2,squiggle2x,squiggle2y,squiggle3,squiggle3x,squiggle3y,squiggle4,squiggle4x,squiggle4y,start_end,starttime,subject_id,target_congruent,task,task_vers,testsquiggle,testsquigglex,testsquiggley,time_practice_delay,time_practice_fixation,time_practice_stimuli,time_practice_study,time_test_delay,time_test_fixation,time_test_stimuli,time_test_study,trial
1,1,0,0,0,0,prac,1,0,z,Mon Mar 17 2025 16:02:57 GMT-0500 (Central Daylight Time),128387.09999999404,O,None,2015,1,1,116.bmp,-120,-120,117.bmp,120,-120,118.bmp,-120,120,119.bmp,120,120,10814.399999976158,117572.70000001788,7085,yes,SM,A,116.bmp,-120,-120,116028,110012,118044,112013,,,,,1
3,0,0,1,0,0,prac,1,0,m,Mon Mar 17 2025 16:02:57 GMT-0500 (Central Daylight Time),139050.30000001192,O,z,1843,2,1,120.bmp,-120,-120,121.bmp,120,-120,122.bmp,-120,120,123.bmp,120,120,10659.300000011921,128391.0,7085,no,SM,A,123.bmp,-120,120,126858,120830,128874,122843,,,,,2
4,0,0,0,1,1,prac,1,1,m,Mon Mar 17 2025 16:02:57 GMT-0500 (Central Daylight Time),148997.40000000596,O,m,1074,3,1,124.bmp,-120,-120,125.bmp,120,-120,126.bmp,-120,120,127.bmp,120,120,9943.199999988079,139054.20000001788,7085,no,SM,A,124.bmp,120,120,137571,131493,139587,133567,,,,,3
2,0,1,0,0,2,prac,1,1,z,Mon Mar 17 2025 16:02:57 GMT-0500 (Central Daylight Time),158844.30000001192,O,z,1025,4,1,128.bmp,-120,-120,129.bmp,120,-120,130.bmp,-120,120,131.bmp,120,120,9843.40000000596,149000.90000000596,7085,yes,SM,A,129.bmp,120,-120,147468,141440,149484,143453,,,,,4
3,0,0,1,0,2,prac,1,0,z,Mon Mar 17 2025 16:02:57 GMT-0500 (Central Daylight Time),168624.5,O,m,962,5,1,132.bmp,-120,-120,133.bmp,120,-120,134.bmp,-120,120,135.bmp,120,120,9776.59999999404,158847.90000000596,7085,yes,SM,A,134.bmp,-120,120,157315,151287,159331,153300,,,,,5
1,1,0,0,0,2,prac,1,0,m,Mon Mar 17 2025 16:02:57 GMT-0500 (Central Daylight Time),179455.5,O,None,2015,6,1,136.bmp,-120,-120,137.bmp,120,-120,138.bmp,-120,120,139.bmp,120,120,10827.59999999404,168627.90000000596,7085,no,SM,A,139.bmp,-120,-120,167095,161067,169111,163080,,,,,6
2,0,1,0,0,2,prac,1,0,m,Mon Mar 17 2025 16:02:57 GMT-0500 (Central Daylight Time),189801.09999999404,O,z,1529,7,1,140.bmp,-120,-120,141.bmp,120,-120,142.bmp,-120,120,143.bmp,120,120,10341.799999982119,179459.30000001192,7085,no,SM,A,140.bmp,120,-120,177925,171899,179941,173910,,,,,7
4,0,0,0,1,3,prac,1,1,z,Mon Mar 17 2025 16:02:57 GMT-0500 (Central Daylight Time),200231.40000000596,O,z,1605,8,1,144.bmp,-120,-120,145.bmp,120,-120,146.bmp,-120,120,147.bmp,120,120,10425.90000000596,189805.5,7085,yes,SM,A,147.bmp,120,120,188272,182245,190288,184256,,,,,8
1,1,0,0,0,1,prac,2,1,z,Mon Mar 17 2025 16:02:57 GMT-0500 (Central Daylight Time),225506.59999999404,O,z,951,1,1,116.bmp,-120,-120,117.bmp,120,-120,118.bmp,-120,120,119.bmp,120,120,9777.199999988079,215729.40000000596,7085,yes,SM,A,116.bmp,-120,-120,214197,208169,216214,210183,,,,,1
3,0,0,1,0,2,prac,2,1,m,Mon Mar 17 2025 16:02:57 GMT-0500 (Central Daylight Time),235421.09999999404,O,m,1083,2,1,120.bmp,-120,-120,121.bmp,120,-120,122.bmp,-120,120,123.bmp,120,120,9910.899999976158,225510.20000001788,7085,no,SM,A,123.bmp,-120,120,223977,217949,225994,219962,,,,,2
4,0,0,0,1,3,prac,2,1,m,Mon Mar 17 2025 16:02:57 GMT-0500 (Central Daylight Time),245500.40000000596,O,m,1257,3,1,124.bmp,-120,-120,125.bmp,120,-120,126.bmp,-120,120,127.bmp,120,120,10076.0,235424.40000000596,7085,no,SM,A,124.bmp,120,120,233891,227864,235908,229876,,,,,3
2,0,1,0,0,3,prac,2,0,z,Mon Mar 17 2025 16:02:57 GMT-0500 (Central Daylight Time),255947.30000001192,O,m,1626,4,1,128.bmp,-120,-120,129.bmp,120,-120,130.bmp,-120,120,131.bmp,120,120,10443.90000000596,245503.40000000596,7085,yes,SM,A,129.bmp,120,-120,243971,237942,245987,239956,,,,,4
3,0,0,1,0,3,prac,2,0,z,Mon Mar 17 2025 16:02:57 GMT-0500 (Central Daylight Time),265844.0,O,m,1075,5,1,132.bmp,-120,-120,133.bmp,120,-120,134.bmp,-120,120,135.bmp,120,120,9893.5,255950.5,7085,yes,SM,A,134.bmp,-120,120,254418,248390,256434,250402,,,,,5
1,1,0,0,0,3,prac,2,0,m,Mon Mar 17 2025 16:02:57 GMT-0500 (Central Daylight Time),276674.2000000179,O,None,2016,6,1,136.bmp,-120,-120,137.bmp,120,-120,138.bmp,-120,120,139.bmp,120,120,10826.90000000596,265847.3000000119,7085,no,SM,A,139.bmp,-120,-120,264315,258287,266331,260300,,,,,6
2,0,1,0,0,4,prac,2,1,m,Mon Mar 17 2025 16:02:57 GMT-0500 (Central Daylight Time),286687.5,O,m,1197,7,1,140.bmp,-120,-120,141.bmp,120,-120,142.bmp,-120,120,143.bmp,120,120,10009.59999999404,276677.90000000596,7085,no,SM,A,140.bmp,120,-120,275145,269117,277161,271129,,,,,7
4,0,0,0,1,5,prac,2,1,z,Mon Mar 17 2025 16:02:57 GMT-0500 (Central Daylight Time),296751.2000000179,O,z,1238,8,1,144.bmp,-120,-120,145.bmp,120,-120,146.bmp,-120,120,147.bmp,120,120,10060.100000023842,286691.09999999404,7085,yes,SM,A,147.bmp,120,120,285158,279130,287175,281143,,,,,8
4,0,0,0,1,1,test,1,1,m,Mon Mar 17 2025 16:02:57 GMT-0500 (Central Daylight Time),353449.90000000596,O,m,1221,1,1,148.bmp,-120,-120,149.bmp,120,-120,150.bmp,-120,120,143.bmp,120,120,9277.90000000596,344172.0,7085,no,SM,A,150.bmp,120,120,285158,279130,287175,281143,342642.0,336611.0,344657.0,338626.0,1
2,0,1,0,0,2,test,1,1,m,Mon Mar 17 2025 16:02:57 GMT-0500 (Central Daylight Time),362513.8000000119,O,m,1012,2,1,101.bmp,-120,-120,102.bmp,120,-120,103.bmp,-120,120,104.bmp,120,120,9060.90000000596,353452.90000000596,7085,no,SM,A,103.bmp,120,-120,285158,279130,287175,281143,351920.0,345892.0,353937.0,347905.0,2
1,1,0,0,0,3,test,1,1,z,Mon Mar 17 2025 16:02:57 GMT-0500 (Central Daylight Time),371511.0,O,z,949,3,1,105.bmp,-120,-120,106.bmp,120,-120,107.bmp,-120,120,108.bmp,120,120,8994.0,362517.0,7085,yes,SM,A,105.bmp,-120,-120,285158,279130,287175,281143,360984.0,354956.0,363001.0,356969.0,3
3,0,0,1,0,4,test,1,1,m,Mon Mar 17 2025 16:02:57 GMT-0500 (Central Daylight Time),380974.59999999404,O,m,1400,4,1,109.bmp,-120,-120,110.bmp,120,-120,111.bmp,-120,120,112.bmp,120,120,9460.299999982119,371514.3000000119,7085,no,SM,A,109.bmp,-120,120,285158,279130,287175,281143,369982.0,363953.0,371998.0,365966.0,4
2,0,1,0,0,5,test,1,1,z,Mon Mar 17 2025 16:02:57 GMT-0500 (Central Daylight Time),390388.3000000119,O,z,1359,5,1,113.bmp,-120,-120,114.bmp,120,-120,115.bmp,-120,120,116.bmp,120,120,9410.5,380977.8000000119,7085,yes,SM,A,114.bmp,120,-120,285158,279130,287175,281143,379445.0,373417.0,381462.0,375430.0,5
3,0,0,1,0,5,test,1,0,z,Mon Mar 17 2025 16:02:57 GMT-0500 (Central Daylight Time),399618.8000000119,O,m,1170,6,1,117.bmp,-120,-120,118.bmp,120,-120,119.bmp,-120,120,120.bmp,120,120,9227.0,390391.8000000119,7085,yes,SM,A,119.bmp,-120,120,285158,279130,287175,281143,388860.0,382831.0,390875.0,384844.0,6
4,0,0,0,1,6,test,1,1,z,Mon Mar 17 2025 16:02:57 GMT-0500 (Central Daylight Time),409382.40000000596,O,z,1700,7,1,121.bmp,-120,-120,122.bmp,120,-120,123.bmp,-120,120,124.bmp,120,120,9760.40000000596,399622.0,7085,yes,SM,A,124.bmp,120,120,285158,279130,287175,281143,398089.0,392061.0,400106.0,394074.0,7
2,0,1,0,0,6,test,1,0,m,Mon Mar 17 2025 16:02:57 GMT-0500 (Central Daylight Time),418712.90000000596,O,z,1272,8,1,125.bmp,-120,-120,126.bmp,120,-120,127.bmp,-120,120,128.bmp,120,120,9327.09999999404,409385.8000000119,7085,no,SM,A,125.bmp,120,-120,285158,279130,287175,281143,407853.0,401825.0,409869.0,403838.0,8
3,0,0,1,0,7,test,1,1,m,Mon Mar 17 2025 16:02:57 GMT-0500 (Central Daylight Time),428126.8000000119,O,m,1358,9,1,129.bmp,-120,-120,130.bmp,120,-120,131.bmp,-120,120,132.bmp,120,120,9409.800000011921,418717.0,7085,no,SM,A,130.bmp,-120,120,285158,279130,287175,281143,417184.0,411156.0,419200.0,413169.0,9
4,0,0,0,1,7,test,1,0,z,Mon Mar 17 2025 16:02:57 GMT-0500 (Central Daylight Time),437440.40000000596,O,m,1255,10,1,137.bmp,-120,-120,138.bmp,120,-120,139.bmp,-120,120,140.bmp,120,120,9310.09999999404,428130.3000000119,7085,yes,SM,A,140.bmp,120,120,285158,279130,287175,281143,426597.0,420570.0,428614.0,422582.0,10
3,0,0,1,0,8,test,1,1,z,Mon Mar 17 2025 16:02:57 GMT-0500 (Central Daylight Time),446454.2000000179,O,z,950,11,1,133.bmp,-120,-120,134.bmp,120,-120,135.bmp,-120,120,136.bmp,120,120,9011.100000023842,437443.09999999404,7085,yes,SM,A,135.bmp,-120,120,285158,279130,287175,281143,435911.0,429882.0,437927.0,431896.0,11
2,0,1,0,0,9,test,1,1,m,Mon Mar 17 2025 16:02:57 GMT-0500 (Central Daylight Time),455634.59999999404,O,m,1128,12,1,141.bmp,-120,-120,142.bmp,120,-120,143.bmp,-120,120,144.bmp,120,120,9177.199999988079,446457.40000000596,7085,no,SM,A,141.bmp,120,-120,285158,279130,287175,281143,444925.0,438897.0,446941.0,440910.0,12
3,0,0,1,0,9,test,1,0,m,Mon Mar 17 2025 16:02:57 GMT-0500 (Central Daylight Time),464748.2000000179,O,z,1051,13,1,145.bmp,-120,-120,146.bmp,120,-120,147.bmp,-120,120,148.bmp,120,120,9110.200000017881,455638.0,7085,no,SM,A,146.bmp,-120,120,285158,279130,287175,281143,454106.0,448077.0,456122.0,450090.0,13
1,1,0,0,0,9,test,1,0,z,Mon Mar 17 2025 16:02:57 GMT-0500 (Central Daylight Time),474245.2000000179,O,m,1434,14,1,149.bmp,-120,-120,150.bmp,120,-120,104.bmp,-120,120,101.bmp,120,120,9493.600000023842,464751.59999999404,7085,yes,SM,A,149.bmp,-120,-120,285158,279130,287175,281143,463219.0,457191.0,465235.0,459204.0,14
4,0,0,0,1,9,test,1,0,m,Mon Mar 17 2025 16:02:57 GMT-0500 (Central Daylight Time),483792.5,O,z,1490,15,1,110.bmp,-120,-120,111.bmp,120,-120,112.bmp,-120,120,113.bmp,120,120,9544.40000000596,474248.09999999404,7085,no,SM,A,111.bmp,120,120,285158,279130,287175,281143,472716.0,466687.0,474732.0,468701.0,15
1,1,0,0,0,9,test,1,0,m,Mon Mar 17 2025 16:02:57 GMT-0500 (Central Daylight Time),493073.0,O,z,1221,16,1,102.bmp,-120,-120,103.bmp,120,-120,104.bmp,-120,120,105.bmp,120,120,9276.799999982119,483796.2000000179,7085,no,SM,A,105.bmp,-120,-120,285158,279130,287175,281143,482263.0,476235.0,484280.0,478248.0,16
3,0,0,1,0,9,test,1,0,m,Mon Mar 17 2025 16:02:57 GMT-0500 (Central Daylight Time),501970.2000000179,O,z,838,17,1,122.bmp,-120,-120,123.bmp,120,-120,124.bmp,-120,120,125.bmp,120,120,8893.800000011921,493076.40000000596,7085,no,SM,A,122.bmp,-120,120,285158,279130,287175,281143,491544.0,485516.0,493560.0,487529.0,17
1,1,0,0,0,9,test,1,0,z,Mon Mar 17 2025 16:02:57 GMT-0500 (Central Daylight Time),511183.90000000596,O,m,1156,18,1,106.bmp,-120,-120,107.bmp,120,-120,108.bmp,-120,120,109.bmp,120,120,9210.300000011921,501973.59999999404,7085,yes,SM,A,106.bmp,-120,-120,285158,279130,287175,281143,500441.0,494413.0,502457.0,496426.0,18
2,0,1,0,0,10,test,1,1,z,Mon Mar 17 2025 16:02:57 GMT-0500 (Central Daylight Time),520131.2000000179,O,z,887,19,1,126.bmp,-120,-120,127.bmp,120,-120,128.bmp,-120,120,129.bmp,120,120,8943.700000017881,511187.5,7085,yes,SM,A,127.bmp,120,-120,285158,279130,287175,281143,509655.0,503627.0,511671.0,505639.0,19
3,0,0,1,0,11,test,1,1,z,Mon Mar 17 2025 16:02:57 GMT-0500 (Central Daylight Time),529461.599999994,O,z,1275,20,1,130.bmp,-120,-120,131.bmp,120,-120,132.bmp,-120,120,133.bmp,120,120,9327.399999976158,520134.2000000179,7085,yes,SM,A,132.bmp,-120,120,285158,279130,287175,281143,518602.0,512573.0,520618.0,514587.0,20
1,1,0,0,0,11,test,1,0,m,Mon Mar 17 2025 16:02:57 GMT-0500 (Central Daylight Time),538508.7000000179,O,z,985,21,1,114.bmp,-120,-120,115.bmp,120,-120,116.bmp,-120,120,117.bmp,120,120,9044.0,529464.7000000179,7085,no,SM,A,116.bmp,-120,-120,285158,279130,287175,281143,527932.0,521904.0,529949.0,523917.0,21
4,0,0,0,1,12,test,1,1,z,Mon Mar 17 2025 16:02:57 GMT-0500 (Central Daylight Time),547572.599999994,O,z,1009,22,1,118.bmp,-120,-120,119.bmp,120,-120,120.bmp,-120,120,121.bmp,120,120,9060.699999988079,538511.900000006,7085,yes,SM,A,121.bmp,120,120,285158,279130,287175,281143,536979.0,530951.0,538996.0,532964.0,22
1,1,0,0,0,13,test,1,1,m,Mon Mar 17 2025 16:02:57 GMT-0500 (Central Daylight Time),557120.599999994,O,m,1499,23,1,134.bmp,-120,-120,135.bmp,120,-120,136.bmp,-120,120,137.bmp,120,120,9544.5,547576.099999994,7085,no,SM,A,137.bmp,-120,-120,285158,279130,287175,281143,546043.0,540015.0,548059.0,542028.0,23
2,0,1,0,0,14,test,1,1,z,Mon Mar 17 2025 16:02:57 GMT-0500 (Central Daylight Time),566183.5,O,z,1006,24,1,142.bmp,-120,-120,143.bmp,120,-120,144.bmp,-120,120,145.bmp,120,120,9059.699999988079,557123.8000000119,7085,yes,SM,A,143.bmp,120,-120,285158,279130,287175,281143,555590.0,549563.0,557607.0,551576.0,24
4,0,0,0,1,15,test,1,1,m,Mon Mar 17 2025 16:02:57 GMT-0500 (Central Daylight Time),576013.7000000179,O,m,1767,25,1,146.bmp,-120,-120,147.bmp,120,-120,148.bmp,-120,120,149.bmp,120,120,9827.0,566186.7000000179,7085,no,SM,A,148.bmp,120,120,285158,279130,287175,281143,564654.0,558626.0,566670.0,560639.0,25
1,1,0,0,0,16,test,1,1,z,Mon Mar 17 2025 16:02:57 GMT-0500 (Central Daylight Time),584994.3000000119,O,z,929,26,1,138.bmp,-120,-120,139.bmp,120,-120,140.bmp,-120,120,141.bmp,120,120,8977.0,576017.3000000119,7085,yes,SM,A,138.bmp,-120,-120,285158,279130,287175,281143,574484.0,568456.0,576500.0,570469.0,26
4,0,0,0,1,16,test,1,0,z,Mon Mar 17 2025 16:02:57 GMT-0500 (Central Daylight Time),594108.099999994,O,m,1053,27,1,150.bmp,-120,-120,111.bmp,120,-120,101.bmp,-120,120,102.bmp,120,120,9110.199999988079,584997.900000006,7085,yes,SM,A,102.bmp,120,120,285158,279130,287175,281143,583465.0,577437.0,585481.0,579451.0,27
3,0,0,1,0,16,test,1,0,m,Mon Mar 17 2025 16:02:57 GMT-0500 (Central Daylight Time),603255.2000000179,O,z,1090,28,1,103.bmp,-120,-120,104.bmp,120,-120,105.bmp,-120,120,106.bmp,120,120,9144.200000017881,594111.0,7085,no,SM,A,103.bmp,-120,120,285158,279130,287175,281143,592579.0,586550.0,594595.0,588565.0,28
2,0,1,0,0,17,test,1,1,z,Mon Mar 17 2025 16:02:57 GMT-0500 (Central Daylight Time),612002.099999994,O,z,696,29,1,107.bmp,-120,-120,108.bmp,120,-120,109.bmp,-120,120,110.bmp,120,120,8743.5,603258.599999994,7085,yes,SM,A,108.bmp,120,-120,285158,279130,287175,281143,601726.0,595698.0,603742.0,597711.0,29
3,0,0,1,0,17,test,1,0,z,Mon Mar 17 2025 16:02:57 GMT-0500 (Central Daylight Time),621316.3000000119,O,m,1251,30,1,111.bmp,-120,-120,112.bmp,120,-120,113.bmp,-120,120,114.bmp,120,120,9310.800000011921,612005.5,7085,yes,SM,A,113.bmp,-120,120,285158,279130,287175,281143,610473.0,604445.0,612490.0,606458.0,30
1,1,0,0,0,18,test,1,1,z,Mon Mar 17 2025 16:02:57 GMT-0500 (Central Daylight Time),630380.0,O,z,1002,31,1,115.bmp,-120,-120,116.bmp,120,-120,117.bmp,-120,120,118.bmp,120,120,9060.40000000596,621319.599999994,7085,yes,SM,A,115.bmp,-120,-120,285158,279130,287175,281143,619787.0,613759.0,621803.0,615772.0,31
2,0,1,0,0,18,test,1,0,m,Mon Mar 17 2025 16:02:57 GMT-0500 (Central Daylight Time),639593.8000000119,O,z,1163,32,1,119.bmp,-120,-120,120.bmp,120,-120,121.bmp,-120,120,122.bmp,120,120,9209.59999999404,630384.2000000179,7085,no,SM,A,119.bmp,120,-120,285158,279130,287175,281143,628851.0,622823.0,630867.0,624835.0,32
4,0,0,0,1,18,test,1,0,z,Mon Mar 17 2025 16:02:57 GMT-0500 (Central Daylight Time),648790.8000000119,O,m,1141,33,1,131.bmp,-120,-120,132.bmp,120,-120,133.bmp,-120,120,134.bmp,120,120,9194.300000011921,639596.5,7085,yes,SM,A,134.bmp,120,120,285158,279130,287175,281143,638064.0,632036.0,640081.0,634049.0,33
2,0,1,0,0,18,test,1,0,z,Mon Mar 17 2025 16:02:57 GMT-0500 (Central Daylight Time),657638.2000000179,O,m,784,34,1,123.bmp,-120,-120,124.bmp,120,-120,125.bmp,-120,120,126.bmp,120,120,8844.300000011921,648793.900000006,7085,yes,SM,A,124.bmp,120,-120,285158,279130,287175,281143,647261.0,641233.0,649278.0,643247.0,34
4,0,0,0,1,19,test,1,1,m,Mon Mar 17 2025 16:02:57 GMT-0500 (Central Daylight Time),667101.900000006,O,m,1400,35,1,127.bmp,-120,-120,128.bmp,120,-120,129.bmp,-120,120,130.bmp,120,120,9460.59999999404,657641.3000000119,7085,no,SM,A,129.bmp,120,120,285158,279130,287175,281143,656109.0,650081.0,658125.0,652094.0,35
3,0,0,1,0,19,test,1,0,m,Mon Mar 17 2025 16:02:57 GMT-0500 (Central Daylight Time),676082.400000006,O,z,928,36,1,135.bmp,-120,-120,136.bmp,120,-120,137.bmp,-120,120,138.bmp,120,120,8977.0,667105.400000006,7085,no,SM,A,135.bmp,-120,120,285158,279130,287175,281143,665573.0,659545.0,667589.0,661557.0,36
1,1,0,0,0,20,test,1,1,m,Mon Mar 17 2025 16:02:57 GMT-0500 (Central Daylight Time),685146.3000000119,O,m,1013,37,1,139.bmp,-120,-120,140.bmp,120,-120,141.bmp,-120,120,142.bmp,120,120,9056.700000017881,676089.599999994,7085,no,SM,A,140.bmp,-120,-120,285158,279130,287175,281143,674554.0,668529.0,676569.0,670538.0,37
2,0,1,0,0,20,test,1,0,m,Mon Mar 17 2025 16:02:57 GMT-0500 (Central Daylight Time),694293.3000000119,O,z,1093,38,1,143.bmp,-120,-120,144.bmp,120,-120,145.bmp,-120,120,146.bmp,120,120,9143.800000011921,685149.5,7085,no,SM,A,145.bmp,120,-120,285158,279130,287175,281143,683617.0,677589.0,685633.0,679602.0,38
4,0,0,0,1,20,test,1,0,z,Mon Mar 17 2025 16:02:57 GMT-0500 (Central Daylight Time),703440.5,O,m,1090,39,1,147.bmp,-120,-120,148.bmp,120,-120,149.bmp,-120,120,150.bmp,120,120,9144.09999999404,694296.400000006,7085,yes,SM,A,150.bmp,120,120,285158,279130,287175,281143,692764.0,686736.0,694780.0,688749.0,39
3,0,0,1,0,21,test,1,1,m,Mon Mar 17 2025 16:02:57 GMT-0500 (Central Daylight Time),712872.0,O,m,1382,40,1,104.bmp,-120,-120,105.bmp,120,-120,106.bmp,-120,120,107.bmp,120,120,9428.59999999404,703443.400000006,7085,no,SM,A,105.bmp,-120,120,285158,279130,287175,281143,701911.0,695883.0,703927.0,697896.0,40
1,1,0,0,0,22,test,1,1,z,Mon Mar 17 2025 16:02:57 GMT-0500 (Central Daylight Time),722084.8000000119,O,z,1152,41,1,108.bmp,-120,-120,109.bmp,120,-120,110.bmp,-120,120,111.bmp,120,120,9209.5,712875.3000000119,7085,yes,SM,A,108.bmp,-120,-120,285158,279130,287175,281143,711341.0,705315.0,713358.0,707327.0,41
4,0,0,0,1,22,test,1,0,z,Mon Mar 17 2025 16:02:57 GMT-0500 (Central Daylight Time),731681.7000000179,O,m,1538,42,1,112.bmp,-120,-120,113.bmp,120,-120,114.bmp,-120,120,115.bmp,120,120,9593.800000011921,722087.900000006,7085,yes,SM,A,115.bmp,120,120,285158,279130,287175,281143,720555.0,714527.0,722572.0,716540.0,42
1,1,0,0,0,23,test,1,1,z,Mon Mar 17 2025 16:02:57 GMT-0500 (Central Daylight Time),741261.8000000119,O,z,1525,43,1,116.bmp,-120,-120,117.bmp,120,-120,118.bmp,-120,120,119.bmp,120,120,9576.90000000596,731684.900000006,7085,yes,SM,A,116.bmp,-120,-120,285158,279130,287175,281143,730152.0,724124.0,732169.0,726137.0,43
4,0,0,0,1,23,test,1,0,m,Mon Mar 17 2025 16:02:57 GMT-0500 (Central Daylight Time),750492.7000000179,O,z,1169,44,1,104.bmp,-120,-120,101.bmp,120,-120,102.bmp,-120,120,103.bmp,120,120,9227.90000000596,741264.8000000119,7085,no,SM,A,104.bmp,120,120,285158,279130,287175,281143,739733.0,733704.0,741749.0,735718.0,44
1,1,0,0,0,24,test,1,1,m,Mon Mar 17 2025 16:02:57 GMT-0500 (Central Daylight Time),759706.2000000179,O,m,1163,45,1,128.bmp,-120,-120,129.bmp,120,-120,130.bmp,-120,120,131.bmp,120,120,9210.100000023842,750496.099999994,7085,no,SM,A,131.bmp,-120,-120,285158,279130,287175,281143,748963.0,742935.0,750979.0,744948.0,45
1,1,0,0,0,24,test,1,0,m,Mon Mar 17 2025 16:02:57 GMT-0500 (Central Daylight Time),769103.3000000119,O,z,1340,46,1,120.bmp,-120,-120,121.bmp,120,-120,122.bmp,-120,120,123.bmp,120,120,9393.90000000596,759709.400000006,7085,no,SM,A,121.bmp,-120,-120,285158,279130,287175,281143,758177.0,752149.0,760193.0,754161.0,46
3,0,0,1,0,25,test,1,1,z,Mon Mar 17 2025 16:02:57 GMT-0500 (Central Daylight Time),778250.7000000179,O,z,1088,47,1,124.bmp,-120,-120,125.bmp,120,-120,126.bmp,-120,120,127.bmp,120,120,9143.90000000596,769106.8000000119,7085,yes,SM,A,126.bmp,-120,120,285158,279130,287175,281143,767574.0,761546.0,769590.0,763559.0,47
3,0,0,1,0,25,test,1,0,z,Mon Mar 17 2025 16:02:57 GMT-0500 (Central Daylight Time),788197.400000006,O,m,1892,48,1,140.bmp,-120,-120,141.bmp,120,-120,142.bmp,-120,120,143.bmp,120,120,9943.800000011921,778253.599999994,7085,yes,SM,A,142.bmp,-120,120,285158,279130,287175,281143,776721.0,770693.0,778738.0,772706.0,48
2,0,1,0,0,25,test,1,0,z,Mon Mar 17 2025 16:02:57 GMT-0500 (Central Daylight Time),797860.900000006,O,m,1602,49,1,136.bmp,-120,-120,137.bmp,120,-120,138.bmp,-120,120,139.bmp,120,120,9660.59999999404,788200.3000000119,7085,yes,SM,A,137.bmp,120,-120,285158,279130,287175,281143,786668.0,780640.0,788684.0,782653.0,49
3,0,0,1,0,25,test,1,0,m,Mon Mar 17 2025 16:02:57 GMT-0500 (Central Daylight Time),807924.599999994,O,None,2016,50,1,132.bmp,-120,-120,133.bmp,120,-120,134.bmp,-120,120,135.bmp,120,120,10060.59999999404,797864.0,7085,no,SM,A,132.bmp,-120,120,285158,279130,287175,281143,796332.0,790303.0,798348.0,792317.0,50
2,0,1,0,0,26,test,1,1,z,Mon Mar 17 2025 16:02:57 GMT-0500 (Central Daylight Time),817104.8000000119,O,z,1123,51,1,144.bmp,-120,-120,145.bmp,120,-120,146.bmp,-120,120,147.bmp,120,120,9177.300000011921,807927.5,7085,yes,SM,A,145.bmp,120,-120,285158,279130,287175,281143,806395.0,800367.0,808411.0,802380.0,51
4,0,0,0,1,27,test,1,1,m,Mon Mar 17 2025 16:02:57 GMT-0500 (Central Daylight Time),826218.900000006,O,m,1053,52,1,148.bmp,-120,-120,149.bmp,120,-120,150.bmp,-120,120,131.bmp,120,120,9111.09999999404,817107.8000000119,7085,no,SM,A,148.bmp,120,120,285158,279130,287175,281143,815576.0,809547.0,817592.0,811560.0,52
3,0,0,1,0,28,test,1,1,z,Mon Mar 17 2025 16:02:57 GMT-0500 (Central Daylight Time),835082.599999994,O,z,804,53,1,101.bmp,-120,-120,102.bmp,120,-120,103.bmp,-120,120,104.bmp,120,120,8860.5,826222.099999994,7085,yes,SM,A,103.bmp,-120,120,285158,279130,287175,281143,824690.0,818661.0,826706.0,820674.0,53
1,1,0,0,0,28,test,1,0,m,Mon Mar 17 2025 16:02:57 GMT-0500 (Central Daylight Time),845146.3000000119,O,None,2015,54,1,105.bmp,-120,-120,106.bmp,120,-120,107.bmp,-120,120,108.bmp,120,120,10060.800000011921,835085.5,7085,no,SM,A,107.bmp,-120,-120,285158,279130,287175,281143,833553.0,827525.0,835570.0,829538.0,54
4,0,0,0,1,29,test,1,1,z,Mon Mar 17 2025 16:02:57 GMT-0500 (Central Daylight Time),854776.3000000119,O,z,1522,55,1,109.bmp,-120,-120,110.bmp,120,-120,111.bmp,-120,120,112.bmp,120,120,9627.09999999404,845149.2000000179,7085,yes,SM,A,112.bmp,120,120,285158,279130,287175,281143,843683.0,837589.0,845684.0,839680.0,55
2,0,1,0,0,29,test,1,0,m,Mon Mar 17 2025 16:02:57 GMT-0500 (Central Daylight Time),863840.5,O,z,1007,56,1,113.bmp,-120,-120,114.bmp,120,-120,115.bmp,-120,120,116.bmp,120,120,9061.40000000596,854779.099999994,7085,no,SM,A,113.bmp,120,-120,285158,279130,287175,281143,853247.0,847218.0,855263.0,849232.0,56
4,0,0,0,1,30,test,1,1,m,Mon Mar 17 2025 16:02:57 GMT-0500 (Central Daylight Time),873070.8000000119,O,m,1167,57,1,117.bmp,-120,-120,118.bmp,120,-120,119.bmp,-120,120,120.bmp,120,120,9227.59999999404,863843.2000000179,7085,no,SM,A,118.bmp,120,120,285158,279130,287175,281143,862311.0,856282.0,864327.0,858296.0,57
3,0,0,1,0,30,test,1,0,z,Mon Mar 17 2025 16:02:57 GMT-0500 (Central Daylight Time),882850.900000006,O,m,1727,58,1,121.bmp,-120,-120,122.bmp,120,-120,123.bmp,-120,120,124.bmp,120,120,9776.699999988079,873074.2000000179,7085,yes,SM,A,123.bmp,-120,120,285158,279130,287175,281143,871541.0,865513.0,873558.0,867526.0,58
2,0,1,0,0,30,test,1,0,m,Mon Mar 17 2025 16:02:57 GMT-0500 (Central Daylight Time),892914.599999994,O,None,2016,59,1,125.bmp,-120,-120,126.bmp,120,-120,127.bmp,-120,120,128.bmp,120,120,10060.59999999404,882854.0,7085,no,SM,A,128.bmp,120,-120,285158,279130,287175,281143,881322.0,875293.0,883338.0,877306.0,59
1,1,0,0,0,31,test,1,1,z,Mon Mar 17 2025 16:02:57 GMT-0500 (Central Daylight Time),901661.8000000119,O,z,683,60,1,129.bmp,-120,-120,130.bmp,120,-120,131.bmp,-120,120,132.bmp,120,120,8743.5,892918.3000000119,7085,yes,SM,A,129.bmp,-120,-120,285158,279130,287175,281143,891385.0,885357.0,893402.0,887370.0,60
2,0,1,0,0,31,test,1,0,z,Mon Mar 17 2025 16:02:57 GMT-0500 (Central Daylight Time),910609.0,O,m,889,61,1,133.bmp,-120,-120,134.bmp,120,-120,135.bmp,-120,120,136.bmp,120,120,8938.799999982119,901670.2000000179,7085,yes,SM,A,134.bmp,120,-120,285158,279130,287175,281143,900133.0,894109.0,902149.0,896117.0,61
4,0,0,0,1,32,test,1,1,z,Mon Mar 17 2025 16:02:57 GMT-0500 (Central Daylight Time),919672.900000006,O,z,1006,62,1,141.bmp,-120,-120,142.bmp,120,-120,143.bmp,-120,120,144.bmp,120,120,9060.199999988079,910612.7000000179,7085,yes,SM,A,144.bmp,120,120,285158,279130,287175,281143,909080.0,903052.0,911096.0,905064.0,62
1,1,0,0,0,32,test,1,0,m,Mon Mar 17 2025 16:02:57 GMT-0500 (Central Daylight Time),928653.5,O,z,926,63,1,145.bmp,-120,-120,146.bmp,120,-120,147.bmp,-120,120,148.bmp,120,120,8977.5,919676.0,7085,no,SM,A,145.bmp,-120,120,285158,279130,287175,281143,918143.0,912115.0,920160.0,914128.0,63
2,0,1,0,0,32,test,1,0,z,Mon Mar 17 2025 16:02:57 GMT-0500 (Central Daylight Time),937850.5,O,m,1146,64,1,149.bmp,-120,-120,150.bmp,120,-120,112.bmp,-120,120,101.bmp,120,120,9193.90000000596,928656.599999994,7085,yes,SM,A,150.bmp,120,-120,285158,279130,287175,281143,927124.0,921096.0,929140.0,923109.0,64
4,0,0,0,1,33,test,1,1,m,Mon Mar 17 2025 16:02:57 GMT-0500 (Central Daylight Time),946747.8000000119,O,m,845,65,1,102.bmp,-120,-120,103.bmp,120,-120,104.bmp,-120,120,105.bmp,120,120,8894.09999999404,937853.7000000179,7085,no,SM,A,104.bmp,120,120,285158,279130,287175,281143,936321.0,930293.0,938337.0,932306.0,65
3,0,0,1,0,34,test,1,1,m,Mon Mar 17 2025 16:02:57 GMT-0500 (Central Daylight Time),956044.7000000179,O,m,1236,66,1,106.bmp,-120,-120,107.bmp,120,-120,108.bmp,-120,120,109.bmp,120,120,9294.200000017881,946750.5,7085,no,SM,A,109.bmp,-120,120,285158,279130,287175,281143,945218.0,939190.0,947234.0,941204.0,66
2,0,1,0,0,34,test,1,0,m,Mon Mar 17 2025 16:02:57 GMT-0500 (Central Daylight Time),965125.2000000179,O,z,1017,67,1,137.bmp,-120,-120,138.bmp,120,-120,139.bmp,-120,120,140.bmp,120,120,9077.200000017881,956048.0,7085,no,SM,A,139.bmp,120,-120,285158,279130,287175,281143,954516.0,948487.0,956532.0,950500.0,67
3,0,0,1,0,35,test,1,1,z,Mon Mar 17 2025 16:02:57 GMT-0500 (Central Daylight Time),974089.2000000179,O,z,914,68,1,110.bmp,-120,-120,111.bmp,120,-120,112.bmp,-120,120,113.bmp,120,120,8961.0,965128.2000000179,7085,yes,SM,A,112.bmp,-120,120,285158,279130,287175,281143,963596.0,957567.0,965612.0,959581.0,68
1,1,0,0,0,35,test,1,0,m,Mon Mar 17 2025 16:02:57 GMT-0500 (Central Daylight Time),983119.400000006,O,z,981,69,1,114.bmp,-120,-120,115.bmp,120,-120,116.bmp,-120,120,117.bmp,120,120,9027.199999988079,974092.2000000179,7085,no,SM,A,115.bmp,-120,-120,285158,279130,287175,281143,972560.0,966531.0,974576.0,968545.0,69
2,0,1,0,0,36,test,1,1,m,Mon Mar 17 2025 16:02:57 GMT-0500 (Central Daylight Time),992283.599999994,O,m,1127,70,1,118.bmp,-120,-120,119.bmp,120,-120,120.bmp,-120,120,121.bmp,120,120,9161.299999982119,983122.3000000119,7085,no,SM,A,120.bmp,120,-120,285158,279130,287175,281143,981590.0,975561.0,983591.0,977575.0,70
4,0,0,0,1,36,test,1,0,z,Mon Mar 17 2025 16:02:57 GMT-0500 (Central Daylight Time),1001447.099999994,O,m,1116,71,1,122.bmp,-120,-120,123.bmp,120,-120,124.bmp,-120,120,125.bmp,120,120,9160.0,992287.099999994,7085,yes,SM,A,125.bmp,120,120,285158,279130,287175,281143,990754.0,984726.0,992770.0,986739.0,71
1,1,0,0,0,36,test,1,0,z,Mon Mar 17 2025 16:02:57 GMT-0500 (Central Daylight Time),1010661.099999994,O,m,1159,72,1,126.bmp,-120,-120,127.bmp,120,-120,128.bmp,-120,120,129.bmp,120,120,9211.09999999404,1001450.0,7085,yes,SM,A,126.bmp,-120,-120,285158,279130,287175,281143,999918.0,993889.0,1001934.0,995903.0,72
2,0,1,0,0,36,test,1,0,z,Mon Mar 17 2025 16:02:57 GMT-0500 (Central Daylight Time),1019891.7000000179,O,m,1178,73,1,130.bmp,-120,-120,131.bmp,120,-120,132.bmp,-120,120,133.bmp,120,120,9227.600000023842,1010664.099999994,7085,yes,SM,A,131.bmp,120,-120,285158,279130,287175,281143,1009132.0,1003103.0,1011148.0,1005117.0,73
4,0,0,0,1,36,test,1,0,m,Mon Mar 17 2025 16:02:57 GMT-0500 (Central Daylight Time),1028605.400000006,O,z,660,74,1,134.bmp,-120,-120,135.bmp,120,-120,136.bmp,-120,120,137.bmp,120,120,8710.800000011921,1019894.599999994,7085,no,SM,A,136.bmp,120,120,285158,279130,287175,281143,1018362.0,1012334.0,1020378.0,1014347.0,74
2,0,1,0,0,36,test,1,0,m,Mon Mar 17 2025 16:02:57 GMT-0500 (Central Daylight Time),1037935.900000006,O,z,1274,75,1,138.bmp,-120,-120,139.bmp,120,-120,140.bmp,-120,120,141.bmp,120,120,9327.199999988079,1028608.7000000179,7085,no,SM,A,141.bmp,120,-120,285158,279130,287175,281143,1027076.0,1021048.0,1029092.0,1023061.0,75
1,1,0,0,0,36,test,1,0,z,Mon Mar 17 2025 16:02:57 GMT-0500 (Central Daylight Time),1047099.599999994,O,m,1111,76,1,142.bmp,-120,-120,143.bmp,120,-120,144.bmp,-120,120,145.bmp,120,120,9161.0,1037938.599999994,7085,yes,SM,A,142.bmp,-120,-120,285158,279130,287175,281143,1036406.0,1030378.0,1038423.0,1032391.0,76
3,0,0,1,0,37,test,1,1,z,Mon Mar 17 2025 16:02:57 GMT-0500 (Central Daylight Time),1056146.900000006,O,z,995,77,1,150.bmp,-120,-120,111.bmp,120,-120,101.bmp,-120,120,102.bmp,120,120,9044.199999988079,1047102.7000000179,7085,yes,SM,A,101.bmp,-120,120,285158,279130,287175,281143,1045570.0,1039542.0,1047587.0,1041555.0,77
1,1,0,0,0,37,test,1,0,m,Mon Mar 17 2025 16:02:57 GMT-0500 (Central Daylight Time),1065076.900000006,O,z,875,78,1,146.bmp,-120,-120,147.bmp,120,-120,148.bmp,-120,120,149.bmp,120,120,8927.0,1056149.900000006,7085,no,SM,A,147.bmp,-120,-120,285158,279130,287175,281143,1054618.0,1048589.0,1056634.0,1050602.0,78
4,0,0,0,1,37,test,1,0,m,Mon Mar 17 2025 16:02:57 GMT-0500 (Central Daylight Time),1073924.7000000179,O,z,786,79,1,107.bmp,-120,-120,108.bmp,120,-120,109.bmp,-120,120,110.bmp,120,120,8844.40000000596,1065080.300000012,7085,no,SM,A,107.bmp,120,120,285158,279130,287175,281143,1063548.0,1057520.0,1065564.0,1059532.0,79
3,0,0,1,0,38,test,1,1,m,Mon Mar 17 2025 16:02:57 GMT-0500 (Central Daylight Time),1082905.099999994,O,m,929,80,1,103.bmp,-120,-120,104.bmp,120,-120,105.bmp,-120,120,106.bmp,120,120,8977.399999976158,1073927.7000000179,7085,no,SM,A,106.bmp,-120,120,285158,279130,287175,281143,1072395.0,1066367.0,1074412.0,1068380.0,80
