acc_sum,block,block_c,condition,correct,correct_response,datetime,endtime,flanker,jitter,project,response,response_test_buffer_response,response_test_target_response,response_time,response_time_test_buffer_response,response_time_test_target_response,row_sel,session_number,start_end,starttime,subject_id,target,task,task_vers,time_test_buffer,time_test_buffer_response,time_test_constants,time_test_flanker,time_test_jitter,time_test_logger,time_test_target,time_test_target_response,time_test_variables,trial
1,prac,1,inc,1,m,Fri Feb 28 2025 17:41:51 GMT-0600 (Central Standard Time),174421.30000001192,kind,900,O,m,,,1513,,,2,1,3710.899999976158,170710.40000003576,7064,rock,AF,A,,,,,,,,,,1
2,prac,1,inc,1,z,Fri Feb 28 2025 17:41:51 GMT-0600 (Central Standard Time),177421.30000001192,rock,900,O,z,,,801,,,10,1,2990.099999964237,174431.20000004768,7064,kind,AF,A,,,,,,,,,,2
3,prac,1,inc,1,z,Fri Feb 28 2025 17:41:51 GMT-0600 (Central Standard Time),180536.20000004768,window,1100,O,z,,,718,,,16,1,3108.600000023842,177427.60000002384,7064,temper,AF,A,,,,,,,,,,3
4,prac,1,con,1,m,Fri Feb 28 2025 17:41:51 GMT-0600 (Central Standard Time),183618.80000001192,bell,1000,O,m,,,773,,,3,1,3075.300000011921,180543.5,7064,bell,AF,A,,,,,,,,,,4
4,prac,1,con,0,z,Fri Feb 28 2025 17:41:51 GMT-0600 (Central Standard Time),186536.30000001192,brutal,800,O,m,,,804,,,13,1,2912.099999964237,183624.20000004768,7064,brutal,AF,A,,,,,,,,,,5
5,prac,1,inc,1,m,Fri Feb 28 2025 17:41:51 GMT-0600 (Central Standard Time),189765.90000003576,brutal,1100,O,m,,,831,,,8,1,3223.900000035763,186542.0,7064,window,AF,A,,,,,,,,,,6
6,prac,1,con,1,z,Fri Feb 28 2025 17:41:51 GMT-0600 (Central Standard Time),192699.5,rage,1000,O,z,,,625,,,15,1,2927.899999976158,189771.60000002384,7064,rage,AF,A,,,,,,,,,,7
7,prac,1,inc,1,m,Fri Feb 28 2025 17:41:51 GMT-0600 (Central Standard Time),195665.20000004768,elated,900,O,m,,,750,,,6,1,2959.900000035763,192705.30000001192,7064,napkin,AF,A,,,,,,,,,,8
7,prac,1,inc,0,z,Fri Feb 28 2025 17:41:51 GMT-0600 (Central Standard Time),198764.80000001192,napkin,1100,O,m,,,699,,,12,1,3092.800000011921,195672.0,7064,friend,AF,A,,,,,,,,,,9
8,prac,1,con,1,m,Fri Feb 28 2025 17:41:51 GMT-0600 (Central Standard Time),201512.30000001192,jacket,800,O,m,,,651,,,5,1,2740.699999988079,198771.60000002384,7064,jacket,AF,A,,,,,,,,,,10
9,prac,1,con,1,z,Fri Feb 28 2025 17:41:51 GMT-0600 (Central Standard Time),204412.0,love,1000,O,z,,,597,,,11,1,2893.399999976158,201518.60000002384,7064,love,AF,A,,,,,,,,,,11
10,prac,1,inc,1,m,Fri Feb 28 2025 17:41:51 GMT-0600 (Central Standard Time),207528.30000001192,hate,1100,O,m,,,712,,,4,1,3108.099999964237,204420.20000004768,7064,film,AF,A,,,,,,,,,,12
11,prac,1,con,1,z,Fri Feb 28 2025 17:41:51 GMT-0600 (Central Standard Time),210310.5,elated,800,O,z,,,670,,,9,1,2774.899999976158,207535.60000002384,7064,elated,AF,A,,,,,,,,,,13
12,prac,1,inc,1,z,Fri Feb 28 2025 17:41:51 GMT-0600 (Central Standard Time),213226.40000003576,film,900,O,z,,,717,,,14,1,2907.800000011921,210318.60000002384,7064,hate,AF,A,,,,,,,,,,14
13,prac,1,con,1,m,Fri Feb 28 2025 17:41:51 GMT-0600 (Central Standard Time),216307.70000004768,remote,1000,O,m,,,795,,,7,1,3075.400000035763,213232.30000001192,7064,remote,AF,A,,,,,,,,,,15
14,prac,1,con,1,m,Fri Feb 28 2025 17:41:51 GMT-0600 (Central Standard Time),219158.20000004768,step,800,O,m,,,745,,,1,1,2841.800000011921,216316.40000003576,7064,step,AF,A,,,,,,,,,,16
0,test,1,inc,0,z,Fri Feb 28 2025 17:41:51 GMT-0600 (Central Standard Time),239550.90000003576,step,800,O,m,m,None,504,288.0,216.0,53,1,1842.9000000357628,237708.0,7064,rage,AF,A,237182,237183,235639,236450,235639,237482,236966,236966,237482,1
1,test,1,inc,1,m,Fri Feb 28 2025 17:41:51 GMT-0600 (Central Standard Time),241817.5,friend,1100,O,m,m,None,628,428.0,200.0,128,1,2261.5,239556.0,7064,window,AF,A,239315,239315,237487,238599,237487,239749,239115,239115,239748,2
2,test,1,inc,1,z,Fri Feb 28 2025 17:41:51 GMT-0600 (Central Standard Time),243948.80000001192,bell,1000,O,z,z,None,588,389.0,199.0,47,1,2125.800000011921,241823.0,7064,hate,AF,A,241482,241482,239754,240765,239754,241880,241282,241282,241880,3
3,test,1,inc,1,m,Fri Feb 28 2025 17:41:51 GMT-0600 (Central Standard Time),246031.80000001192,rage,800,O,m,m,None,736,537.0,199.0,77,1,2077.300000011921,243954.5,7064,rock,AF,A,243414,243414,241886,242697,241886,243963,243215,243215,243963,4
4,test,1,inc,1,z,Fri Feb 28 2025 17:41:51 GMT-0600 (Central Standard Time),248414.10000002384,window,1100,O,z,z,None,739,540.0,199.0,8,1,2377.399999976158,246036.70000004768,7064,elated,AF,A,245796,245796,243968,245080,243968,246345,245597,245597,246345,5
5,test,1,inc,1,z,Fri Feb 28 2025 17:41:51 GMT-0600 (Central Standard Time),250781.10000002384,window,1100,O,z,z,None,724,524.0,200.0,40,1,2363.5,248417.60000002384,7064,brutal,AF,A,248179,248179,246349,247463,246349,248712,247979,247979,248712,6
6,test,1,inc,1,z,Fri Feb 28 2025 17:41:51 GMT-0600 (Central Standard Time),253263.10000002384,remote,1000,O,z,z,None,948,749.0,199.0,31,1,2476.899999976158,250786.20000004768,7064,friend,AF,A,250445,250445,248717,249728,248718,251194,250245,250245,251194,7
7,test,1,inc,1,m,Fri Feb 28 2025 17:41:51 GMT-0600 (Central Standard Time),255645.40000003576,hate,1100,O,m,m,None,746,531.0,215.0,72,1,2375.600000023842,253269.80000001192,7064,step,AF,A,253044,253044,251201,252310,251201,253577,252828,252828,253576,8
8,test,1,inc,1,z,Fri Feb 28 2025 17:41:51 GMT-0600 (Central Standard Time),257827.5,rock,900,O,z,z,None,742,543.0,199.0,54,1,2175.399999976158,255652.10000002384,7064,rage,AF,A,255209,255209,253583,254493,253583,255759,255010,255010,255759,9
9,test,1,con,1,z,Fri Feb 28 2025 17:41:51 GMT-0600 (Central Standard Time),259760.5,love,800,O,z,z,None,585,384.0,201.0,17,1,1928.5,257832.0,7064,love,AF,A,257295,257295,255763,256577,255763,257692,257093,257093,257692,10
10,test,1,con,1,z,Fri Feb 28 2025 17:41:51 GMT-0600 (Central Standard Time),262078.10000002384,elated,1000,O,z,z,None,782,568.0,214.0,3,1,2312.0,259766.10000002384,7064,elated,AF,A,259441,259441,257697,258709,257697,260009,259226,259226,260009,11
11,test,1,con,1,z,Fri Feb 28 2025 17:41:51 GMT-0600 (Central Standard Time),264458.7000000477,brutal,1000,O,z,z,None,842,640.0,202.0,35,1,2375.400000035763,262083.30000001192,7064,brutal,AF,A,261743,261743,260014,261025,260015,262390,261540,261540,262390,12
12,test,1,inc,1,z,Fri Feb 28 2025 17:41:51 GMT-0600 (Central Standard Time),266607.90000003576,jacket,800,O,z,z,None,810,610.0,200.0,5,1,2144.300000011921,264463.60000002384,7064,elated,AF,A,263924,263925,262395,263208,262395,264539,263724,263724,264539,13
13,test,1,inc,1,z,Fri Feb 28 2025 17:41:51 GMT-0600 (Central Standard Time),268841.0,napkin,900,O,z,z,None,786,587.0,199.0,38,1,2228.099999964237,266612.90000003576,7064,brutal,AF,A,266172,266172,264544,265456,264544,266772,265973,265973,266772,14
14,test,1,con,1,z,Fri Feb 28 2025 17:41:51 GMT-0600 (Central Standard Time),271039.0,temper,800,O,z,z,None,861,661.0,200.0,57,1,2192.399999976158,268846.60000002384,7064,temper,AF,A,268305,268306,266778,267589,266778,268970,268105,268105,268970,15
15,test,1,inc,1,m,Fri Feb 28 2025 17:41:51 GMT-0600 (Central Standard Time),273289.5,temper,1000,O,m,m,None,717,518.0,199.0,111,1,2244.699999988079,271044.8000000119,7064,napkin,AF,A,270689,270689,268976,269987,268976,271221,270489,270489,271220,16
16,test,1,inc,1,z,Fri Feb 28 2025 17:41:51 GMT-0600 (Central Standard Time),275670.90000003576,film,1100,O,z,z,None,744,544.0,200.0,24,1,2376.0,273294.90000003576,7064,love,AF,A,273055,273055,271226,272338,271226,273602,272854,272854,273602,17
17,test,1,con,1,m,Fri Feb 28 2025 17:41:51 GMT-0600 (Central Standard Time),278120.7000000477,film,1100,O,m,m,None,823,611.0,212.0,92,1,2444.600000023842,275676.10000002384,7064,film,AF,A,275437,275437,273607,274720,273607,276052,275225,275225,276052,18
18,test,1,inc,1,m,Fri Feb 28 2025 17:41:51 GMT-0600 (Central Standard Time),280434.7000000477,brutal,900,O,m,m,None,870,671.0,199.0,110,1,2310.2000000476837,278124.5,7064,napkin,AF,A,277687,277687,276056,276969,276056,278366,277487,277487,278366,19
19,test,1,inc,1,m,Fri Feb 28 2025 17:41:51 GMT-0600 (Central Standard Time),282586.90000003576,elated,800,O,m,m,None,801,601.0,200.0,101,1,2149.400000035763,280437.5,7064,jacket,AF,A,279902,279902,278369,279186,278369,280518,279702,279702,280518,20
20,test,1,con,1,m,Fri Feb 28 2025 17:41:51 GMT-0600 (Central Standard Time),285035.0,rock,1000,O,m,m,None,908,694.0,214.0,75,1,2442.899999976158,282592.10000002384,7064,rock,AF,A,282265,282265,280523,281535,280523,282966,282051,282051,282966,21
21,test,1,inc,1,z,Fri Feb 28 2025 17:41:51 GMT-0600 (Central Standard Time),286935.8000000119,step,800,O,z,z,None,564,365.0,199.0,45,1,1894.8999999761581,285040.90000003576,7064,hate,AF,A,284500,284500,282972,283784,282972,284867,284300,284300,284867,22
22,test,1,inc,1,z,Fri Feb 28 2025 17:41:51 GMT-0600 (Central Standard Time),289270.0,film,1100,O,z,z,None,702,502.0,200.0,48,1,2328.399999976158,286941.60000002384,7064,hate,AF,A,286699,286699,284873,285984,284873,287201,286499,286499,287201,23
23,test,1,con,1,z,Fri Feb 28 2025 17:41:51 GMT-0600 (Central Standard Time),291885.60000002384,elated,900,O,z,z,None,1182,983.0,199.0,2,1,2610.100000023842,289275.5,7064,elated,AF,A,288832,288833,287207,288116,287207,289817,288633,288633,289817,24
24,test,1,inc,1,m,Fri Feb 28 2025 17:41:51 GMT-0600 (Central Standard Time),294266.5,love,1000,O,m,m,None,835,635.0,200.0,71,1,2375.599999964237,291890.90000003576,7064,step,AF,A,291549,291549,289822,290832,289822,292198,291348,291348,292198,25
25,test,1,inc,1,z,Fri Feb 28 2025 17:41:51 GMT-0600 (Central Standard Time),296814.5,napkin,900,O,z,z,None,1113,913.0,200.0,6,1,2543.0,294271.5,7064,elated,AF,A,293832,293832,292203,293114,292203,294746,293631,293631,294745,26
26,test,1,con,1,z,Fri Feb 28 2025 17:41:51 GMT-0600 (Central Standard Time),299399.5,brutal,800,O,z,z,None,1264,1050.0,214.0,33,1,2580.399999976158,296819.10000002384,7064,brutal,AF,A,296280,296280,294750,295563,294751,297331,296066,296066,297331,27
27,test,1,con,1,z,Fri Feb 28 2025 17:41:51 GMT-0600 (Central Standard Time),301913.8000000119,kind,1000,O,z,z,None,974,759.0,215.0,11,1,2508.399999976158,299405.40000003576,7064,kind,AF,A,299080,299080,297336,298345,297337,299845,298864,298864,299845,28
28,test,1,con,1,m,Fri Feb 28 2025 17:41:51 GMT-0600 (Central Standard Time),304447.40000003576,step,1000,O,m,m,None,996,780.0,216.0,67,1,2529.100000023842,301918.3000000119,7064,step,AF,A,301596,301596,299849,300862,299850,302378,301379,301379,302378,29
29,test,1,con,1,z,Fri Feb 28 2025 17:41:51 GMT-0600 (Central Standard Time),306996.60000002384,temper,1000,O,z,z,None,1015,800.0,215.0,59,1,2543.5,304453.10000002384,7064,temper,AF,A,304127,304127,302384,303394,302384,304928,303912,303912,304928,30
30,test,1,con,1,z,Fri Feb 28 2025 17:41:51 GMT-0600 (Central Standard Time),309631.3000000119,rage,1100,O,z,z,None,1000,785.0,215.0,52,1,2629.899999976158,307001.40000003576,7064,rage,AF,A,306777,306777,304932,306043,304933,307562,306561,306561,307562,31
31,test,1,con,1,z,Fri Feb 28 2025 17:41:51 GMT-0600 (Central Standard Time),312344.40000003576,brutal,1100,O,z,z,None,1075,861.0,214.0,36,1,2707.600000023842,309636.8000000119,7064,brutal,AF,A,309410,309410,307568,308676,307568,310275,309195,309195,310275,32
32,test,1,inc,1,z,Fri Feb 28 2025 17:41:51 GMT-0600 (Central Standard Time),314526.90000003576,bell,1000,O,z,z,None,648,448.0,200.0,23,1,2177.600000023842,312349.3000000119,7064,love,AF,A,312009,312009,310280,311291,310281,312458,311808,311808,312458,33
33,test,1,inc,1,m,Fri Feb 28 2025 17:41:51 GMT-0600 (Central Standard Time),316711.3000000119,elated,800,O,m,m,None,850,650.0,200.0,109,1,2179.699999988079,314531.60000002384,7064,napkin,AF,A,313992,313992,312463,313275,312463,314642,313791,313791,314642,34
34,test,1,inc,1,m,Fri Feb 28 2025 17:41:51 GMT-0600 (Central Standard Time),318892.60000002384,rage,800,O,m,m,None,840,641.0,199.0,85,1,2177.300000011921,316715.3000000119,7064,bell,AF,A,316174,316174,314646,315459,314647,316824,315974,315974,316824,35
35,test,1,con,1,z,Fri Feb 28 2025 17:41:51 GMT-0600 (Central Standard Time),321057.3000000119,rage,900,O,z,z,None,726,510.0,216.0,50,1,2161.5,318895.8000000119,7064,rage,AF,A,318473,318473,316827,317740,316827,318988,318257,318257,318988,36
36,test,1,inc,1,m,Fri Feb 28 2025 17:41:51 GMT-0600 (Central Standard Time),323457.2000000477,elated,800,O,m,m,None,1062,863.0,199.0,125,1,2394.2000000476837,321063.0,7064,window,AF,A,320521,320521,318994,319805,318995,321388,320322,320322,321388,37
37,test,1,con,1,m,Fri Feb 28 2025 17:41:51 GMT-0600 (Central Standard Time),326541.0,bell,1100,O,m,m,None,1434,1234.0,200.0,84,1,3078.7999999523163,323462.2000000477,7064,bell,AF,A,323222,323222,321393,322506,321393,324472,323022,323022,324472,38
38,test,1,con,1,z,Fri Feb 28 2025 17:41:51 GMT-0600 (Central Standard Time),328439.3000000119,elated,800,O,z,z,None,565,366.0,199.0,1,1,1893.5999999642372,326545.7000000477,7064,elated,AF,A,326004,326004,324477,325288,324477,326370,325804,325804,326370,39
39,test,1,inc,1,z,Fri Feb 28 2025 17:41:51 GMT-0600 (Central Standard Time),330521.40000003576,step,800,O,z,z,None,758,543.0,215.0,21,1,2076.600000023842,328444.8000000119,7064,love,AF,A,327904,327904,326376,327186,326376,328452,327688,327688,328452,40
40,test,1,inc,1,m,Fri Feb 28 2025 17:41:51 GMT-0600 (Central Standard Time),332670.8000000119,brutal,900,O,m,m,None,698,484.0,214.0,102,1,2144.300000011921,330526.5,7064,jacket,AF,A,330103,330103,328458,329372,328458,330602,329888,329888,330602,41
41,test,1,inc,1,m,Fri Feb 28 2025 17:41:51 GMT-0600 (Central Standard Time),335021.3000000119,hate,1100,O,m,m,None,717,516.0,201.0,96,1,2344.899999976158,332676.40000003576,7064,film,AF,A,332436,332436,330607,331720,330608,332952,332235,332235,332952,42
42,test,1,con,1,z,Fri Feb 28 2025 17:41:51 GMT-0600 (Central Standard Time),337352.8000000119,hate,900,O,z,z,None,885,686.0,199.0,42,1,2326.199999988079,335026.60000002384,7064,hate,AF,A,334586,334586,332958,333870,332958,335284,334386,334386,335284,43
43,test,1,inc,1,m,Fri Feb 28 2025 17:41:51 GMT-0600 (Central Standard Time),339403.7000000477,kind,900,O,m,m,None,610,409.0,201.0,86,1,2045.800000011921,337357.90000003576,7064,bell,AF,A,336917,336918,335289,336201,335289,337335,336716,336716,337335,44
44,test,1,con,1,z,Fri Feb 28 2025 17:41:51 GMT-0600 (Central Standard Time),341767.5,brutal,900,O,z,z,None,927,710.0,217.0,34,1,2358.199999988079,339409.3000000119,7064,brutal,AF,A,338985,338985,337340,338251,337341,339699,338767,338767,339699,45
45,test,1,inc,1,z,Fri Feb 28 2025 17:41:51 GMT-0600 (Central Standard Time),344116.0,film,1100,O,z,z,None,706,505.0,201.0,56,1,2340.5,341775.5,7064,rage,AF,A,341534,341534,339707,340817,339707,342047,341332,341332,342047,46
46,test,1,con,1,m,Fri Feb 28 2025 17:41:51 GMT-0600 (Central Standard Time),346284.60000002384,rock,800,O,m,m,None,832,633.0,199.0,73,1,2163.0,344121.60000002384,7064,rock,AF,A,343582,343582,342053,342866,342053,344216,343382,343382,344216,47
47,test,1,inc,1,m,Fri Feb 28 2025 17:41:51 GMT-0600 (Central Standard Time),348381.7000000477,kind,900,O,m,m,None,662,463.0,199.0,70,1,2091.7000000476837,346290.0,7064,step,AF,A,345849,345849,344221,345132,344222,346313,345649,345649,346313,48
48,test,1,inc,1,m,Fri Feb 28 2025 17:41:51 GMT-0600 (Central Standard Time),350566.0,love,1000,O,m,m,None,648,449.0,199.0,95,1,2179.5,348386.5,7064,film,AF,A,348048,348048,346318,347330,346318,348497,347848,347848,348497,49
49,test,1,inc,1,z,Fri Feb 28 2025 17:41:51 GMT-0600 (Central Standard Time),352797.8000000119,step,800,O,z,z,None,905,689.0,216.0,13,1,2226.5,350571.3000000119,7064,kind,AF,A,350030,350030,348502,349313,348503,350729,349814,349814,350729,50
50,test,1,inc,1,z,Fri Feb 28 2025 17:41:51 GMT-0600 (Central Standard Time),354986.2000000477,rock,900,O,z,z,None,748,549.0,199.0,14,1,2183.800000011921,352802.40000003576,7064,kind,AF,A,352363,352363,350733,351647,350734,352917,352164,352164,352917,51
51,test,1,con,1,m,Fri Feb 28 2025 17:41:51 GMT-0600 (Central Standard Time),356929.5,step,800,O,m,m,None,609,410.0,199.0,65,1,1940.5999999642372,354988.90000003576,7064,step,AF,A,354445,354445,352920,353729,352920,354861,354246,354246,354861,52
52,test,1,inc,1,m,Fri Feb 28 2025 17:41:51 GMT-0600 (Central Standard Time),359663.40000003576,friend,1100,O,m,m,None,1099,899.0,200.0,120,1,2729.5,356933.90000003576,7064,remote,AF,A,356695,356695,354865,355976,354865,357595,356494,356494,357594,53
53,test,1,con,1,m,Fri Feb 28 2025 17:41:51 GMT-0600 (Central Standard Time),361928.7000000477,napkin,1100,O,m,m,None,619,418.0,201.0,108,1,2258.800000011921,359669.90000003576,7064,napkin,AF,A,359427,359428,357601,358710,357601,359860,359226,359226,359860,54
54,test,1,con,1,m,Fri Feb 28 2025 17:41:51 GMT-0600 (Central Standard Time),364310.10000002384,bell,900,O,m,m,None,945,730.0,215.0,82,1,2377.100000023842,361933.0,7064,bell,AF,A,361510,361510,359864,360777,359864,362241,361293,361294,362241,55
55,test,1,inc,1,m,Fri Feb 28 2025 17:41:51 GMT-0600 (Central Standard Time),366410.7000000477,kind,900,O,m,m,None,651,452.0,199.0,94,1,2094.7000000476837,364316.0,7064,film,AF,A,363875,363875,362247,363159,362247,364342,363676,363676,364342,56
56,test,1,con,1,m,Fri Feb 28 2025 17:41:51 GMT-0600 (Central Standard Time),368643.2000000477,window,800,O,m,m,None,883,668.0,215.0,121,1,2228.300000011921,366414.90000003576,7064,window,AF,A,365891,365891,364346,365158,364346,366574,365676,365676,366574,57
57,test,1,inc,1,m,Fri Feb 28 2025 17:41:51 GMT-0600 (Central Standard Time),370841.90000003576,temper,1000,O,m,m,None,650,451.0,199.0,103,1,2194.100000023842,368647.8000000119,7064,jacket,AF,A,368306,368307,366579,367591,366579,368773,368107,368107,368773,58
58,test,1,con,1,m,Fri Feb 28 2025 17:41:51 GMT-0600 (Central Standard Time),373059.0,jacket,1000,O,m,m,None,677,477.0,200.0,99,1,2212.199999988079,370846.8000000119,7064,jacket,AF,A,370506,370506,368778,369790,368778,370990,370306,370306,370990,59
59,test,1,inc,1,z,Fri Feb 28 2025 17:41:51 GMT-0600 (Central Standard Time),375257.3000000119,napkin,900,O,z,z,None,751,537.0,214.0,62,1,2194.399999976158,373062.90000003576,7064,temper,AF,A,372638,372638,370994,371906,370994,373188,372424,372424,373188,60
60,test,1,con,1,m,Fri Feb 28 2025 17:41:51 GMT-0600 (Central Standard Time),377273.60000002384,napkin,800,O,m,m,None,668,469.0,199.0,105,1,2011.800000011921,375261.8000000119,7064,napkin,AF,A,374722,374722,373193,374006,373193,375205,374522,374522,375205,61
61,test,1,con,1,m,Fri Feb 28 2025 17:41:51 GMT-0600 (Central Standard Time),379672.5,jacket,800,O,m,m,None,1062,861.0,201.0,97,1,2394.899999976158,377277.60000002384,7064,jacket,AF,A,376738,376738,375209,376022,375209,377604,376537,376537,377603,62
62,test,1,inc,1,z,Fri Feb 28 2025 17:41:51 GMT-0600 (Central Standard Time),382137.90000003576,film,1100,O,z,z,None,829,629.0,200.0,16,1,2461.100000023842,379676.8000000119,7064,kind,AF,A,379435,379435,377608,378718,377608,380069,379235,379235,380069,63
63,test,1,con,1,z,Fri Feb 28 2025 17:41:51 GMT-0600 (Central Standard Time),384687.60000002384,rage,1000,O,z,z,None,1020,821.0,199.0,51,1,2545.5,382142.10000002384,7064,rage,AF,A,381786,381786,380073,381084,380073,382619,381587,381587,382619,64
64,test,1,inc,1,z,Fri Feb 28 2025 17:41:51 GMT-0600 (Central Standard Time),386936.40000003576,remote,1000,O,z,z,None,702,503.0,199.0,7,1,2244.199999988079,384692.2000000477,7064,elated,AF,A,384352,384352,382623,383636,382623,384867,384153,384153,384867,65
65,test,1,con,1,m,Fri Feb 28 2025 17:41:51 GMT-0600 (Central Standard Time),389269.2000000477,film,800,O,m,m,None,1005,789.0,216.0,89,1,2328.5,386940.7000000477,7064,film,AF,A,386402,386402,384872,385685,384872,387200,386186,386186,387200,66
66,test,1,inc,1,z,Fri Feb 28 2025 17:41:51 GMT-0600 (Central Standard Time),391734.8000000119,remote,1000,O,z,z,None,932,732.0,200.0,39,1,2459.899999976158,389274.90000003576,7064,brutal,AF,A,388934,388934,387206,388217,387206,389666,388734,388734,389666,67
67,test,1,inc,1,m,Fri Feb 28 2025 17:41:51 GMT-0600 (Central Standard Time),394134.60000002384,temper,1000,O,m,m,None,853,639.0,214.0,119,1,2395.699999988079,391738.90000003576,7064,remote,AF,A,391416,391416,389670,390684,389670,392066,391202,391202,392066,68
68,test,1,con,1,m,Fri Feb 28 2025 17:41:51 GMT-0600 (Central Standard Time),396500.5,window,900,O,m,m,None,923,706.0,217.0,122,1,2360.5,394140.0,7064,window,AF,A,393717,393717,392071,392983,392071,394432,393499,393499,394432,69
68,test,1,inc,0,z,Fri Feb 28 2025 17:41:51 GMT-0600 (Central Standard Time),398899.8000000119,jacket,800,O,m,m,None,1059,860.0,199.0,29,1,2395.199999988079,396504.60000002384,7064,friend,AF,A,395964,395964,394436,395249,394436,396831,395765,395765,396831,70
69,test,1,inc,1,m,Fri Feb 28 2025 17:41:51 GMT-0600 (Central Standard Time),401316.5,friend,1100,O,m,m,None,775,573.0,202.0,104,1,2412.5,398904.0,7064,jacket,AF,A,398666,398666,396835,397948,396835,399248,398464,398464,399248,71
70,test,1,con,1,m,Fri Feb 28 2025 17:41:51 GMT-0600 (Central Standard Time),403332.7000000477,step,900,O,m,m,None,581,382.0,199.0,66,1,2012.0,401320.7000000477,7064,step,AF,A,400881,400881,399252,400164,399252,401264,400681,400681,401264,72
71,test,1,inc,1,m,Fri Feb 28 2025 17:41:51 GMT-0600 (Central Standard Time),405564.0,rage,800,O,m,m,None,890,691.0,199.0,93,1,2226.399999976158,403337.60000002384,7064,film,AF,A,402796,402796,401269,402080,401269,403495,402597,402597,403495,73
72,test,1,con,1,z,Fri Feb 28 2025 17:41:51 GMT-0600 (Central Standard Time),408113.7000000477,temper,1100,O,z,z,None,916,716.0,200.0,60,1,2543.800000011921,405569.90000003576,7064,temper,AF,A,405314,405314,403501,404611,403502,406045,405113,405113,406045,74
73,test,1,inc,1,z,Fri Feb 28 2025 17:41:51 GMT-0600 (Central Standard Time),410145.60000002384,rock,900,O,z,z,None,585,385.0,200.0,22,1,2028.0,408117.60000002384,7064,love,AF,A,407678,407678,406049,406961,406049,408077,407478,407478,408077,75
73,test,1,inc,0,m,Fri Feb 28 2025 17:41:51 GMT-0600 (Central Standard Time),412630.0,elated,800,O,z,z,None,1139,924.0,215.0,117,1,2479.5,410150.5,7064,remote,AF,A,409627,409627,408082,408894,408082,410561,409411,409411,410561,76
74,test,1,con,1,m,Fri Feb 28 2025 17:41:51 GMT-0600 (Central Standard Time),414812.60000002384,film,900,O,m,m,None,747,534.0,213.0,90,1,2177.600000023842,412635.0,7064,film,AF,A,412209,412209,410566,411478,410566,412744,411995,411995,412744,77
74,test,1,con,0,z,Fri Feb 28 2025 17:41:51 GMT-0600 (Central Standard Time),417210.0,friend,900,O,m,m,None,975,758.0,217.0,26,1,2392.199999988079,414817.8000000119,7064,friend,AF,A,414377,414377,412749,413658,412749,415141,414159,414160,415141,78
75,test,1,con,1,m,Fri Feb 28 2025 17:41:51 GMT-0600 (Central Standard Time),419442.8000000119,window,1100,O,m,m,None,590,391.0,199.0,124,1,2227.399999976158,417215.40000003576,7064,window,AF,A,416976,416976,415146,416258,415147,417374,416776,416776,417374,79
76,test,1,con,1,z,Fri Feb 28 2025 17:41:51 GMT-0600 (Central Standard Time),421559.3000000119,rage,800,O,z,z,None,771,572.0,199.0,49,1,2111.699999988079,419447.60000002384,7064,rage,AF,A,418907,418907,417379,418191,417379,419490,418707,418707,419490,80
77,test,1,con,1,m,Fri Feb 28 2025 17:41:51 GMT-0600 (Central Standard Time),424008.0,napkin,1000,O,m,m,None,910,710.0,200.0,107,1,2443.699999988079,421564.3000000119,7064,napkin,AF,A,421225,421225,419495,420506,419496,421939,421024,421024,421939,81
77,test,1,con,0,z,Fri Feb 28 2025 17:41:51 GMT-0600 (Central Standard Time),426974.7000000477,friend,800,O,m,m,None,1622,1423.0,199.0,25,1,2961.2000000476837,424013.5,7064,friend,AF,A,423471,423472,421945,422756,421945,424906,423272,423272,424906,82
78,test,1,inc,1,z,Fri Feb 28 2025 17:41:51 GMT-0600 (Central Standard Time),429190.60000002384,remote,1000,O,z,z,None,681,464.0,217.0,63,1,2210.5,426980.10000002384,7064,temper,AF,A,426656,426657,424911,425923,424911,427122,426439,426439,427122,83
79,test,1,con,1,z,Fri Feb 28 2025 17:41:51 GMT-0600 (Central Standard Time),431657.2000000477,elated,1100,O,z,z,None,819,620.0,199.0,4,1,2460.300000011921,429196.90000003576,7064,elated,AF,A,428955,428955,427128,428240,427128,429588,428756,428756,429588,84
80,test,1,inc,1,z,Fri Feb 28 2025 17:41:51 GMT-0600 (Central Standard Time),434156.7000000477,rock,900,O,z,z,None,1065,849.0,216.0,46,1,2494.400000035763,431662.3000000119,7064,hate,AF,A,431238,431238,429593,430503,429594,432088,431021,431021,432088,85
80,test,1,inc,0,z,Fri Feb 28 2025 17:41:51 GMT-0600 (Central Standard Time),437005.2000000477,window,1100,O,m,m,None,1216,1017.0,199.0,32,1,2843.600000023842,434161.60000002384,7064,friend,AF,A,433919,433919,432093,433204,432093,434936,433720,433720,434936,86
80,test,1,con,0,z,Fri Feb 28 2025 17:41:51 GMT-0600 (Central Standard Time),439270.90000003576,friend,1100,O,m,m,None,634,434.0,200.0,28,1,2259.300000011921,437011.60000002384,7064,friend,AF,A,436768,436768,434943,436053,434943,437202,436568,436568,437202,87
81,test,1,con,1,z,Fri Feb 28 2025 17:41:51 GMT-0600 (Central Standard Time),441685.10000002384,love,1000,O,z,z,None,872,673.0,199.0,19,1,2408.800000011921,439276.3000000119,7064,love,AF,A,438935,438935,437207,438218,437208,439616,438735,438735,439616,88
82,test,1,con,1,m,Fri Feb 28 2025 17:41:51 GMT-0600 (Central Standard Time),444185.2000000477,remote,1100,O,m,m,None,862,662.0,200.0,116,1,2495.800000011921,441689.40000003576,7064,remote,AF,A,441449,441449,439620,440734,439621,442116,441249,441249,442116,89
83,test,1,inc,1,m,Fri Feb 28 2025 17:41:51 GMT-0600 (Central Standard Time),446734.8000000119,friend,1100,O,m,m,None,920,705.0,215.0,112,1,2545.399999976158,444189.40000003576,7064,napkin,AF,A,443950,443950,442120,443233,442121,444666,443735,443735,444666,90
84,test,1,inc,1,z,Fri Feb 28 2025 17:41:51 GMT-0600 (Central Standard Time),449100.7000000477,window,1100,O,z,z,None,724,524.0,200.0,64,1,2360.900000035763,446739.8000000119,7064,temper,AF,A,446499,446499,444671,445783,444671,447032,446298,446299,447032,91
85,test,1,con,1,m,Fri Feb 28 2025 17:41:51 GMT-0600 (Central Standard Time),451399.5,film,1000,O,m,m,None,756,553.0,203.0,91,1,2293.699999988079,449105.8000000119,7064,film,AF,A,448766,448766,447037,448049,447037,449331,448563,448563,449331,92
86,test,1,con,1,z,Fri Feb 28 2025 17:41:51 GMT-0600 (Central Standard Time),453666.0,temper,900,O,z,z,None,817,618.0,199.0,58,1,2261.7999999523163,451404.2000000477,7064,temper,AF,A,450964,450964,449335,450249,449336,451597,450765,450765,451597,93
87,test,1,inc,1,m,Fri Feb 28 2025 17:41:51 GMT-0600 (Central Standard Time),455981.40000003576,brutal,900,O,m,m,None,888,688.0,200.0,118,1,2310.400000035763,453671.0,7064,remote,AF,A,453215,453215,451602,452513,451602,453912,453015,453015,453912,94
88,test,1,con,1,z,Fri Feb 28 2025 17:41:51 GMT-0600 (Central Standard Time),458846.40000003576,hate,1100,O,z,z,None,1243,1030.0,213.0,44,1,2860.300000011921,455986.10000002384,7064,hate,AF,A,455745,455745,453917,455030,453918,456777,455532,455532,456777,95
89,test,1,con,1,m,Fri Feb 28 2025 17:41:51 GMT-0600 (Central Standard Time),460947.40000003576,jacket,900,O,m,m,None,650,451.0,199.0,98,1,2097.800000011921,458849.60000002384,7064,jacket,AF,A,458412,458412,456781,457697,456781,458879,458213,458213,458878,96
90,test,1,con,1,m,Fri Feb 28 2025 17:41:51 GMT-0600 (Central Standard Time),463228.90000003576,napkin,900,O,m,m,None,847,633.0,214.0,106,1,2275.600000023842,460953.3000000119,7064,napkin,AF,A,460527,460527,458884,459795,458885,461160,460312,460312,461160,97
91,test,1,con,1,z,Fri Feb 28 2025 17:41:51 GMT-0600 (Central Standard Time),465929.8000000119,kind,1100,O,z,z,None,1077,862.0,215.0,12,1,2693.899999976158,463235.90000003576,7064,kind,AF,A,462993,462993,461167,462277,461167,463861,462778,462778,463861,98
92,test,1,con,1,m,Fri Feb 28 2025 17:41:51 GMT-0600 (Central Standard Time),468011.90000003576,bell,800,O,m,m,None,757,541.0,216.0,81,1,2077.699999988079,465934.2000000477,7064,bell,AF,A,465394,465394,463865,464675,463865,465943,465177,465177,465943,99
92,test,1,con,0,m,Fri Feb 28 2025 17:41:51 GMT-0600 (Central Standard Time),470461.5,remote,1000,O,z,z,None,917,717.0,200.0,115,1,2444.2999999523163,468017.2000000477,7064,remote,AF,A,467675,467675,465948,466960,465949,468393,467475,467475,468393,100
93,test,1,con,1,z,Fri Feb 28 2025 17:41:51 GMT-0600 (Central Standard Time),472858.90000003576,hate,1000,O,z,z,None,855,640.0,215.0,43,1,2393.400000035763,470465.5,7064,hate,AF,A,470143,470143,468397,469409,468397,470790,469927,469927,470790,101
94,test,1,inc,1,m,Fri Feb 28 2025 17:41:51 GMT-0600 (Central Standard Time),475110.7000000477,rage,800,O,m,m,None,931,717.0,214.0,69,1,2246.100000023842,472864.60000002384,7064,step,AF,A,472324,472324,470796,471607,470796,473042,472110,472110,473042,102
95,test,1,inc,1,z,Fri Feb 28 2025 17:41:51 GMT-0600 (Central Standard Time),477274.7000000477,jacket,800,O,z,z,None,841,642.0,199.0,61,1,2156.600000023842,475118.10000002384,7064,temper,AF,A,474557,474557,473049,473857,473050,475206,474358,474358,475206,103
96,test,1,inc,1,m,Fri Feb 28 2025 17:41:51 GMT-0600 (Central Standard Time),479441.0,temper,1000,O,m,m,None,619,419.0,200.0,127,1,2161.699999988079,477279.3000000119,7064,window,AF,A,476940,476940,475210,476222,475211,477372,476739,476739,477372,104
97,test,1,inc,1,z,Fri Feb 28 2025 17:41:51 GMT-0600 (Central Standard Time),482039.60000002384,jacket,800,O,z,z,None,1260,1061.0,199.0,37,1,2594.399999976158,479445.2000000477,7064,brutal,AF,A,478906,478906,477376,478189,477376,479971,478706,478706,479971,105
98,test,1,con,1,m,Fri Feb 28 2025 17:41:51 GMT-0600 (Central Standard Time),484439.7000000477,step,1100,O,m,m,None,763,549.0,214.0,68,1,2395.900000035763,482043.8000000119,7064,step,AF,A,481821,481821,479975,481088,479975,482371,481607,481607,482371,106
99,test,1,con,1,m,Fri Feb 28 2025 17:41:51 GMT-0600 (Central Standard Time),486936.0,jacket,1100,O,m,m,None,866,667.0,199.0,100,1,2491.0,484445.0,7064,jacket,AF,A,484187,484187,482376,483486,482376,484867,483988,483988,484867,107
100,test,1,con,1,m,Fri Feb 28 2025 17:41:51 GMT-0600 (Central Standard Time),489504.0,remote,800,O,m,m,None,1219,1005.0,214.0,113,1,2564.7999999523163,486939.2000000477,7064,remote,AF,A,486418,486418,484870,485687,484870,487435,486204,486204,487435,108
101,test,1,con,1,m,Fri Feb 28 2025 17:41:51 GMT-0600 (Central Standard Time),491952.7000000477,bell,1000,O,m,m,None,900,701.0,199.0,83,1,2443.800000011921,489508.90000003576,7064,bell,AF,A,489169,489169,487440,488453,487440,489884,488969,488969,489884,109
101,test,1,con,0,m,Fri Feb 28 2025 17:41:51 GMT-0600 (Central Standard Time),494118.5,remote,900,O,z,z,None,730,530.0,200.0,114,1,2159.199999988079,491959.3000000119,7064,remote,AF,A,491518,491518,489890,490801,489891,492050,491317,491317,492050,110
102,test,1,con,1,z,Fri Feb 28 2025 17:41:51 GMT-0600 (Central Standard Time),496235.10000002384,love,1100,O,z,z,None,481,280.0,201.0,20,1,2110.800000011921,494124.3000000119,7064,love,AF,A,493871,493871,492055,493168,492056,494166,493670,493670,494166,111
103,test,1,con,1,m,Fri Feb 28 2025 17:41:51 GMT-0600 (Central Standard Time),499117.60000002384,rock,1100,O,m,m,None,1237,1023.0,214.0,76,1,2875.600000023842,496242.0,7064,rock,AF,A,496016,496016,494173,495284,494174,497049,495802,495802,497049,112
104,test,1,con,1,z,Fri Feb 28 2025 17:41:51 GMT-0600 (Central Standard Time),501535.90000003576,hate,800,O,z,z,None,1083,884.0,199.0,41,1,2413.5,499122.40000003576,7064,hate,AF,A,498582,498582,497053,497866,497054,499467,498382,498382,499467,113
105,test,1,con,1,m,Fri Feb 28 2025 17:41:51 GMT-0600 (Central Standard Time),503848.10000002384,rock,900,O,m,m,None,876,676.0,200.0,74,1,2306.5,501541.60000002384,7064,rock,AF,A,501099,501099,499473,500382,499473,501779,500898,500898,501779,114
106,test,1,inc,1,m,Fri Feb 28 2025 17:41:51 GMT-0600 (Central Standard Time),506214.60000002384,hate,1100,O,m,m,None,729,528.0,201.0,88,1,2363.5,503851.10000002384,7064,bell,AF,A,503615,503615,501782,502899,501782,504146,503414,503414,504145,115
107,test,1,con,1,z,Fri Feb 28 2025 17:41:51 GMT-0600 (Central Standard Time),508031.8000000119,love,900,O,z,z,None,370,154.0,216.0,18,1,1812.300000011921,506219.5,7064,love,AF,A,505797,505797,504151,505065,504151,505963,505581,505581,505963,116
108,test,1,inc,1,m,Fri Feb 28 2025 17:41:51 GMT-0600 (Central Standard Time),510781.3000000119,hate,1100,O,m,m,None,1102,901.0,201.0,80,1,2744.300000011921,508037.0,7064,rock,AF,A,507796,507796,505968,507079,505968,508712,507595,507595,508712,117
109,test,1,inc,1,m,Fri Feb 28 2025 17:41:51 GMT-0600 (Central Standard Time),512980.2000000477,kind,900,O,m,m,None,765,566.0,199.0,78,1,2195.2000000476837,510785.0,7064,rock,AF,A,510345,510345,508716,509628,508716,510911,510146,510146,510911,118
110,test,1,inc,1,z,Fri Feb 28 2025 17:41:51 GMT-0600 (Central Standard Time),515446.8000000119,bell,1000,O,z,z,None,932,733.0,199.0,15,1,2462.800000011921,512984.0,7064,kind,AF,A,512645,512645,510915,511929,510915,513378,512445,512445,513378,119
111,test,1,con,1,z,Fri Feb 28 2025 17:41:51 GMT-0600 (Central Standard Time),517645.2000000477,kind,800,O,z,z,None,871,672.0,199.0,9,1,2194.0,515451.2000000477,7064,kind,AF,A,514894,514894,513382,514193,513382,515576,514695,514695,515576,120
112,test,1,inc,1,m,Fri Feb 28 2025 17:41:51 GMT-0600 (Central Standard Time),519829.7000000477,brutal,900,O,m,m,None,751,551.0,200.0,126,1,2180.300000011921,517649.40000003576,7064,window,AF,A,517210,517210,515580,516495,515581,517761,517010,517010,517761,121
112,test,1,inc,0,z,Fri Feb 28 2025 17:41:51 GMT-0600 (Central Standard Time),522310.3000000119,napkin,900,O,m,m,None,1048,833.0,215.0,30,1,2477.0,519833.3000000119,7064,friend,AF,A,519392,519392,517764,518676,517765,520241,519177,519177,520241,122
113,test,1,con,1,z,Fri Feb 28 2025 17:41:51 GMT-0600 (Central Standard Time),524593.1000000238,kind,900,O,z,z,None,843,628.0,215.0,10,1,2277.300000011921,522315.8000000119,7064,kind,AF,A,521891,521891,520247,521159,520247,522524,521676,521676,522524,123
114,test,1,inc,1,z,Fri Feb 28 2025 17:41:51 GMT-0600 (Central Standard Time),526775.8000000119,bell,1000,O,z,z,None,652,452.0,200.0,55,1,2178.300000011921,524597.5,7064,rage,AF,A,524242,524242,522529,523540,522529,524707,524041,524041,524707,124
114,test,1,con,0,z,Fri Feb 28 2025 17:41:51 GMT-0600 (Central Standard Time),529141.5,friend,1000,O,m,m,None,837,637.0,200.0,27,1,2361.099999964237,526780.4000000358,7064,friend,AF,A,526425,526425,524711,525723,524712,527073,526225,526225,527073,125
115,test,1,con,1,m,Fri Feb 28 2025 17:41:51 GMT-0600 (Central Standard Time),531124.8000000119,window,1000,O,m,m,None,432,216.0,216.0,123,1,1979.699999988079,529145.1000000238,7064,window,AF,A,528824,528824,527076,528090,527076,529056,528608,528608,529056,126
116,test,1,inc,1,m,Fri Feb 28 2025 17:41:51 GMT-0600 (Central Standard Time),533358.4000000358,love,1000,O,m,m,None,698,483.0,215.0,79,1,2229.800000011921,531128.6000000238,7064,rock,AF,A,530806,530806,529060,530073,529060,531289,530590,530590,531289,127
117,test,1,inc,1,m,Fri Feb 28 2025 17:41:51 GMT-0600 (Central Standard Time),535888.9000000358,love,1000,O,m,m,None,1008,808.0,200.0,87,1,2525.699999988079,533363.2000000477,7064,bell,AF,A,533007,533007,531294,532305,531295,533820,532806,532806,533820,128
