acc_sum,block,block_c,change,condition,correct,correct_response,datetime,endtime,face,project,response,response_time,row_sel,session_number,start_end,starttime,subject_id,task,task_vers,trial
0,prac,1,,1-Back,,,Wed Mar 12 2025 17:33:44 GMT-0500 (Central Daylight Time),,050_m_f_n_a.png,O,space,2749,1,1,,,7082,NNB,A,0
1,prac,1,0.0,1-Back,1,m,Wed Mar 12 2025 17:33:44 GMT-0500 (Central Daylight Time),328361.1000000001,063_y_f_n_a.png,O,m,938,2,1,1740.0,326621.1000000001,7082,NNB,A,1
2,prac,1,1.0,1-Back,1,z,Wed Mar 12 2025 17:33:44 GMT-0500 (Central Daylight Time),330427.1999999997,063_y_f_n_a.png,O,z,1279,3,1,2056.1999999997206,328371.0,7082,NNB,A,2
3,prac,1,0.0,1-Back,1,m,Wed Mar 12 2025 17:33:44 GMT-0500 (Central Daylight Time),332059.0,053_o_m_n_a.png,O,m,827,4,1,1623.7000000001863,330435.2999999998,7082,NNB,A,3
4,prac,1,0.0,1-Back,1,m,Wed Mar 12 2025 17:33:44 GMT-0500 (Central Daylight Time),333475.6999999997,058_m_m_n_a.png,O,m,620,5,1,1407.0,332068.6999999997,7082,NNB,A,4
5,prac,1,1.0,1-Back,1,z,Wed Mar 12 2025 17:33:44 GMT-0500 (Central Daylight Time),335140.7999999998,058_m_m_n_a.png,O,z,884,6,1,1654.6999999997206,333486.1000000001,7082,NNB,A,5
6,prac,1,0.0,1-Back,1,m,Wed Mar 12 2025 17:33:44 GMT-0500 (Central Daylight Time),337009.0,047_o_f_n_a.png,O,m,1042,7,1,1861.7000000001863,335147.2999999998,7082,NNB,A,6
7,prac,1,0.0,1-Back,1,m,Wed Mar 12 2025 17:33:44 GMT-0500 (Central Daylight Time),338508.7999999998,045_m_m_n_a.png,O,m,717,8,1,1491.3999999999069,337017.3999999999,7082,NNB,A,7
7,prac,1,0.0,1-Back,0,m,Wed Mar 12 2025 17:33:44 GMT-0500 (Central Daylight Time),340489.6999999997,050_m_f_n_a.png,O,z,1203,9,1,1970.8999999999069,338518.7999999998,7082,NNB,A,8
7,prac,1,1.0,1-Back,0,z,Wed Mar 12 2025 17:33:44 GMT-0500 (Central Daylight Time),342689.1999999997,050_m_f_n_a.png,O,m,1408,10,1,2189.5,340499.6999999997,7082,NNB,A,9
8,prac,1,0.0,1-Back,1,m,Wed Mar 12 2025 17:33:44 GMT-0500 (Central Daylight Time),344172.5,053_o_m_n_a.png,O,m,706,11,1,1474.0,342698.5,7082,NNB,A,10
9,prac,1,0.0,1-Back,1,m,Wed Mar 12 2025 17:33:44 GMT-0500 (Central Daylight Time),345588.1000000001,010_y_f_n_a.png,O,m,583,12,1,1405.5,344182.6000000001,7082,NNB,A,11
0,test,1,0.0,1-Back,,,Wed Mar 12 2025 17:33:44 GMT-0500 (Central Daylight Time),345588.1000000001,063_y_f_n_a.png,O,space,17771,1,1,1405.5,344182.6000000001,7082,NNB,A,0
1,test,1,0.0,1-Back,1,m,Wed Mar 12 2025 17:33:44 GMT-0500 (Central Daylight Time),384459.2999999998,043_m_f_n_a.png,O,m,801,2,1,1822.0,382637.2999999998,7082,NNB,A,1
2,test,1,0.0,1-Back,1,m,Wed Mar 12 2025 17:33:44 GMT-0500 (Central Daylight Time),386242.7999999998,010_y_f_n_a.png,O,m,756,3,1,1772.6000000000931,384470.1999999997,7082,NNB,A,2
3,test,1,1.0,1-Back,1,z,Wed Mar 12 2025 17:33:44 GMT-0500 (Central Daylight Time),388041.5,010_y_f_n_a.png,O,z,774,4,1,1789.7000000001863,386251.7999999998,7082,NNB,A,3
4,test,1,0.0,1-Back,1,m,Wed Mar 12 2025 17:33:44 GMT-0500 (Central Daylight Time),389624.3999999999,043_m_f_n_a.png,O,m,551,5,1,1574.6000000000931,388049.7999999998,7082,NNB,A,4
5,test,1,0.0,1-Back,1,m,Wed Mar 12 2025 17:33:44 GMT-0500 (Central Daylight Time),391323.2999999998,053_o_m_n_a.png,O,m,673,6,1,1689.7999999998137,389633.5,7082,NNB,A,5
6,test,1,1.0,1-Back,1,z,Wed Mar 12 2025 17:33:44 GMT-0500 (Central Daylight Time),393156.0,053_o_m_n_a.png,O,z,817,7,1,1823.8000000002794,391332.1999999997,7082,NNB,A,6
7,test,1,0.0,1-Back,1,m,Wed Mar 12 2025 17:33:44 GMT-0500 (Central Daylight Time),394788.2999999998,058_m_m_n_a.png,O,m,604,8,1,1623.3999999999069,393164.8999999999,7082,NNB,A,7
8,test,1,0.0,1-Back,1,m,Wed Mar 12 2025 17:33:44 GMT-0500 (Central Daylight Time),396756.0,047_o_f_n_a.png,O,m,949,9,1,1958.3000000002794,394797.6999999997,7082,NNB,A,8
9,test,1,0.0,1-Back,1,m,Wed Mar 12 2025 17:33:44 GMT-0500 (Central Daylight Time),398471.8999999999,058_m_m_n_a.png,O,m,686,10,1,1704.8999999999069,396767.0,7082,NNB,A,9
10,test,1,0.0,1-Back,1,m,Wed Mar 12 2025 17:33:44 GMT-0500 (Central Daylight Time),400254.2999999998,041_y_m_n_a.png,O,m,753,11,1,1774.7999999998137,398479.5,7082,NNB,A,10
10,test,1,1.0,1-Back,0,z,Wed Mar 12 2025 17:33:44 GMT-0500 (Central Daylight Time),402086.3999999999,041_y_m_n_a.png,O,m,803,12,1,1822.7999999998137,400263.6000000001,7082,NNB,A,11
11,test,1,0.0,1-Back,1,m,Wed Mar 12 2025 17:33:44 GMT-0500 (Central Daylight Time),403803.3999999999,044_o_f_n_a.png,O,m,689,13,1,1707.7999999998137,402095.6000000001,7082,NNB,A,12
12,test,1,1.0,1-Back,1,z,Wed Mar 12 2025 17:33:44 GMT-0500 (Central Daylight Time),405536.6999999997,044_o_f_n_a.png,O,z,710,14,1,1724.0999999996275,403812.6000000001,7082,NNB,A,13
13,test,1,0.0,1-Back,1,m,Wed Mar 12 2025 17:33:44 GMT-0500 (Central Daylight Time),407185.1000000001,008_y_m_n_a.png,O,m,617,15,1,1638.3000000002794,405546.7999999998,7082,NNB,A,14
14,test,1,0.0,1-Back,1,m,Wed Mar 12 2025 17:33:44 GMT-0500 (Central Daylight Time),408934.1000000001,050_m_f_n_a.png,O,m,729,16,1,1740.8000000002794,407193.2999999998,7082,NNB,A,15
15,test,1,0.0,1-Back,1,m,Wed Mar 12 2025 17:33:44 GMT-0500 (Central Daylight Time),410499.6000000001,046_o_m_n_a.png,O,m,544,17,1,1556.5,408943.1000000001,7082,NNB,A,16
16,test,1,0.0,1-Back,1,m,Wed Mar 12 2025 17:33:44 GMT-0500 (Central Daylight Time),412183.6000000001,050_m_f_n_a.png,O,m,653,18,1,1676.4000000003725,410507.1999999997,7082,NNB,A,17
0,test,2,0.0,1-Back,,,Wed Mar 12 2025 17:33:44 GMT-0500 (Central Daylight Time),412183.6000000001,058_m_m_n_a.png,O,space,8449,1,1,1676.4000000003725,410507.1999999997,7082,NNB,A,0
1,test,2,0.0,1-Back,1,m,Wed Mar 12 2025 17:33:44 GMT-0500 (Central Daylight Time),424379.3999999999,043_m_f_n_a.png,O,m,689,2,1,1705.7999999998137,422673.6000000001,7082,NNB,A,1
2,test,2,1.0,1-Back,1,z,Wed Mar 12 2025 17:33:44 GMT-0500 (Central Daylight Time),426380.6999999997,043_m_f_n_a.png,O,z,984,3,1,1992.1999999997206,424388.5,7082,NNB,A,2
3,test,2,0.0,1-Back,1,m,Wed Mar 12 2025 17:33:44 GMT-0500 (Central Daylight Time),427946.6000000001,058_m_m_n_a.png,O,m,549,4,1,1555.5,426391.1000000001,7082,NNB,A,3
4,test,2,0.0,1-Back,1,m,Wed Mar 12 2025 17:33:44 GMT-0500 (Central Daylight Time),429627.6999999997,041_y_m_n_a.png,O,m,655,5,1,1675.0,427952.6999999997,7082,NNB,A,4
5,test,2,0.0,1-Back,1,m,Wed Mar 12 2025 17:33:44 GMT-0500 (Central Daylight Time),431409.7999999998,063_y_f_n_a.png,O,m,758,6,1,1773.1999999997206,429636.6000000001,7082,NNB,A,5
6,test,2,1.0,1-Back,1,z,Wed Mar 12 2025 17:33:44 GMT-0500 (Central Daylight Time),433226.6000000001,063_y_f_n_a.png,O,z,790,7,1,1806.8000000002794,431419.7999999998,7082,NNB,A,6
7,test,2,0.0,1-Back,1,m,Wed Mar 12 2025 17:33:44 GMT-0500 (Central Daylight Time),434825.6999999997,041_y_m_n_a.png,O,m,574,8,1,1589.8999999999069,433235.7999999998,7082,NNB,A,7
8,test,2,0.0,1-Back,1,m,Wed Mar 12 2025 17:33:44 GMT-0500 (Central Daylight Time),436476.0,044_o_f_n_a.png,O,m,620,9,1,1641.3999999999069,434834.6000000001,7082,NNB,A,8
9,test,2,0.0,1-Back,1,m,Wed Mar 12 2025 17:33:44 GMT-0500 (Central Daylight Time),438124.3999999999,045_m_m_n_a.png,O,m,629,10,1,1638.0,436486.3999999999,7082,NNB,A,9
10,test,2,1.0,1-Back,1,z,Wed Mar 12 2025 17:33:44 GMT-0500 (Central Daylight Time),439891.2999999998,045_m_m_n_a.png,O,z,748,11,1,1757.7999999998137,438133.5,7082,NNB,A,10
11,test,2,0.0,1-Back,1,m,Wed Mar 12 2025 17:33:44 GMT-0500 (Central Daylight Time),441573.3999999999,044_o_f_n_a.png,O,m,653,12,1,1671.2999999998137,439902.1000000001,7082,NNB,A,11
12,test,2,0.0,1-Back,1,m,Wed Mar 12 2025 17:33:44 GMT-0500 (Central Daylight Time),443240.2999999998,047_o_f_n_a.png,O,m,642,13,1,1658.1999999997206,441582.1000000001,7082,NNB,A,12
13,test,2,0.0,1-Back,1,m,Wed Mar 12 2025 17:33:44 GMT-0500 (Central Daylight Time),444889.6999999997,053_o_m_n_a.png,O,m,616,14,1,1640.1999999997206,443249.5,7082,NNB,A,13
14,test,2,0.0,1-Back,1,m,Wed Mar 12 2025 17:33:44 GMT-0500 (Central Daylight Time),446540.1000000001,046_o_m_n_a.png,O,m,632,15,1,1640.7000000001863,444899.3999999999,7082,NNB,A,14
14,test,2,1.0,1-Back,0,z,Wed Mar 12 2025 17:33:44 GMT-0500 (Central Daylight Time),448089.8999999999,046_o_m_n_a.png,O,m,525,16,1,1540.1000000000931,446549.7999999998,7082,NNB,A,15
15,test,2,0.0,1-Back,1,m,Wed Mar 12 2025 17:33:44 GMT-0500 (Central Daylight Time),449804.6000000001,008_y_m_n_a.png,O,m,689,17,1,1705.8000000002794,448098.7999999998,7082,NNB,A,16
16,test,2,1.0,1-Back,1,z,Wed Mar 12 2025 17:33:44 GMT-0500 (Central Daylight Time),451720.3999999999,008_y_m_n_a.png,O,z,885,18,1,1907.2999999998137,449813.1000000001,7082,NNB,A,17
0,test,3,1.0,1-Back,,,Wed Mar 12 2025 17:33:44 GMT-0500 (Central Daylight Time),451720.3999999999,010_y_f_n_a.png,O,space,3168,1,1,1907.2999999998137,449813.1000000001,7082,NNB,A,0
1,test,3,0.0,1-Back,1,m,Wed Mar 12 2025 17:33:44 GMT-0500 (Central Daylight Time),458602.2999999998,046_o_m_n_a.png,O,m,600,2,1,1622.3999999999069,456979.8999999999,7082,NNB,A,1
2,test,3,1.0,1-Back,1,z,Wed Mar 12 2025 17:33:44 GMT-0500 (Central Daylight Time),460452.6999999997,046_o_m_n_a.png,O,z,832,3,1,1839.6999999997206,458613.0,7082,NNB,A,2
3,test,3,0.0,1-Back,1,m,Wed Mar 12 2025 17:33:44 GMT-0500 (Central Daylight Time),462101.1000000001,050_m_f_n_a.png,O,m,631,4,1,1639.2000000001863,460461.8999999999,7082,NNB,A,3
4,test,3,1.0,1-Back,1,z,Wed Mar 12 2025 17:33:44 GMT-0500 (Central Daylight Time),463851.6999999997,050_m_f_n_a.png,O,z,724,5,1,1740.1999999997206,462111.5,7082,NNB,A,4
5,test,3,0.0,1-Back,1,m,Wed Mar 12 2025 17:33:44 GMT-0500 (Central Daylight Time),465418.2999999998,044_o_f_n_a.png,O,m,542,6,1,1556.3999999999069,463861.8999999999,7082,NNB,A,5
6,test,3,0.0,1-Back,1,m,Wed Mar 12 2025 17:33:44 GMT-0500 (Central Daylight Time),467082.7999999998,041_y_m_n_a.png,O,m,648,7,1,1655.1999999997206,465427.6000000001,7082,NNB,A,6
7,test,3,0.0,1-Back,1,m,Wed Mar 12 2025 17:33:44 GMT-0500 (Central Daylight Time),469266.0,044_o_f_n_a.png,O,m,1166,8,1,2175.7000000001863,467090.2999999998,7082,NNB,A,7
8,test,3,0.0,1-Back,1,m,Wed Mar 12 2025 17:33:44 GMT-0500 (Central Daylight Time),470898.6999999997,008_y_m_n_a.png,O,m,600,9,1,1623.1999999997206,469275.5,7082,NNB,A,8
9,test,3,1.0,1-Back,1,z,Wed Mar 12 2025 17:33:44 GMT-0500 (Central Daylight Time),472596.6999999997,008_y_m_n_a.png,O,z,672,10,1,1688.3999999999069,470908.2999999998,7082,NNB,A,9
10,test,3,0.0,1-Back,1,m,Wed Mar 12 2025 17:33:44 GMT-0500 (Central Daylight Time),474180.7999999998,043_m_f_n_a.png,O,m,564,11,1,1577.6000000000931,472603.1999999997,7082,NNB,A,10
11,test,3,0.0,1-Back,1,m,Wed Mar 12 2025 17:33:44 GMT-0500 (Central Daylight Time),476045.5,063_y_f_n_a.png,O,m,847,12,1,1856.8999999999069,474188.6000000001,7082,NNB,A,11
12,test,3,1.0,1-Back,1,z,Wed Mar 12 2025 17:33:44 GMT-0500 (Central Daylight Time),477761.6999999997,063_y_f_n_a.png,O,z,690,13,1,1707.0,476054.6999999997,7082,NNB,A,12
13,test,3,0.0,1-Back,1,m,Wed Mar 12 2025 17:33:44 GMT-0500 (Central Daylight Time),479579.5,043_m_f_n_a.png,O,m,784,14,1,1810.0,477769.5,7082,NNB,A,13
14,test,3,0.0,1-Back,1,m,Wed Mar 12 2025 17:33:44 GMT-0500 (Central Daylight Time),481295.0,058_m_m_n_a.png,O,m,696,15,1,1706.8999999999069,479588.1000000001,7082,NNB,A,14
14,test,3,1.0,1-Back,0,z,Wed Mar 12 2025 17:33:44 GMT-0500 (Central Daylight Time),482926.8999999999,058_m_m_n_a.png,O,m,609,16,1,1622.1000000000931,481304.7999999998,7082,NNB,A,15
15,test,3,0.0,1-Back,1,m,Wed Mar 12 2025 17:33:44 GMT-0500 (Central Daylight Time),484743.7999999998,047_o_f_n_a.png,O,m,793,17,1,1807.0,482936.7999999998,7082,NNB,A,16
16,test,3,1.0,1-Back,1,z,Wed Mar 12 2025 17:33:44 GMT-0500 (Central Daylight Time),486611.6999999997,047_o_f_n_a.png,O,z,850,18,1,1858.0999999996275,484753.6000000001,7082,NNB,A,17
0,test,4,1.0,1-Back,,,Wed Mar 12 2025 17:33:44 GMT-0500 (Central Daylight Time),486611.6999999997,050_m_f_n_a.png,O,space,1901,1,1,1858.0999999996275,484753.6000000001,7082,NNB,A,0
1,test,4,0.0,1-Back,1,m,Wed Mar 12 2025 17:33:44 GMT-0500 (Central Daylight Time),492190.5,046_o_m_n_a.png,O,m,624,2,1,1637.8000000002794,490552.6999999997,7082,NNB,A,1
2,test,4,0.0,1-Back,1,m,Wed Mar 12 2025 17:33:44 GMT-0500 (Central Daylight Time),493839.8999999999,050_m_f_n_a.png,O,m,628,3,1,1642.7999999998137,492197.1000000001,7082,NNB,A,2
3,test,4,0.0,1-Back,1,m,Wed Mar 12 2025 17:33:44 GMT-0500 (Central Daylight Time),495656.7999999998,044_o_f_n_a.png,O,m,789,4,1,1807.6999999997206,493849.1000000001,7082,NNB,A,3
4,test,4,1.0,1-Back,1,z,Wed Mar 12 2025 17:33:44 GMT-0500 (Central Daylight Time),497340.2999999998,044_o_f_n_a.png,O,z,649,5,1,1674.6999999997206,495665.6000000001,7082,NNB,A,4
5,test,4,0.0,1-Back,1,m,Wed Mar 12 2025 17:33:44 GMT-0500 (Central Daylight Time),498874.1000000001,063_y_f_n_a.png,O,m,517,6,1,1524.9000000003725,497349.1999999997,7082,NNB,A,5
6,test,4,0.0,1-Back,1,m,Wed Mar 12 2025 17:33:44 GMT-0500 (Central Daylight Time),500488.3999999999,041_y_m_n_a.png,O,m,592,7,1,1605.0,498883.3999999999,7082,NNB,A,6
7,test,4,1.0,1-Back,1,z,Wed Mar 12 2025 17:33:44 GMT-0500 (Central Daylight Time),502187.3999999999,041_y_m_n_a.png,O,z,673,8,1,1690.3999999999069,500497.0,7082,NNB,A,7
8,test,4,0.0,1-Back,1,m,Wed Mar 12 2025 17:33:44 GMT-0500 (Central Daylight Time),503941.8999999999,063_y_f_n_a.png,O,m,724,9,1,1745.6000000000931,502196.2999999998,7082,NNB,A,8
9,test,4,0.0,1-Back,1,m,Wed Mar 12 2025 17:33:44 GMT-0500 (Central Daylight Time),505537.1999999997,045_m_m_n_a.png,O,m,568,10,1,1590.3999999999069,503946.7999999998,7082,NNB,A,9
10,test,4,1.0,1-Back,1,z,Wed Mar 12 2025 17:33:44 GMT-0500 (Central Daylight Time),507386.6000000001,045_m_m_n_a.png,O,z,816,11,1,1843.5,505543.1000000001,7082,NNB,A,10
11,test,4,0.0,1-Back,1,m,Wed Mar 12 2025 17:33:44 GMT-0500 (Central Daylight Time),509070.3999999999,047_o_f_n_a.png,O,m,649,12,1,1675.5,507394.8999999999,7082,NNB,A,11
12,test,4,0.0,1-Back,1,m,Wed Mar 12 2025 17:33:44 GMT-0500 (Central Daylight Time),510685.0,053_o_m_n_a.png,O,m,595,13,1,1605.2000000001863,509079.7999999998,7082,NNB,A,12
13,test,4,0.0,1-Back,1,m,Wed Mar 12 2025 17:33:44 GMT-0500 (Central Daylight Time),513284.2999999998,047_o_f_n_a.png,O,m,1571,14,1,2590.100000000093,510694.1999999997,7082,NNB,A,13
14,test,4,0.0,1-Back,1,m,Wed Mar 12 2025 17:33:44 GMT-0500 (Central Daylight Time),514985.0,010_y_f_n_a.png,O,m,666,15,1,1690.5,513294.5,7082,NNB,A,14
15,test,4,1.0,1-Back,1,z,Wed Mar 12 2025 17:33:44 GMT-0500 (Central Daylight Time),516666.1000000001,010_y_f_n_a.png,O,z,663,16,1,1673.1000000000931,514993.0,7082,NNB,A,15
16,test,4,0.0,1-Back,1,m,Wed Mar 12 2025 17:33:44 GMT-0500 (Central Daylight Time),518283.1999999997,043_m_f_n_a.png,O,m,581,17,1,1607.7999999998137,516675.3999999999,7082,NNB,A,16
17,test,4,1.0,1-Back,1,z,Wed Mar 12 2025 17:33:44 GMT-0500 (Central Daylight Time),520065.1999999997,043_m_f_n_a.png,O,z,757,18,1,1771.7999999998137,518293.3999999999,7082,NNB,A,17
0,test,5,1.0,1-Back,,,Wed Mar 12 2025 17:33:44 GMT-0500 (Central Daylight Time),520065.1999999997,053_o_m_n_a.png,O,space,1834,1,1,1771.7999999998137,518293.3999999999,7082,NNB,A,0
1,test,5,1.0,1-Back,1,z,Wed Mar 12 2025 17:33:44 GMT-0500 (Central Daylight Time),525866.0,053_o_m_n_a.png,O,z,927,2,1,1939.3999999999069,523926.6000000001,7082,NNB,A,1
2,test,5,0.0,1-Back,1,m,Wed Mar 12 2025 17:33:44 GMT-0500 (Central Daylight Time),527430.1000000001,063_y_f_n_a.png,O,m,536,3,1,1554.8000000002794,525875.2999999998,7082,NNB,A,2
3,test,5,0.0,1-Back,1,m,Wed Mar 12 2025 17:33:44 GMT-0500 (Central Daylight Time),529011.6000000001,041_y_m_n_a.png,O,m,554,4,1,1575.3000000002794,527436.2999999998,7082,NNB,A,3
4,test,5,0.0,1-Back,1,m,Wed Mar 12 2025 17:33:44 GMT-0500 (Central Daylight Time),530746.6000000001,063_y_f_n_a.png,O,m,709,5,1,1726.9000000003725,529019.6999999997,7082,NNB,A,4
5,test,5,0.0,1-Back,1,m,Wed Mar 12 2025 17:33:44 GMT-0500 (Central Daylight Time),532460.8999999999,058_m_m_n_a.png,O,m,683,6,1,1705.6000000000931,530755.2999999998,7082,NNB,A,5
6,test,5,1.0,1-Back,1,z,Wed Mar 12 2025 17:33:44 GMT-0500 (Central Daylight Time),534245.1999999997,058_m_m_n_a.png,O,z,757,7,1,1777.3999999999069,532467.7999999998,7082,NNB,A,6
7,test,5,0.0,1-Back,1,m,Wed Mar 12 2025 17:33:44 GMT-0500 (Central Daylight Time),535827.5,010_y_f_n_a.png,O,m,556,8,1,1573.2000000001863,534254.2999999998,7082,NNB,A,7
8,test,5,0.0,1-Back,1,m,Wed Mar 12 2025 17:33:44 GMT-0500 (Central Daylight Time),537411.6000000001,008_y_m_n_a.png,O,m,566,9,1,1574.9000000003725,535836.6999999997,7082,NNB,A,8
9,test,5,0.0,1-Back,1,m,Wed Mar 12 2025 17:33:44 GMT-0500 (Central Daylight Time),539461.6999999997,010_y_f_n_a.png,O,m,1033,10,1,2039.8999999999069,537421.7999999998,7082,NNB,A,9
10,test,5,0.0,1-Back,1,m,Wed Mar 12 2025 17:33:44 GMT-0500 (Central Daylight Time),541176.0,047_o_f_n_a.png,O,m,685,11,1,1704.5,539471.5,7082,NNB,A,10
11,test,5,1.0,1-Back,1,z,Wed Mar 12 2025 17:33:44 GMT-0500 (Central Daylight Time),542826.8999999999,047_o_f_n_a.png,O,z,634,12,1,1639.7000000001863,541187.1999999997,7082,NNB,A,11
12,test,5,0.0,1-Back,1,m,Wed Mar 12 2025 17:33:44 GMT-0500 (Central Daylight Time),544375.0,046_o_m_n_a.png,O,m,517,13,1,1539.7000000001863,542835.2999999998,7082,NNB,A,12
13,test,5,0.0,1-Back,1,m,Wed Mar 12 2025 17:33:44 GMT-0500 (Central Daylight Time),545908.1000000001,050_m_f_n_a.png,O,m,506,14,1,1524.0,544384.1000000001,7082,NNB,A,13
14,test,5,1.0,1-Back,1,z,Wed Mar 12 2025 17:33:44 GMT-0500 (Central Daylight Time),547606.8999999999,050_m_f_n_a.png,O,z,668,15,1,1689.7999999998137,545917.1000000001,7082,NNB,A,14
15,test,5,0.0,1-Back,1,m,Wed Mar 12 2025 17:33:44 GMT-0500 (Central Daylight Time),549254.8999999999,046_o_m_n_a.png,O,m,625,16,1,1637.8999999999069,547617.0,7082,NNB,A,15
16,test,5,0.0,1-Back,1,m,Wed Mar 12 2025 17:33:44 GMT-0500 (Central Daylight Time),550953.3999999999,043_m_f_n_a.png,O,m,672,17,1,1693.7000000001863,549259.6999999997,7082,NNB,A,16
17,test,5,0.0,1-Back,1,m,Wed Mar 12 2025 17:33:44 GMT-0500 (Central Daylight Time),552523.3999999999,045_m_m_n_a.png,O,m,550,18,1,1564.2999999998137,550959.1000000001,7082,NNB,A,17
0,prac,1,0.0,2-Back,,,Wed Mar 12 2025 17:33:44 GMT-0500 (Central Daylight Time),552523.3999999999,008_y_m_n_a.png,O,space,9933,1,1,1564.2999999998137,550959.1000000001,7082,NNB,A,0
0,prac,1,0.0,2-Back,,,Wed Mar 12 2025 17:33:44 GMT-0500 (Central Daylight Time),552523.3999999999,043_m_f_n_a.png,O,space,9933,2,1,1564.2999999998137,550959.1000000001,7082,NNB,A,0
0,prac,1,1.0,2-Back,0,m,Wed Mar 12 2025 17:33:44 GMT-0500 (Central Daylight Time),822687.3000000003,046_o_m_n_a.png,O,None,2017,3,1,2805.0,819882.3000000003,7082,NNB,A,1
0,prac,1,0.0,2-Back,0,m,Wed Mar 12 2025 17:33:44 GMT-0500 (Central Daylight Time),825520.8999999999,047_o_f_n_a.png,O,None,2005,4,1,2823.2999999998137,822697.6000000001,7082,NNB,A,2
0,prac,1,0.0,2-Back,0,z,Wed Mar 12 2025 17:33:44 GMT-0500 (Central Daylight Time),828301.8999999999,046_o_m_n_a.png,O,None,2004,5,1,2770.4000000003725,825531.4999999995,7082,NNB,A,3
0,prac,1,1.0,2-Back,0,z,Wed Mar 12 2025 17:33:44 GMT-0500 (Central Daylight Time),830101.3999999999,047_o_f_n_a.png,O,m,1018,6,1,1788.2000000001863,828313.1999999997,7082,NNB,A,4
0,prac,1,0.0,2-Back,0,m,Wed Mar 12 2025 17:33:44 GMT-0500 (Central Daylight Time),832900.8000000003,045_m_m_n_a.png,O,None,2010,7,1,2788.7000000001863,830112.1000000001,7082,NNB,A,5
0,prac,1,0.0,2-Back,0,m,Wed Mar 12 2025 17:33:44 GMT-0500 (Central Daylight Time),835716.1000000001,053_o_m_n_a.png,O,None,2010,8,1,2808.5,832907.6000000001,7082,NNB,A,6
0,prac,1,0.0,2-Back,0,m,Wed Mar 12 2025 17:33:44 GMT-0500 (Central Daylight Time),838547.4999999995,010_y_f_n_a.png,O,None,2004,9,1,2819.199999999255,835728.3000000003,7082,NNB,A,7
0,prac,1,1.0,2-Back,0,z,Wed Mar 12 2025 17:33:44 GMT-0500 (Central Daylight Time),841330.1000000001,053_o_m_n_a.png,O,None,2003,10,1,2770.100000000559,838559.9999999995,7082,NNB,A,8
1,prac,1,0.0,2-Back,1,m,Wed Mar 12 2025 17:33:44 GMT-0500 (Central Daylight Time),843513.8000000003,063_y_f_n_a.png,O,m,1363,11,1,2172.9000000003725,841340.8999999999,7082,NNB,A,9
2,prac,1,0.0,2-Back,1,m,Wed Mar 12 2025 17:33:44 GMT-0500 (Central Daylight Time),846045.1999999997,045_m_m_n_a.png,O,m,1741,12,1,2521.2000000001863,843523.9999999995,7082,NNB,A,10
0,prac,2,0.0,2-Back,,,Wed Mar 12 2025 17:33:44 GMT-0500 (Central Daylight Time),846045.1999999997,008_y_m_n_a.png,O,a,13591,1,1,2521.2000000001863,843523.9999999995,7082,NNB,A,0
0,prac,2,0.0,2-Back,,,Wed Mar 12 2025 17:33:44 GMT-0500 (Central Daylight Time),846045.1999999997,043_m_f_n_a.png,O,a,13591,2,1,2521.2000000001863,843523.9999999995,7082,NNB,A,0
1,prac,2,1.0,2-Back,1,m,Wed Mar 12 2025 17:33:44 GMT-0500 (Central Daylight Time),866471.3999999999,046_o_m_n_a.png,O,m,920,3,1,1704.2999999998137,864767.1000000001,7082,NNB,A,1
2,prac,2,0.0,2-Back,1,m,Wed Mar 12 2025 17:33:44 GMT-0500 (Central Daylight Time),868055.6000000001,047_o_f_n_a.png,O,m,799,4,1,1572.7000000001863,866482.8999999999,7082,NNB,A,2
2,prac,2,0.0,2-Back,0,z,Wed Mar 12 2025 17:33:44 GMT-0500 (Central Daylight Time),869523.6000000001,046_o_m_n_a.png,O,m,697,5,1,1458.5,868065.1000000001,7082,NNB,A,3
2,prac,2,1.0,2-Back,0,z,Wed Mar 12 2025 17:33:44 GMT-0500 (Central Daylight Time),871936.1999999997,047_o_f_n_a.png,O,m,1627,6,1,2402.2000000001863,869533.9999999995,7082,NNB,A,4
3,prac,2,0.0,2-Back,1,m,Wed Mar 12 2025 17:33:44 GMT-0500 (Central Daylight Time),873653.8999999999,045_m_m_n_a.png,O,m,955,7,1,1711.2999999998137,871942.6000000001,7082,NNB,A,5
4,prac,2,0.0,2-Back,1,m,Wed Mar 12 2025 17:33:44 GMT-0500 (Central Daylight Time),875284.9999999995,053_o_m_n_a.png,O,m,842,8,1,1621.199999999255,873663.8000000003,7082,NNB,A,6
4,prac,2,0.0,2-Back,0,m,Wed Mar 12 2025 17:33:44 GMT-0500 (Central Daylight Time),877084.8999999999,010_y_f_n_a.png,O,z,1011,9,1,1790.2999999998137,875294.6000000001,7082,NNB,A,7
5,prac,2,1.0,2-Back,1,z,Wed Mar 12 2025 17:33:44 GMT-0500 (Central Daylight Time),878883.1999999997,053_o_m_n_a.png,O,z,1010,10,1,1788.2000000001863,877094.9999999995,7082,NNB,A,8
6,prac,2,0.0,2-Back,1,m,Wed Mar 12 2025 17:33:44 GMT-0500 (Central Daylight Time),880836.3000000003,063_y_f_n_a.png,O,m,1181,11,1,1947.4000000003725,878888.8999999999,7082,NNB,A,9
7,prac,2,0.0,2-Back,1,m,Wed Mar 12 2025 17:33:44 GMT-0500 (Central Daylight Time),882701.6999999997,045_m_m_n_a.png,O,m,1072,12,1,1854.7000000001863,880846.9999999995,7082,NNB,A,10
0,test,1,0.0,2-Back,,,Wed Mar 12 2025 17:33:44 GMT-0500 (Central Daylight Time),882701.6999999997,041_y_m_n_a.png,O,space,5438,1,1,1854.7000000001863,880846.9999999995,7082,NNB,A,0
0,test,1,0.0,2-Back,,,Wed Mar 12 2025 17:33:44 GMT-0500 (Central Daylight Time),882701.6999999997,041_y_m_n_a.png,O,space,5438,2,1,1854.7000000001863,880846.9999999995,7082,NNB,A,0
1,test,1,0.0,2-Back,1,m,Wed Mar 12 2025 17:33:44 GMT-0500 (Central Daylight Time),911592.1999999997,047_o_f_n_a.png,O,m,802,3,1,1822.8999999994412,909769.3000000003,7082,NNB,A,1
2,test,1,0.0,2-Back,1,m,Wed Mar 12 2025 17:33:44 GMT-0500 (Central Daylight Time),913457.3000000003,058_m_m_n_a.png,O,m,841,4,1,1855.6000000005588,911601.6999999997,7082,NNB,A,2
2,test,1,1.0,2-Back,0,z,Wed Mar 12 2025 17:33:44 GMT-0500 (Central Daylight Time),915439.6000000001,047_o_f_n_a.png,O,m,952,5,1,1973.6000000005588,913465.9999999995,7082,NNB,A,3
3,test,1,0.0,2-Back,1,m,Wed Mar 12 2025 17:33:44 GMT-0500 (Central Daylight Time),917290.3000000003,063_y_f_n_a.png,O,m,817,6,1,1843.300000000745,915446.9999999995,7082,NNB,A,4
3,test,1,0.0,2-Back,0,m,Wed Mar 12 2025 17:33:44 GMT-0500 (Central Daylight Time),919605.3999999999,058_m_m_n_a.png,O,z,1287,7,1,2306.7000000001863,917298.6999999997,7082,NNB,A,5
4,test,1,1.0,2-Back,1,z,Wed Mar 12 2025 17:33:44 GMT-0500 (Central Daylight Time),921804.6999999997,063_y_f_n_a.png,O,z,1180,8,1,2190.2999999998137,919614.3999999999,7082,NNB,A,6
5,test,1,0.0,2-Back,1,m,Wed Mar 12 2025 17:33:44 GMT-0500 (Central Daylight Time),924254.1000000001,008_y_m_n_a.png,O,m,1421,9,1,2440.600000000559,921813.4999999995,7082,NNB,A,7
6,test,1,0.0,2-Back,1,m,Wed Mar 12 2025 17:33:44 GMT-0500 (Central Daylight Time),926103.3000000003,044_o_f_n_a.png,O,m,817,10,1,1840.800000000745,924262.4999999995,7082,NNB,A,8
7,test,1,1.0,2-Back,1,z,Wed Mar 12 2025 17:33:44 GMT-0500 (Central Daylight Time),928370.6999999997,008_y_m_n_a.png,O,z,1232,11,1,2258.5,926112.1999999997,7082,NNB,A,9
8,test,1,0.0,2-Back,1,m,Wed Mar 12 2025 17:33:44 GMT-0500 (Central Daylight Time),930519.1999999997,043_m_f_n_a.png,O,m,1119,12,1,2139.5999999996275,928379.6000000001,7082,NNB,A,10
9,test,1,0.0,2-Back,1,m,Wed Mar 12 2025 17:33:44 GMT-0500 (Central Daylight Time),933200.6999999997,043_m_f_n_a.png,O,m,1657,13,1,2672.5999999996275,930528.1000000001,7082,NNB,A,11
9,test,1,0.0,2-Back,0,m,Wed Mar 12 2025 17:33:44 GMT-0500 (Central Daylight Time),935450.4999999995,046_o_m_n_a.png,O,z,1223,14,1,2240.199999999255,933210.3000000003,7082,NNB,A,12
10,test,1,0.0,2-Back,1,m,Wed Mar 12 2025 17:33:44 GMT-0500 (Central Daylight Time),937301.1000000001,044_o_f_n_a.png,O,m,833,15,1,1841.2999999998137,935459.8000000003,7082,NNB,A,13
10,test,1,1.0,2-Back,0,z,Wed Mar 12 2025 17:33:44 GMT-0500 (Central Daylight Time),939264.1999999997,046_o_m_n_a.png,O,m,938,16,1,1954.0,937310.1999999997,7082,NNB,A,14
11,test,1,0.0,2-Back,1,m,Wed Mar 12 2025 17:33:44 GMT-0500 (Central Daylight Time),941448.6000000001,050_m_f_n_a.png,O,m,1159,17,1,2177.5,939271.1000000001,7082,NNB,A,15
12,test,1,0.0,2-Back,1,m,Wed Mar 12 2025 17:33:44 GMT-0500 (Central Daylight Time),943514.4999999995,045_m_m_n_a.png,O,m,1040,18,1,2056.7999999998137,941457.6999999997,7082,NNB,A,16
0,test,2,0.0,2-Back,,,Wed Mar 12 2025 17:33:44 GMT-0500 (Central Daylight Time),943514.4999999995,045_m_m_n_a.png,O,space,7998,1,1,2056.7999999998137,941457.6999999997,7082,NNB,A,0
0,test,2,0.0,2-Back,,,Wed Mar 12 2025 17:33:44 GMT-0500 (Central Daylight Time),943514.4999999995,010_y_f_n_a.png,O,space,7998,2,1,2056.7999999998137,941457.6999999997,7082,NNB,A,0
1,test,2,1.0,2-Back,1,z,Wed Mar 12 2025 17:33:44 GMT-0500 (Central Daylight Time),958694.1999999997,045_m_m_n_a.png,O,z,1050,3,1,2055.2000000001863,956638.9999999995,7082,NNB,A,1
2,test,2,0.0,2-Back,1,m,Wed Mar 12 2025 17:33:44 GMT-0500 (Central Daylight Time),960443.1000000001,050_m_f_n_a.png,O,m,725,4,1,1739.2999999998137,958703.8000000003,7082,NNB,A,2
3,test,2,0.0,2-Back,1,m,Wed Mar 12 2025 17:33:44 GMT-0500 (Central Daylight Time),962408.8999999999,010_y_f_n_a.png,O,m,943,5,1,1956.7999999998137,960452.1000000001,7082,NNB,A,3
4,test,2,0.0,2-Back,1,m,Wed Mar 12 2025 17:33:44 GMT-0500 (Central Daylight Time),964291.6999999997,046_o_m_n_a.png,O,m,856,6,1,1873.7000000001863,962417.9999999995,7082,NNB,A,4
5,test,2,0.0,2-Back,1,m,Wed Mar 12 2025 17:33:44 GMT-0500 (Central Daylight Time),966173.3000000003,063_y_f_n_a.png,O,m,854,7,1,1873.800000000745,964299.4999999995,7082,NNB,A,5
5,test,2,1.0,2-Back,0,z,Wed Mar 12 2025 17:33:44 GMT-0500 (Central Daylight Time),968305.9999999995,046_o_m_n_a.png,O,m,1105,8,1,2123.5999999996275,966182.3999999999,7082,NNB,A,6
6,test,2,0.0,2-Back,1,m,Wed Mar 12 2025 17:33:44 GMT-0500 (Central Daylight Time),970289.6999999997,008_y_m_n_a.png,O,m,959,9,1,1978.7000000001863,968310.9999999995,7082,NNB,A,7
7,test,2,0.0,2-Back,1,m,Wed Mar 12 2025 17:33:44 GMT-0500 (Central Daylight Time),972405.1000000001,008_y_m_n_a.png,O,m,1099,10,1,2105.100000000559,970299.9999999995,7082,NNB,A,8
8,test,2,0.0,2-Back,1,m,Wed Mar 12 2025 17:33:44 GMT-0500 (Central Daylight Time),974353.8000000003,043_m_f_n_a.png,O,m,916,11,1,1940.300000000745,972413.4999999995,7082,NNB,A,9
9,test,2,0.0,2-Back,1,m,Wed Mar 12 2025 17:33:44 GMT-0500 (Central Daylight Time),976522.4999999995,010_y_f_n_a.png,O,m,1141,12,1,2161.399999999441,974361.1000000001,7082,NNB,A,10
9,test,2,1.0,2-Back,0,z,Wed Mar 12 2025 17:33:44 GMT-0500 (Central Daylight Time),978469.3000000003,043_m_f_n_a.png,O,m,928,13,1,1938.2000000001863,976531.1000000001,7082,NNB,A,11
10,test,2,0.0,2-Back,1,m,Wed Mar 12 2025 17:33:44 GMT-0500 (Central Daylight Time),980486.3999999999,053_o_m_n_a.png,O,m,988,14,1,2007.0999999996275,978479.3000000003,7082,NNB,A,12
11,test,2,0.0,2-Back,1,m,Wed Mar 12 2025 17:33:44 GMT-0500 (Central Daylight Time),982536.3999999999,053_o_m_n_a.png,O,m,1018,15,1,2038.2000000001863,980498.1999999997,7082,NNB,A,13
12,test,2,0.0,2-Back,1,m,Wed Mar 12 2025 17:33:44 GMT-0500 (Central Daylight Time),984568.6999999997,044_o_f_n_a.png,O,m,1010,16,1,2023.0,982545.6999999997,7082,NNB,A,14
13,test,2,0.0,2-Back,1,m,Wed Mar 12 2025 17:33:44 GMT-0500 (Central Daylight Time),986451.1000000001,058_m_m_n_a.png,O,m,856,17,1,1872.7999999998137,984578.3000000003,7082,NNB,A,15
14,test,2,1.0,2-Back,1,z,Wed Mar 12 2025 17:33:44 GMT-0500 (Central Daylight Time),988351.1999999997,044_o_f_n_a.png,O,z,869,18,1,1891.0999999996275,986460.1000000001,7082,NNB,A,16
0,test,3,1.0,2-Back,,,Wed Mar 12 2025 17:33:44 GMT-0500 (Central Daylight Time),988351.1999999997,041_y_m_n_a.png,O,space,2539,1,1,1891.0999999996275,986460.1000000001,7082,NNB,A,0
0,test,3,1.0,2-Back,,,Wed Mar 12 2025 17:33:44 GMT-0500 (Central Daylight Time),988351.1999999997,041_y_m_n_a.png,O,space,2539,2,1,1891.0999999996275,986460.1000000001,7082,NNB,A,0
1,test,3,0.0,2-Back,1,m,Wed Mar 12 2025 17:33:44 GMT-0500 (Central Daylight Time),997495.1999999997,044_o_f_n_a.png,O,m,483,3,1,1501.8999999994412,995993.3000000003,7082,NNB,A,1
2,test,3,0.0,2-Back,1,m,Wed Mar 12 2025 17:33:44 GMT-0500 (Central Daylight Time),999180.3000000003,045_m_m_n_a.png,O,m,656,4,1,1672.6000000005588,997507.6999999997,7082,NNB,A,2
3,test,3,1.0,2-Back,1,z,Wed Mar 12 2025 17:33:44 GMT-0500 (Central Daylight Time),1001147.3000000003,044_o_f_n_a.png,O,z,950,5,1,1956.1000000005588,999191.1999999997,7082,NNB,A,3
4,test,3,0.0,2-Back,1,m,Wed Mar 12 2025 17:33:44 GMT-0500 (Central Daylight Time),1003077.6999999997,008_y_m_n_a.png,O,m,901,6,1,1921.8999999994412,1001155.8000000003,7082,NNB,A,4
4,test,3,0.0,2-Back,0,m,Wed Mar 12 2025 17:33:44 GMT-0500 (Central Daylight Time),1005461.3999999999,045_m_m_n_a.png,O,z,1362,7,1,2373.7000000001863,1003087.6999999997,7082,NNB,A,5
5,test,3,1.0,2-Back,1,z,Wed Mar 12 2025 17:33:44 GMT-0500 (Central Daylight Time),1007577.8000000003,008_y_m_n_a.png,O,z,1091,8,1,2107.600000000559,1005470.1999999997,7082,NNB,A,6
6,test,3,0.0,2-Back,1,m,Wed Mar 12 2025 17:33:44 GMT-0500 (Central Daylight Time),1009377.4999999995,010_y_f_n_a.png,O,m,767,9,1,1790.0999999996275,1007587.3999999999,7082,NNB,A,7
7,test,3,0.0,2-Back,1,m,Wed Mar 12 2025 17:33:44 GMT-0500 (Central Daylight Time),1011227.1000000001,058_m_m_n_a.png,O,m,831,10,1,1840.5,1009386.6000000001,7082,NNB,A,8
7,test,3,1.0,2-Back,0,z,Wed Mar 12 2025 17:33:44 GMT-0500 (Central Daylight Time),1013242.6000000001,010_y_f_n_a.png,O,m,989,11,1,2008.7999999998137,1011233.8000000003,7082,NNB,A,9
8,test,3,1.0,2-Back,1,z,Wed Mar 12 2025 17:33:44 GMT-0500 (Central Daylight Time),1014875.4999999995,058_m_m_n_a.png,O,z,606,12,1,1622.8999999994412,1013252.6000000001,7082,NNB,A,10
9,test,3,0.0,2-Back,1,m,Wed Mar 12 2025 17:33:44 GMT-0500 (Central Daylight Time),1016843.4999999995,044_o_f_n_a.png,O,m,951,13,1,1958.0,1014885.4999999995,7082,NNB,A,11
10,test,3,0.0,2-Back,1,m,Wed Mar 12 2025 17:33:44 GMT-0500 (Central Daylight Time),1018774.6000000001,050_m_f_n_a.png,O,m,904,14,1,1920.9000000003725,1016853.6999999997,7082,NNB,A,12
11,test,3,0.0,2-Back,1,m,Wed Mar 12 2025 17:33:44 GMT-0500 (Central Daylight Time),1020474.3999999999,046_o_m_n_a.png,O,m,675,15,1,1690.0999999996275,1018784.3000000003,7082,NNB,A,13
12,test,3,1.0,2-Back,1,z,Wed Mar 12 2025 17:33:44 GMT-0500 (Central Daylight Time),1022672.1000000001,050_m_f_n_a.png,O,z,1166,16,1,2187.4000000003725,1020484.6999999997,7082,NNB,A,14
13,test,3,0.0,2-Back,1,m,Wed Mar 12 2025 17:33:44 GMT-0500 (Central Daylight Time),1024307.1000000001,047_o_f_n_a.png,O,m,616,17,1,1626.2999999998137,1022680.8000000003,7082,NNB,A,15
14,test,3,0.0,2-Back,1,m,Wed Mar 12 2025 17:33:44 GMT-0500 (Central Daylight Time),1026337.4999999995,047_o_f_n_a.png,O,m,999,18,1,2020.5999999996275,1024316.8999999999,7082,NNB,A,16
0,test,4,0.0,2-Back,,,Wed Mar 12 2025 17:33:44 GMT-0500 (Central Daylight Time),1026337.4999999995,053_o_m_n_a.png,O,space,3241,1,1,2020.5999999996275,1024316.8999999999,7082,NNB,A,0
0,test,4,0.0,2-Back,,,Wed Mar 12 2025 17:33:44 GMT-0500 (Central Daylight Time),1026337.4999999995,063_y_f_n_a.png,O,space,3241,2,1,2020.5999999996275,1024316.8999999999,7082,NNB,A,0
1,test,4,1.0,2-Back,1,z,Wed Mar 12 2025 17:33:44 GMT-0500 (Central Daylight Time),1036535.9999999995,053_o_m_n_a.png,O,z,818,3,1,1840.3999999994412,1034695.6000000001,7082,NNB,A,1
2,test,4,1.0,2-Back,1,z,Wed Mar 12 2025 17:33:44 GMT-0500 (Central Daylight Time),1038501.6999999997,063_y_f_n_a.png,O,z,948,4,1,1956.7000000001863,1036544.9999999995,7082,NNB,A,2
2,test,4,0.0,2-Back,0,m,Wed Mar 12 2025 17:33:44 GMT-0500 (Central Daylight Time),1040782.6999999997,044_o_f_n_a.png,O,z,1251,5,1,2271.7999999998137,1038510.8999999999,7082,NNB,A,3
3,test,4,0.0,2-Back,1,m,Wed Mar 12 2025 17:33:44 GMT-0500 (Central Daylight Time),1042799.8000000003,044_o_f_n_a.png,O,m,986,6,1,2007.9000000003725,1040791.8999999999,7082,NNB,A,4
4,test,4,0.0,2-Back,1,m,Wed Mar 12 2025 17:33:44 GMT-0500 (Central Daylight Time),1044933.1000000001,043_m_f_n_a.png,O,m,1116,7,1,2124.2999999998137,1042808.8000000003,7082,NNB,A,5
5,test,4,0.0,2-Back,1,m,Wed Mar 12 2025 17:33:44 GMT-0500 (Central Daylight Time),1046831.8000000003,008_y_m_n_a.png,O,m,869,8,1,1890.2000000001863,1044941.6000000001,7082,NNB,A,6
6,test,4,1.0,2-Back,1,z,Wed Mar 12 2025 17:33:44 GMT-0500 (Central Daylight Time),1048448.1000000001,043_m_f_n_a.png,O,z,585,9,1,1606.2999999998137,1046841.8000000003,7082,NNB,A,7
7,test,4,0.0,2-Back,1,m,Wed Mar 12 2025 17:33:44 GMT-0500 (Central Daylight Time),1050247.1,058_m_m_n_a.png,O,m,778,10,1,1789.7000000001863,1048457.3999999999,7082,NNB,A,8
7,test,4,0.0,2-Back,0,m,Wed Mar 12 2025 17:33:44 GMT-0500 (Central Daylight Time),1052746.4,008_y_m_n_a.png,O,z,1474,11,1,2489.0999999996275,1050257.3000000003,7082,NNB,A,9
8,test,4,0.0,2-Back,1,m,Wed Mar 12 2025 17:33:44 GMT-0500 (Central Daylight Time),1054662.6,047_o_f_n_a.png,O,m,887,12,1,1906.7000000001863,1052755.9,7082,NNB,A,10
9,test,4,0.0,2-Back,1,m,Wed Mar 12 2025 17:33:44 GMT-0500 (Central Daylight Time),1056710.8000000003,041_y_m_n_a.png,O,m,1019,13,1,2038.6000000005588,1054672.1999999997,7082,NNB,A,11
10,test,4,1.0,2-Back,1,z,Wed Mar 12 2025 17:33:44 GMT-0500 (Central Daylight Time),1058795.6999999997,047_o_f_n_a.png,O,z,1051,14,1,2075.899999999441,1056719.8000000003,7082,NNB,A,12
10,test,4,1.0,2-Back,0,z,Wed Mar 12 2025 17:33:44 GMT-0500 (Central Daylight Time),1060777.3000000003,041_y_m_n_a.png,O,m,950,15,1,1973.1000000005588,1058804.1999999997,7082,NNB,A,13
11,test,4,0.0,2-Back,1,m,Wed Mar 12 2025 17:33:44 GMT-0500 (Central Daylight Time),1062610.6,045_m_m_n_a.png,O,m,807,16,1,1824.7999999998137,1060785.8000000003,7082,NNB,A,14
12,test,4,0.0,2-Back,1,m,Wed Mar 12 2025 17:33:44 GMT-0500 (Central Daylight Time),1064309.1999999997,050_m_f_n_a.png,O,m,670,17,1,1690.0999999996275,1062619.1,7082,NNB,A,15
13,test,4,1.0,2-Back,1,z,Wed Mar 12 2025 17:33:44 GMT-0500 (Central Daylight Time),1066092.1,045_m_m_n_a.png,O,z,766,18,1,1772.7999999998137,1064319.3000000003,7082,NNB,A,16
0,test,5,1.0,2-Back,,,Wed Mar 12 2025 17:33:44 GMT-0500 (Central Daylight Time),1066092.1,041_y_m_n_a.png,O,space,2509,1,1,1772.7999999998137,1064319.3000000003,7082,NNB,A,0
0,test,5,1.0,2-Back,,,Wed Mar 12 2025 17:33:44 GMT-0500 (Central Daylight Time),1066092.1,050_m_f_n_a.png,O,space,2509,2,1,1772.7999999998137,1064319.3000000003,7082,NNB,A,0
1,test,5,1.0,2-Back,1,z,Wed Mar 12 2025 17:33:44 GMT-0500 (Central Daylight Time),1075673.1999999997,041_y_m_n_a.png,O,z,985,3,1,2008.0999999996275,1073665.1,7082,NNB,A,1
2,test,5,1.0,2-Back,1,z,Wed Mar 12 2025 17:33:44 GMT-0500 (Central Daylight Time),1077354.9999999995,050_m_f_n_a.png,O,z,657,4,1,1672.199999999255,1075682.8000000003,7082,NNB,A,2
3,test,5,0.0,2-Back,1,m,Wed Mar 12 2025 17:33:44 GMT-0500 (Central Daylight Time),1079654.1999999997,047_o_f_n_a.png,O,m,1278,5,1,2289.5,1077364.6999999997,7082,NNB,A,3
3,test,5,0.0,2-Back,0,m,Wed Mar 12 2025 17:33:44 GMT-0500 (Central Daylight Time),1081603.1,041_y_m_n_a.png,O,z,929,6,1,1942.5,1079660.6,7082,NNB,A,4
4,test,5,0.0,2-Back,1,m,Wed Mar 12 2025 17:33:44 GMT-0500 (Central Daylight Time),1083502.6999999997,010_y_f_n_a.png,O,m,869,7,1,1891.8999999994412,1081610.8000000003,7082,NNB,A,5
5,test,5,0.0,2-Back,1,m,Wed Mar 12 2025 17:33:44 GMT-0500 (Central Daylight Time),1085435.8000000003,047_o_f_n_a.png,O,m,906,8,1,1924.300000000745,1083511.4999999995,7082,NNB,A,6
5,test,5,1.0,2-Back,0,z,Wed Mar 12 2025 17:33:44 GMT-0500 (Central Daylight Time),1087768.1999999997,010_y_f_n_a.png,O,m,1311,9,1,2323.2000000001863,1085444.9999999995,7082,NNB,A,7
6,test,5,0.0,2-Back,1,m,Wed Mar 12 2025 17:33:44 GMT-0500 (Central Daylight Time),1089684.6,046_o_m_n_a.png,O,m,895,10,1,1906.7999999998137,1087777.8000000003,7082,NNB,A,8
7,test,5,0.0,2-Back,1,m,Wed Mar 12 2025 17:33:44 GMT-0500 (Central Daylight Time),1091418.6999999997,043_m_f_n_a.png,O,m,707,11,1,1724.7000000001863,1089693.9999999995,7082,NNB,A,9
8,test,5,0.0,2-Back,1,m,Wed Mar 12 2025 17:33:44 GMT-0500 (Central Daylight Time),1093300.1,058_m_m_n_a.png,O,m,863,12,1,1875.6000000005588,1091424.4999999995,7082,NNB,A,10
9,test,5,0.0,2-Back,1,m,Wed Mar 12 2025 17:33:44 GMT-0500 (Central Daylight Time),1095599.4,046_o_m_n_a.png,O,m,1277,13,1,2291.5,1093307.9,7082,NNB,A,11
9,test,5,1.0,2-Back,0,z,Wed Mar 12 2025 17:33:44 GMT-0500 (Central Daylight Time),1097483.8000000003,058_m_m_n_a.png,O,m,848,14,1,1875.4000000003725,1095608.4,7082,NNB,A,12
10,test,5,0.0,2-Back,1,m,Wed Mar 12 2025 17:33:44 GMT-0500 (Central Daylight Time),1099216.1,063_y_f_n_a.png,O,m,703,15,1,1723.7000000001863,1097492.4,7082,NNB,A,13
11,test,5,0.0,2-Back,1,m,Wed Mar 12 2025 17:33:44 GMT-0500 (Central Daylight Time),1101180.8000000003,053_o_m_n_a.png,O,m,937,16,1,1952.9000000003725,1099227.9,7082,NNB,A,14
12,test,5,0.0,2-Back,1,m,Wed Mar 12 2025 17:33:44 GMT-0500 (Central Daylight Time),1103882.1,043_m_f_n_a.png,O,m,1682,17,1,2691.9000000003725,1101190.1999999997,7082,NNB,A,15
13,test,5,1.0,2-Back,1,z,Wed Mar 12 2025 17:33:44 GMT-0500 (Central Daylight Time),1106280.8000000003,053_o_m_n_a.png,O,z,1370,18,1,2390.9000000003725,1103889.9,7082,NNB,A,16
