acc_sum,block,block_c,block_cond,con_img,correct,correct_response,datetime,endtime,face,jitter,line,project,response,response_time,row_sel,session_number,start_end,starttime,subject_id,task,task_vers,trial
1,prac,1,A,haborder.png,1,z,Fri May 02 2025 13:40:54 GMT-0500 (Central Daylight Time),68794.0,CFD-WF-037-016-A.jpg,1600,solid,I,z,1069,10,2,3464.699999988079,65329.30000001192,8014,ATS,C,1
2,prac,1,A,haborder.png,1,z,Fri May 02 2025 13:40:54 GMT-0500 (Central Daylight Time),71526.20000001788,CFD-WF-023-013-A.jpg,1000,solid,I,z,939,12,2,6196.9000000059605,65329.30000001192,8014,ATS,C,2
3,prac,1,A,haborder.png,1,m,Fri May 02 2025 13:40:54 GMT-0500 (Central Daylight Time),74975.09999999404,CFD-BM-034-035-HC.jpg,1700,solid,I,m,963,1,2,9645.799999982119,65329.30000001192,8014,ATS,C,3
4,prac,1,A,haborder.png,1,z,Fri May 02 2025 13:40:54 GMT-0500 (Central Daylight Time),77624.30000001192,CFD-BF-031-020-A.jpg,1000,solid,I,z,862,4,2,12295.0,65329.30000001192,8014,ATS,C,4
5,prac,1,A,haborder.png,1,m,Fri May 02 2025 13:40:54 GMT-0500 (Central Daylight Time),81323.09999999404,CFD-BF-019-004-HC.jpg,2000,solid,I,m,901,5,2,15993.799999982119,65329.30000001192,8014,ATS,C,5
6,prac,1,A,haborder.png,1,z,Fri May 02 2025 13:40:54 GMT-0500 (Central Daylight Time),84572.30000001192,CFD-BM-043-014-A.jpg,1600,solid,I,z,858,2,2,19243.0,65329.30000001192,8014,ATS,C,6
7,prac,1,A,haborder.png,1,z,Fri May 02 2025 13:40:54 GMT-0500 (Central Daylight Time),88070.90000000596,CFD-WM-036-018-A.jpg,1900,solid,I,z,805,8,2,22741.59999999404,65329.30000001192,8014,ATS,C,7
8,prac,1,A,haborder.png,1,m,Fri May 02 2025 13:40:54 GMT-0500 (Central Daylight Time),91236.80000001192,CFD-WF-013-009-HC.jpg,1500,solid,I,m,879,11,2,25907.5,65329.30000001192,8014,ATS,C,8
9,prac,1,A,haborder.png,1,m,Fri May 02 2025 13:40:54 GMT-0500 (Central Daylight Time),94169.20000001788,CFD-BM-022-004-HC.jpg,1500,solid,I,m,645,3,2,28839.90000000596,65329.30000001192,8014,ATS,C,9
10,prac,1,A,haborder.png,1,z,Fri May 02 2025 13:40:54 GMT-0500 (Central Daylight Time),96801.70000001788,CFD-BF-002-018-A.jpg,1200,solid,I,z,644,6,2,31472.40000000596,65329.30000001192,8014,ATS,C,10
11,prac,1,A,haborder.png,1,m,Fri May 02 2025 13:40:54 GMT-0500 (Central Daylight Time),99917.40000000596,CFD-WM-035-036-HC.jpg,1700,solid,I,m,632,9,2,34588.09999999404,65329.30000001192,8014,ATS,C,11
12,prac,1,A,haborder.png,1,m,Fri May 02 2025 13:40:54 GMT-0500 (Central Daylight Time),102716.59999999404,CFD-WM-028-005-HC.jpg,1400,solid,I,m,600,7,2,37387.29999998212,65329.30000001192,8014,ATS,C,12
1,prac,1,B,mfborder.png,1,z,Fri May 02 2025 13:40:54 GMT-0500 (Central Daylight Time),125859.20000001788,CFD-BF-019-004-HC.jpg,1400,7,I,z,992,dash,2,3182.100000023842,122677.09999999404,8014,ATS,C,1
2,prac,1,B,mfborder.png,1,z,Fri May 02 2025 13:40:54 GMT-0500 (Central Daylight Time),128991.70000001788,CFD-BF-042-031-HC.jpg,1500,3,I,z,838,dash,2,6314.600000023842,122677.09999999404,8014,ATS,C,2
3,prac,1,B,mfborder.png,1,m,Fri May 02 2025 13:40:54 GMT-0500 (Central Daylight Time),132090.70000001788,CFD-BM-022-004-HC.jpg,1700,1,I,m,610,dash,2,9413.600000023842,122677.09999999404,8014,ATS,C,3
4,prac,1,B,mfborder.png,1,m,Fri May 02 2025 13:40:54 GMT-0500 (Central Daylight Time),135356.40000000596,CFD-WM-036-018-A.jpg,1700,9,I,m,775,dash,2,12679.300000011921,122677.09999999404,8014,ATS,C,4
5,prac,1,B,mfborder.png,1,z,Fri May 02 2025 13:40:54 GMT-0500 (Central Daylight Time),138238.59999999404,CFD-WF-013-009-HC.jpg,1000,12,I,z,959,dash,2,15561.5,122677.09999999404,8014,ATS,C,5
6,prac,1,B,mfborder.png,1,m,Fri May 02 2025 13:40:54 GMT-0500 (Central Daylight Time),141254.30000001192,CFD-WM-035-036-HC.jpg,1600,10,I,m,623,dash,2,18577.20000001788,122677.09999999404,8014,ATS,C,6
7,prac,1,B,mfborder.png,1,z,Fri May 02 2025 13:40:54 GMT-0500 (Central Daylight Time),144986.59999999404,CFD-WF-001-010-HC.jpg,1900,8,I,z,1035,dash,2,22309.5,122677.09999999404,8014,ATS,C,7
8,prac,1,B,mfborder.png,1,z,Fri May 02 2025 13:40:54 GMT-0500 (Central Daylight Time),147969.0,CFD-WF-037-016-A.jpg,1500,11,I,z,694,dash,2,25291.90000000596,122677.09999999404,8014,ATS,C,8
8,prac,1,B,mfborder.png,0,m,Fri May 02 2025 13:40:54 GMT-0500 (Central Daylight Time),151401.30000001192,CFD-BM-021-026-A.jpg,1600,2,I,z,1045,dash,2,28724.20000001788,122677.09999999404,8014,ATS,C,9
9,prac,1,B,mfborder.png,1,m,Fri May 02 2025 13:40:54 GMT-0500 (Central Daylight Time),154866.90000000596,CFD-BM-043-014-A.jpg,2000,5,I,m,676,dash,2,32189.80000001192,122677.09999999404,8014,ATS,C,10
10,prac,1,B,mfborder.png,1,z,Fri May 02 2025 13:40:54 GMT-0500 (Central Daylight Time),157566.0,CFD-BF-031-020-A.jpg,1000,4,I,z,905,dash,2,34888.90000000596,122677.09999999404,8014,ATS,C,11
11,prac,1,B,mfborder.png,1,m,Fri May 02 2025 13:40:54 GMT-0500 (Central Daylight Time),160298.59999999404,CFD-WM-034-040-A.jpg,1200,6,I,m,735,dash,2,37621.5,122677.09999999404,8014,ATS,C,12
1,test,1,A,haborder.png,1,m,Fri May 02 2025 13:40:54 GMT-0500 (Central Daylight Time),176493.70000001788,CFD-BM-034-035-HC.jpg,1700,solid,I,m,767,1,2,2499.5,173994.20000001788,8014,ATS,C,1
2,test,1,A,haborder.png,1,m,Fri May 02 2025 13:40:54 GMT-0500 (Central Daylight Time),178826.09999999404,CFD-WF-013-009-HC.jpg,1500,solid,I,m,808,11,2,4831.899999976158,173994.20000001788,8014,ATS,C,2
3,test,1,A,haborder.png,1,m,Fri May 02 2025 13:40:54 GMT-0500 (Central Daylight Time),180975.30000001192,CFD-BM-022-004-HC.jpg,1500,solid,I,m,623,3,2,6981.0999999940395,173994.20000001788,8014,ATS,C,3
4,test,1,A,haborder.png,1,z,Fri May 02 2025 13:40:54 GMT-0500 (Central Daylight Time),183791.40000000596,CFD-WM-036-018-A.jpg,1900,solid,I,z,890,8,2,9797.199999988079,173994.20000001788,8014,ATS,C,4
5,test,1,A,haborder.png,1,z,Fri May 02 2025 13:40:54 GMT-0500 (Central Daylight Time),186207.09999999404,CFD-WF-037-016-A.jpg,1600,solid,I,z,790,10,2,12212.899999976158,173994.20000001788,8014,ATS,C,5
6,test,1,A,haborder.png,1,m,Fri May 02 2025 13:40:54 GMT-0500 (Central Daylight Time),189339.30000001192,CFD-BF-019-004-HC.jpg,2000,solid,I,m,1111,5,2,15345.09999999404,173994.20000001788,8014,ATS,C,6
6,test,1,A,haborder.png,0,z,Fri May 02 2025 13:40:54 GMT-0500 (Central Daylight Time),191505.5,CFD-BF-002-018-A.jpg,1200,solid,I,m,946,6,2,17511.29999998212,173994.20000001788,8014,ATS,C,7
7,test,1,A,haborder.png,1,z,Fri May 02 2025 13:40:54 GMT-0500 (Central Daylight Time),193404.70000001788,CFD-WF-023-013-A.jpg,1000,solid,I,z,868,12,2,19410.5,173994.20000001788,8014,ATS,C,8
8,test,1,A,haborder.png,1,z,Fri May 02 2025 13:40:54 GMT-0500 (Central Daylight Time),195121.0,CFD-BF-031-020-A.jpg,1000,solid,I,z,688,4,2,21126.79999998212,173994.20000001788,8014,ATS,C,9
9,test,1,A,haborder.png,1,m,Fri May 02 2025 13:40:54 GMT-0500 (Central Daylight Time),197170.20000001788,CFD-WM-028-005-HC.jpg,1400,solid,I,m,629,7,2,23176.0,173994.20000001788,8014,ATS,C,10
10,test,1,A,haborder.png,1,m,Fri May 02 2025 13:40:54 GMT-0500 (Central Daylight Time),199302.80000001192,CFD-BM-022-004-HC.jpg,1500,solid,I,m,615,3,2,25308.59999999404,173994.20000001788,8014,ATS,C,11
11,test,1,A,haborder.png,1,z,Fri May 02 2025 13:40:54 GMT-0500 (Central Daylight Time),202118.59999999404,CFD-WM-036-018-A.jpg,1900,solid,I,z,899,8,2,28124.399999976158,173994.20000001788,8014,ATS,C,12
12,test,1,A,haborder.png,1,z,Fri May 02 2025 13:40:54 GMT-0500 (Central Daylight Time),204084.80000001192,CFD-BF-002-018-A.jpg,1200,solid,I,z,743,6,2,30090.59999999404,173994.20000001788,8014,ATS,C,13
13,test,1,A,haborder.png,1,z,Fri May 02 2025 13:40:54 GMT-0500 (Central Daylight Time),206817.20000001788,CFD-BM-043-014-A.jpg,1600,solid,I,z,1105,2,2,32823.0,173994.20000001788,8014,ATS,C,14
14,test,1,A,haborder.png,1,m,Fri May 02 2025 13:40:54 GMT-0500 (Central Daylight Time),208982.90000000596,CFD-WM-028-005-HC.jpg,1400,solid,I,m,745,7,2,34988.69999998808,173994.20000001788,8014,ATS,C,15
15,test,1,A,haborder.png,1,z,Fri May 02 2025 13:40:54 GMT-0500 (Central Daylight Time),211449.20000001788,CFD-BM-043-014-A.jpg,1600,solid,I,z,838,2,2,37455.0,173994.20000001788,8014,ATS,C,16
16,test,1,A,haborder.png,1,z,Fri May 02 2025 13:40:54 GMT-0500 (Central Daylight Time),214165.09999999404,CFD-WF-037-016-A.jpg,1600,solid,I,z,1092,10,2,40170.89999997616,173994.20000001788,8014,ATS,C,17
17,test,1,A,haborder.png,1,z,Fri May 02 2025 13:40:54 GMT-0500 (Central Daylight Time),215980.90000000596,CFD-WF-023-013-A.jpg,1000,solid,I,z,792,12,2,41986.69999998808,173994.20000001788,8014,ATS,C,18
18,test,1,A,haborder.png,1,z,Fri May 02 2025 13:40:54 GMT-0500 (Central Daylight Time),217763.70000001788,CFD-BF-031-020-A.jpg,1000,solid,I,z,760,4,2,43769.5,173994.20000001788,8014,ATS,C,19
19,test,1,A,haborder.png,1,m,Fri May 02 2025 13:40:54 GMT-0500 (Central Daylight Time),220179.30000001192,CFD-WM-035-036-HC.jpg,1700,solid,I,m,694,9,2,46185.09999999404,173994.20000001788,8014,ATS,C,20
20,test,1,A,haborder.png,1,m,Fri May 02 2025 13:40:54 GMT-0500 (Central Daylight Time),222479.0,CFD-WF-013-009-HC.jpg,1500,solid,I,m,770,11,2,48484.79999998212,173994.20000001788,8014,ATS,C,21
21,test,1,A,haborder.png,1,m,Fri May 02 2025 13:40:54 GMT-0500 (Central Daylight Time),224794.90000000596,CFD-WM-035-036-HC.jpg,1700,solid,I,m,586,9,2,50800.69999998808,173994.20000001788,8014,ATS,C,22
22,test,1,A,haborder.png,1,m,Fri May 02 2025 13:40:54 GMT-0500 (Central Daylight Time),227177.59999999404,CFD-BM-034-035-HC.jpg,1700,solid,I,m,662,1,2,53183.39999997616,173994.20000001788,8014,ATS,C,23
23,test,1,A,haborder.png,1,m,Fri May 02 2025 13:40:54 GMT-0500 (Central Daylight Time),230009.90000000596,CFD-BF-019-004-HC.jpg,2000,solid,I,m,812,5,2,56015.69999998808,173994.20000001788,8014,ATS,C,24
1,test,1,B,mfborder.png,1,z,Fri May 02 2025 13:40:54 GMT-0500 (Central Daylight Time),242939.30000001192,CFD-BF-031-020-A.jpg,1000,dash,I,z,773,4,2,1799.300000011921,241140.0,8014,ATS,C,1
2,test,1,B,mfborder.png,1,m,Fri May 02 2025 13:40:54 GMT-0500 (Central Daylight Time),245405.09999999404,CFD-WM-036-018-A.jpg,1700,dash,I,m,734,9,2,4265.0999999940395,241140.0,8014,ATS,C,2
3,test,1,B,mfborder.png,1,m,Fri May 02 2025 13:40:54 GMT-0500 (Central Daylight Time),247987.80000001192,CFD-BM-043-014-A.jpg,2000,dash,I,m,552,5,2,6847.800000011921,241140.0,8014,ATS,C,3
4,test,1,B,mfborder.png,1,m,Fri May 02 2025 13:40:54 GMT-0500 (Central Daylight Time),250203.5,CFD-BM-021-026-A.jpg,1600,dash,I,m,585,2,2,9063.5,241140.0,8014,ATS,C,4
5,test,1,B,mfborder.png,1,z,Fri May 02 2025 13:40:54 GMT-0500 (Central Daylight Time),252186.30000001192,CFD-WF-013-009-HC.jpg,1000,dash,I,z,953,12,2,11046.300000011921,241140.0,8014,ATS,C,5
6,test,1,B,mfborder.png,1,z,Fri May 02 2025 13:40:54 GMT-0500 (Central Daylight Time),254346.30000001192,CFD-BF-019-004-HC.jpg,1400,dash,I,z,603,7,2,13206.300000011921,241140.0,8014,ATS,C,6
7,test,1,B,mfborder.png,1,z,Fri May 02 2025 13:40:54 GMT-0500 (Central Daylight Time),256484.80000001192,CFD-WF-037-016-A.jpg,1500,dash,I,z,601,11,2,15344.800000011921,241140.0,8014,ATS,C,7
8,test,1,B,mfborder.png,1,z,Fri May 02 2025 13:40:54 GMT-0500 (Central Daylight Time),258735.5,CFD-BF-042-031-HC.jpg,1500,dash,I,z,717,3,2,17595.5,241140.0,8014,ATS,C,8
9,test,1,B,mfborder.png,1,m,Fri May 02 2025 13:40:54 GMT-0500 (Central Daylight Time),260633.59999999404,CFD-WM-034-040-A.jpg,1200,dash,I,m,679,6,2,19493.59999999404,241140.0,8014,ATS,C,9
10,test,1,B,mfborder.png,1,m,Fri May 02 2025 13:40:54 GMT-0500 (Central Daylight Time),263499.59999999404,CFD-BM-043-014-A.jpg,2000,dash,I,m,836,5,2,22359.59999999404,241140.0,8014,ATS,C,10
11,test,1,B,mfborder.png,1,m,Fri May 02 2025 13:40:54 GMT-0500 (Central Daylight Time),265732.2000000179,CFD-WM-036-018-A.jpg,1700,dash,I,m,510,9,2,24592.20000001788,241140.0,8014,ATS,C,11
12,test,1,B,mfborder.png,1,z,Fri May 02 2025 13:40:54 GMT-0500 (Central Daylight Time),267931.40000000596,CFD-BF-019-004-HC.jpg,1400,dash,I,z,769,7,2,26791.40000000596,241140.0,8014,ATS,C,12
13,test,1,B,mfborder.png,1,m,Fri May 02 2025 13:40:54 GMT-0500 (Central Daylight Time),270580.5,CFD-BM-022-004-HC.jpg,1700,dash,I,m,918,1,2,29440.5,241140.0,8014,ATS,C,13
14,test,1,B,mfborder.png,1,z,Fri May 02 2025 13:40:54 GMT-0500 (Central Daylight Time),272946.40000000596,CFD-BF-042-031-HC.jpg,1500,dash,I,z,845,3,2,31806.40000000596,241140.0,8014,ATS,C,14
15,test,1,B,mfborder.png,1,z,Fri May 02 2025 13:40:54 GMT-0500 (Central Daylight Time),275279.09999999404,CFD-WF-037-016-A.jpg,1500,dash,I,z,807,11,2,34139.09999999404,241140.0,8014,ATS,C,15
16,test,1,B,mfborder.png,1,z,Fri May 02 2025 13:40:54 GMT-0500 (Central Daylight Time),276945.2000000179,CFD-WF-013-009-HC.jpg,1000,dash,I,z,646,12,2,35805.20000001788,241140.0,8014,ATS,C,16
17,test,1,B,mfborder.png,1,z,Fri May 02 2025 13:40:54 GMT-0500 (Central Daylight Time),278594.8000000119,CFD-BF-031-020-A.jpg,1000,dash,I,z,629,4,2,37454.80000001192,241140.0,8014,ATS,C,17
18,test,1,B,mfborder.png,1,m,Fri May 02 2025 13:40:54 GMT-0500 (Central Daylight Time),280877.2000000179,CFD-BM-021-026-A.jpg,1600,dash,I,m,651,2,2,39737.20000001788,241140.0,8014,ATS,C,18
19,test,1,B,mfborder.png,1,z,Fri May 02 2025 13:40:54 GMT-0500 (Central Daylight Time),283459.90000000596,CFD-WF-001-010-HC.jpg,1900,dash,I,z,660,8,2,42319.90000000596,241140.0,8014,ATS,C,19
20,test,1,B,mfborder.png,1,m,Fri May 02 2025 13:40:54 GMT-0500 (Central Daylight Time),285325.90000000596,CFD-WM-034-040-A.jpg,1200,dash,I,m,641,6,2,44185.90000000596,241140.0,8014,ATS,C,20
21,test,1,B,mfborder.png,1,m,Fri May 02 2025 13:40:54 GMT-0500 (Central Daylight Time),287575.0,CFD-WM-035-036-HC.jpg,1600,dash,I,m,631,10,2,46435.0,241140.0,8014,ATS,C,21
22,test,1,B,mfborder.png,1,m,Fri May 02 2025 13:40:54 GMT-0500 (Central Daylight Time),289974.59999999404,CFD-BM-022-004-HC.jpg,1700,dash,I,m,667,1,2,48834.59999999404,241140.0,8014,ATS,C,22
23,test,1,B,mfborder.png,1,m,Fri May 02 2025 13:40:54 GMT-0500 (Central Daylight Time),292290.40000000596,CFD-WM-035-036-HC.jpg,1600,dash,I,m,694,10,2,51150.40000000596,241140.0,8014,ATS,C,23
24,test,1,B,mfborder.png,1,z,Fri May 02 2025 13:40:54 GMT-0500 (Central Daylight Time),295106.3000000119,CFD-WF-001-010-HC.jpg,1900,dash,I,z,895,8,2,53966.30000001192,241140.0,8014,ATS,C,24
1,prac,1,C,haborder.png,1,m,Fri May 02 2025 13:40:54 GMT-0500 (Central Daylight Time),323681.2000000179,CFD-WM-028-005-HC.jpg,1000,dash,I,m,820,8,2,2616.300000011921,321064.90000000596,8014,ATS,C,1
1,prac,1,C,haborder.png,0,z,Fri May 02 2025 13:40:54 GMT-0500 (Central Daylight Time),327879.09999999404,CFD-BF-031-020-A.jpg,1900,dash,I,None,1516,8,2,6814.199999988079,321064.90000000596,8014,ATS,C,2
2,prac,1,C,mfborder.png,1,z,Fri May 02 2025 13:40:54 GMT-0500 (Central Daylight Time),331644.8000000119,CFD-WF-013-009-HC.jpg,1600,dash,I,z,1367,8,2,10579.90000000596,321064.90000000596,8014,ATS,C,3
3,prac,1,C,mfborder.png,1,z,Fri May 02 2025 13:40:54 GMT-0500 (Central Daylight Time),334877.0,CFD-WF-023-013-A.jpg,1500,solid,I,z,933,8,2,13812.09999999404,321064.90000000596,8014,ATS,C,4
4,prac,1,C,mfborder.png,1,m,Fri May 02 2025 13:40:54 GMT-0500 (Central Daylight Time),339142.2000000179,CFD-BM-034-035-HC.jpg,2000,solid,I,m,1472,8,2,18077.30000001192,321064.90000000596,8014,ATS,C,5
5,prac,1,C,haborder.png,1,m,Fri May 02 2025 13:40:54 GMT-0500 (Central Daylight Time),342424.90000000596,CFD-BM-022-004-HC.jpg,1500,solid,I,m,987,8,2,21360.0,321064.90000000596,8014,ATS,C,6
6,prac,1,C,haborder.png,1,z,Fri May 02 2025 13:40:54 GMT-0500 (Central Daylight Time),345707.0,CFD-WF-037-016-A.jpg,1600,dash,I,z,891,8,2,24642.09999999404,321064.90000000596,8014,ATS,C,7
7,prac,1,C,mfborder.png,1,m,Fri May 02 2025 13:40:54 GMT-0500 (Central Daylight Time),349089.2000000179,CFD-WM-036-018-A.jpg,1700,solid,I,m,896,8,2,28024.30000001192,321064.90000000596,8014,ATS,C,8
8,prac,1,C,haborder.png,1,z,Fri May 02 2025 13:40:54 GMT-0500 (Central Daylight Time),352405.0,CFD-BF-002-018-A.jpg,1700,solid,I,z,816,8,2,31340.09999999404,321064.90000000596,8014,ATS,C,9
9,prac,1,C,mfborder.png,1,m,Fri May 02 2025 13:40:54 GMT-0500 (Central Daylight Time),355520.59999999404,CFD-BM-043-014-A.jpg,1200,dash,I,m,1120,8,2,34455.69999998808,321064.90000000596,8014,ATS,C,10
10,prac,1,C,haborder.png,1,m,Fri May 02 2025 13:40:54 GMT-0500 (Central Daylight Time),359036.2000000179,CFD-WM-028-005-HC.jpg,1400,solid,I,m,1324,8,2,37971.30000001192,321064.90000000596,8014,ATS,C,11
11,prac,1,C,mfborder.png,1,z,Fri May 02 2025 13:40:54 GMT-0500 (Central Daylight Time),362135.2000000179,CFD-BF-019-004-HC.jpg,1000,dash,I,z,1313,8,2,41070.30000001192,321064.90000000596,8014,ATS,C,12
0,test,1,C,haborder.png,0,z,Fri May 02 2025 13:40:54 GMT-0500 (Central Daylight Time),374714.8000000119,CFD-BM-043-014-A.jpg,1900,solid,I,None,1516,8,2,3432.2000000178814,371282.59999999404,8014,ATS,C,1
1,test,1,C,haborder.png,1,m,Fri May 02 2025 13:40:54 GMT-0500 (Central Daylight Time),376630.59999999404,CFD-WF-013-009-HC.jpg,1000,solid,I,m,883,12,2,5348.0,371282.59999999404,8014,ATS,C,2
2,test,1,C,haborder.png,1,z,Fri May 02 2025 13:40:54 GMT-0500 (Central Daylight Time),378896.8000000119,CFD-WM-036-018-A.jpg,1400,solid,I,z,846,7,2,7614.200000017881,371282.59999999404,8014,ATS,C,3
3,test,1,C,mfborder.png,1,z,Fri May 02 2025 13:40:54 GMT-0500 (Central Daylight Time),381362.40000000596,CFD-BF-042-031-HC.jpg,1700,dash,I,z,737,1,2,10079.800000011921,371282.59999999404,8014,ATS,C,4
4,test,1,C,mfborder.png,1,z,Fri May 02 2025 13:40:54 GMT-0500 (Central Daylight Time),383845.09999999404,CFD-WF-037-016-A.jpg,1500,dash,I,z,947,3,2,12562.5,371282.59999999404,8014,ATS,C,5
5,test,1,C,haborder.png,1,z,Fri May 02 2025 13:40:54 GMT-0500 (Central Daylight Time),386461.0,CFD-BM-021-026-A.jpg,1700,solid,I,z,892,9,2,15178.40000000596,371282.59999999404,8014,ATS,C,6
6,test,1,C,haborder.png,1,m,Fri May 02 2025 13:40:54 GMT-0500 (Central Daylight Time),389043.5,CFD-BF-019-004-HC.jpg,1600,solid,I,m,952,10,2,17760.90000000596,371282.59999999404,8014,ATS,C,7
7,test,1,C,haborder.png,1,m,Fri May 02 2025 13:40:54 GMT-0500 (Central Daylight Time),391409.3000000119,CFD-BF-019-004-HC.jpg,1600,solid,I,m,746,10,2,20126.70000001788,371282.59999999404,8014,ATS,C,8
8,test,1,C,mfborder.png,1,z,Fri May 02 2025 13:40:54 GMT-0500 (Central Daylight Time),393808.5,CFD-BF-031-020-A.jpg,1600,dash,I,z,780,2,2,22525.90000000596,371282.59999999404,8014,ATS,C,9
9,test,1,C,haborder.png,1,m,Fri May 02 2025 13:40:54 GMT-0500 (Central Daylight Time),396374.59999999404,CFD-WF-001-010-HC.jpg,1500,solid,I,m,1048,11,2,25092.0,371282.59999999404,8014,ATS,C,10
10,test,1,C,mfborder.png,1,z,Fri May 02 2025 13:40:54 GMT-0500 (Central Daylight Time),398773.7000000179,CFD-BF-031-020-A.jpg,1600,dash,I,z,774,2,2,27491.100000023842,371282.59999999404,8014,ATS,C,11
10,test,1,C,haborder.png,0,z,Fri May 02 2025 13:40:54 GMT-0500 (Central Daylight Time),401539.40000000596,CFD-BM-043-014-A.jpg,1900,solid,I,m,836,8,2,30256.80000001192,371282.59999999404,8014,ATS,C,12
11,test,1,C,haborder.png,1,z,Fri May 02 2025 13:40:54 GMT-0500 (Central Daylight Time),403772.3000000119,CFD-WM-036-018-A.jpg,1400,solid,I,z,802,7,2,32489.70000001788,371282.59999999404,8014,ATS,C,13
12,test,1,C,mfborder.png,1,m,Fri May 02 2025 13:40:54 GMT-0500 (Central Daylight Time),405721.5,CFD-WM-035-036-HC.jpg,1000,dash,I,m,921,4,2,34438.90000000596,371282.59999999404,8014,ATS,C,14
13,test,1,C,haborder.png,1,z,Fri May 02 2025 13:40:54 GMT-0500 (Central Daylight Time),408387.5,CFD-BM-021-026-A.jpg,1700,solid,I,z,936,9,2,37104.90000000596,371282.59999999404,8014,ATS,C,15
14,test,1,C,mfborder.png,1,z,Fri May 02 2025 13:40:54 GMT-0500 (Central Daylight Time),410753.5,CFD-WF-037-016-A.jpg,1500,dash,I,z,838,3,2,39470.90000000596,371282.59999999404,8014,ATS,C,16
15,test,1,C,mfborder.png,1,m,Fri May 02 2025 13:40:54 GMT-0500 (Central Daylight Time),412619.5,CFD-WM-035-036-HC.jpg,1000,dash,I,m,836,4,2,41336.90000000596,371282.59999999404,8014,ATS,C,17
16,test,1,C,haborder.png,1,m,Fri May 02 2025 13:40:54 GMT-0500 (Central Daylight Time),414988.40000000596,CFD-WF-001-010-HC.jpg,1500,solid,I,m,838,11,2,43705.80000001192,371282.59999999404,8014,ATS,C,18
17,test,1,C,mfborder.png,1,m,Fri May 02 2025 13:40:54 GMT-0500 (Central Daylight Time),418067.5,CFD-WM-034-040-A.jpg,2000,dash,I,m,1061,5,2,46784.90000000596,371282.59999999404,8014,ATS,C,19
18,test,1,C,mfborder.png,1,m,Fri May 02 2025 13:40:54 GMT-0500 (Central Daylight Time),420516.90000000596,CFD-BM-022-004-HC.jpg,1200,dash,I,m,1205,6,2,49234.30000001192,371282.59999999404,8014,ATS,C,20
19,test,1,C,mfborder.png,1,m,Fri May 02 2025 13:40:54 GMT-0500 (Central Daylight Time),422516.2000000179,CFD-BM-022-004-HC.jpg,1200,dash,I,m,764,6,2,51233.60000002384,371282.59999999404,8014,ATS,C,21
20,test,1,C,mfborder.png,1,z,Fri May 02 2025 13:40:54 GMT-0500 (Central Daylight Time),425015.3000000119,CFD-BF-042-031-HC.jpg,1700,dash,I,z,781,1,2,53732.70000001788,371282.59999999404,8014,ATS,C,22
21,test,1,C,mfborder.png,1,m,Fri May 02 2025 13:40:54 GMT-0500 (Central Daylight Time),427964.5,CFD-WM-034-040-A.jpg,2000,dash,I,m,926,5,2,56681.90000000596,371282.59999999404,8014,ATS,C,23
22,test,1,C,haborder.png,1,m,Fri May 02 2025 13:40:54 GMT-0500 (Central Daylight Time),430097.59999999404,CFD-WF-013-009-HC.jpg,1000,solid,I,m,1104,12,2,58815.0,371282.59999999404,8014,ATS,C,24
1,test,2,C,haborder.png,1,m,Fri May 02 2025 13:40:54 GMT-0500 (Central Daylight Time),436978.40000000596,CFD-WM-028-005-HC.jpg,1500,solid,I,m,1395,11,2,2915.699999988079,434062.7000000179,8014,ATS,C,1
2,test,2,C,mfborder.png,1,z,Fri May 02 2025 13:40:54 GMT-0500 (Central Daylight Time),439294.40000000596,CFD-BF-019-004-HC.jpg,1500,dash,I,z,780,3,2,5231.699999988079,434062.7000000179,8014,ATS,C,2
3,test,2,C,haborder.png,1,m,Fri May 02 2025 13:40:54 GMT-0500 (Central Daylight Time),441377.09999999404,CFD-WM-028-005-HC.jpg,1000,solid,I,m,1063,12,2,7314.399999976158,434062.7000000179,8014,ATS,C,3
4,test,2,C,mfborder.png,1,z,Fri May 02 2025 13:40:54 GMT-0500 (Central Daylight Time),443809.7000000179,CFD-WF-013-009-HC.jpg,1700,dash,I,z,712,1,2,9747.0,434062.7000000179,8014,ATS,C,4
5,test,2,C,mfborder.png,1,m,Fri May 02 2025 13:40:54 GMT-0500 (Central Daylight Time),445642.5,CFD-WM-036-018-A.jpg,1200,dash,I,m,604,6,2,11579.799999982119,434062.7000000179,8014,ATS,C,5
6,test,2,C,haborder.png,1,z,Fri May 02 2025 13:40:54 GMT-0500 (Central Daylight Time),448658.40000000596,CFD-WF-037-016-A.jpg,1700,solid,I,z,1295,9,2,14595.699999988079,434062.7000000179,8014,ATS,C,6
7,test,2,C,haborder.png,1,z,Fri May 02 2025 13:40:54 GMT-0500 (Central Daylight Time),450857.40000000596,CFD-BF-031-020-A.jpg,1400,solid,I,z,771,7,2,16794.69999998808,434062.7000000179,8014,ATS,C,7
8,test,2,C,mfborder.png,1,m,Fri May 02 2025 13:40:54 GMT-0500 (Central Daylight Time),453606.90000000596,CFD-BM-043-014-A.jpg,2000,dash,I,m,732,5,2,19544.19999998808,434062.7000000179,8014,ATS,C,8
9,test,2,C,haborder.png,1,z,Fri May 02 2025 13:40:54 GMT-0500 (Central Daylight Time),456089.2000000179,CFD-WF-037-016-A.jpg,1700,solid,I,z,763,9,2,22026.5,434062.7000000179,8014,ATS,C,9
10,test,2,C,haborder.png,1,m,Fri May 02 2025 13:40:54 GMT-0500 (Central Daylight Time),458555.0,CFD-BM-022-004-HC.jpg,1600,solid,I,m,836,10,2,24492.29999998212,434062.7000000179,8014,ATS,C,10
11,test,2,C,mfborder.png,1,z,Fri May 02 2025 13:40:54 GMT-0500 (Central Daylight Time),460871.0,CFD-WF-023-013-A.jpg,1600,dash,I,z,691,2,2,26808.29999998212,434062.7000000179,8014,ATS,C,11
12,test,2,C,mfborder.png,1,m,Fri May 02 2025 13:40:54 GMT-0500 (Central Daylight Time),463086.90000000596,CFD-WM-036-018-A.jpg,1200,dash,I,m,990,6,2,29024.19999998808,434062.7000000179,8014,ATS,C,12
13,test,2,C,haborder.png,1,m,Fri May 02 2025 13:40:54 GMT-0500 (Central Daylight Time),465586.2000000179,CFD-BM-022-004-HC.jpg,1600,solid,I,m,870,10,2,31523.5,434062.7000000179,8014,ATS,C,13
14,test,2,C,haborder.png,1,z,Fri May 02 2025 13:40:54 GMT-0500 (Central Daylight Time),468851.8000000119,CFD-BF-002-018-A.jpg,1900,solid,I,z,1343,8,2,34789.09999999404,434062.7000000179,8014,ATS,C,14
15,test,2,C,mfborder.png,1,m,Fri May 02 2025 13:40:54 GMT-0500 (Central Daylight Time),470568.09999999404,CFD-BM-034-035-HC.jpg,1000,dash,I,m,697,4,2,36505.39999997616,434062.7000000179,8014,ATS,C,15
16,test,2,C,mfborder.png,1,z,Fri May 02 2025 13:40:54 GMT-0500 (Central Daylight Time),472833.90000000596,CFD-BF-019-004-HC.jpg,1500,dash,I,z,741,3,2,38771.19999998808,434062.7000000179,8014,ATS,C,16
17,test,2,C,mfborder.png,1,z,Fri May 02 2025 13:40:54 GMT-0500 (Central Daylight Time),475349.90000000596,CFD-WF-013-009-HC.jpg,1700,dash,I,z,792,1,2,41287.19999998808,434062.7000000179,8014,ATS,C,17
18,test,2,C,haborder.png,1,z,Fri May 02 2025 13:40:54 GMT-0500 (Central Daylight Time),477515.8000000119,CFD-BF-031-020-A.jpg,1400,solid,I,z,735,7,2,43453.09999999404,434062.7000000179,8014,ATS,C,18
19,test,2,C,mfborder.png,1,z,Fri May 02 2025 13:40:54 GMT-0500 (Central Daylight Time),479798.40000000596,CFD-WF-023-013-A.jpg,1600,dash,I,z,658,2,2,45735.69999998808,434062.7000000179,8014,ATS,C,19
20,test,2,C,haborder.png,1,m,Fri May 02 2025 13:40:54 GMT-0500 (Central Daylight Time),482164.2000000179,CFD-WM-028-005-HC.jpg,1500,solid,I,m,843,11,2,48101.5,434062.7000000179,8014,ATS,C,20
21,test,2,C,mfborder.png,1,m,Fri May 02 2025 13:40:54 GMT-0500 (Central Daylight Time),484913.7000000179,CFD-BM-043-014-A.jpg,2000,dash,I,m,721,5,2,50851.0,434062.7000000179,8014,ATS,C,21
22,test,2,C,mfborder.png,1,m,Fri May 02 2025 13:40:54 GMT-0500 (Central Daylight Time),486613.0,CFD-BM-034-035-HC.jpg,1000,dash,I,m,677,4,2,52550.29999998212,434062.7000000179,8014,ATS,C,22
23,test,2,C,haborder.png,1,z,Fri May 02 2025 13:40:54 GMT-0500 (Central Daylight Time),489279.0,CFD-BF-002-018-A.jpg,1900,solid,I,z,741,8,2,55216.29999998212,434062.7000000179,8014,ATS,C,23
24,test,2,C,haborder.png,1,m,Fri May 02 2025 13:40:54 GMT-0500 (Central Daylight Time),491028.3000000119,CFD-WM-028-005-HC.jpg,1000,solid,I,m,727,12,2,56965.59999999404,434062.7000000179,8014,ATS,C,24
1,test,3,C,mfborder.png,1,z,Fri May 02 2025 13:40:54 GMT-0500 (Central Daylight Time),498009.40000000596,CFD-BF-031-020-A.jpg,1600,dash,I,z,879,2,2,2499.199999988079,495510.2000000179,8014,ATS,C,1
2,test,3,C,mfborder.png,1,m,Fri May 02 2025 13:40:54 GMT-0500 (Central Daylight Time),500675.3000000119,CFD-WM-034-040-A.jpg,2000,dash,I,m,644,5,2,5165.0999999940395,495510.2000000179,8014,ATS,C,2
3,test,3,C,haborder.png,1,z,Fri May 02 2025 13:40:54 GMT-0500 (Central Daylight Time),503591.0,CFD-BM-043-014-A.jpg,1900,solid,I,z,990,8,2,8080.799999982119,495510.2000000179,8014,ATS,C,3
4,test,3,C,mfborder.png,1,m,Fri May 02 2025 13:40:54 GMT-0500 (Central Daylight Time),505523.7000000179,CFD-BM-022-004-HC.jpg,1200,dash,I,m,710,6,2,10013.5,495510.2000000179,8014,ATS,C,4
5,test,3,C,haborder.png,1,m,Fri May 02 2025 13:40:54 GMT-0500 (Central Daylight Time),508173.0,CFD-BF-019-004-HC.jpg,1600,solid,I,m,1014,10,2,12662.799999982119,495510.2000000179,8014,ATS,C,5
6,test,3,C,mfborder.png,1,z,Fri May 02 2025 13:40:54 GMT-0500 (Central Daylight Time),510572.0,CFD-BF-042-031-HC.jpg,1700,dash,I,z,677,1,2,15061.799999982119,495510.2000000179,8014,ATS,C,6
7,test,3,C,haborder.png,1,m,Fri May 02 2025 13:40:54 GMT-0500 (Central Daylight Time),513054.59999999404,CFD-WF-001-010-HC.jpg,1500,solid,I,m,957,11,2,17544.399999976158,495510.2000000179,8014,ATS,C,7
8,test,3,C,mfborder.png,1,m,Fri May 02 2025 13:40:54 GMT-0500 (Central Daylight Time),514870.90000000596,CFD-WM-035-036-HC.jpg,1000,dash,I,m,780,4,2,19360.69999998808,495510.2000000179,8014,ATS,C,8
9,test,3,C,haborder.png,1,m,Fri May 02 2025 13:40:54 GMT-0500 (Central Daylight Time),517403.3000000119,CFD-BF-019-004-HC.jpg,1600,solid,I,m,910,10,2,21893.09999999404,495510.2000000179,8014,ATS,C,9
10,test,3,C,mfborder.png,1,m,Fri May 02 2025 13:40:54 GMT-0500 (Central Daylight Time),519152.59999999404,CFD-WM-035-036-HC.jpg,1000,dash,I,m,730,4,2,23642.399999976158,495510.2000000179,8014,ATS,C,10
11,test,3,C,mfborder.png,1,z,Fri May 02 2025 13:40:54 GMT-0500 (Central Daylight Time),521518.90000000596,CFD-BF-042-031-HC.jpg,1700,dash,I,z,642,1,2,26008.69999998808,495510.2000000179,8014,ATS,C,11
12,test,3,C,haborder.png,1,z,Fri May 02 2025 13:40:54 GMT-0500 (Central Daylight Time),524334.599999994,CFD-BM-043-014-A.jpg,1900,solid,I,z,899,8,2,28824.399999976158,495510.2000000179,8014,ATS,C,12
13,test,3,C,haborder.png,1,z,Fri May 02 2025 13:40:54 GMT-0500 (Central Daylight Time),526916.900000006,CFD-BM-021-026-A.jpg,1700,solid,I,z,851,9,2,31406.69999998808,495510.2000000179,8014,ATS,C,13
14,test,3,C,mfborder.png,1,m,Fri May 02 2025 13:40:54 GMT-0500 (Central Daylight Time),529616.0,CFD-WM-034-040-A.jpg,2000,dash,I,m,674,5,2,34105.79999998212,495510.2000000179,8014,ATS,C,14
15,test,3,C,mfborder.png,1,z,Fri May 02 2025 13:40:54 GMT-0500 (Central Daylight Time),531865.5,CFD-WF-037-016-A.jpg,1500,dash,I,z,729,3,2,36355.29999998212,495510.2000000179,8014,ATS,C,15
16,test,3,C,mfborder.png,1,m,Fri May 02 2025 13:40:54 GMT-0500 (Central Daylight Time),533765.0,CFD-BM-022-004-HC.jpg,1200,dash,I,m,676,6,2,38254.79999998212,495510.2000000179,8014,ATS,C,16
17,test,3,C,haborder.png,1,m,Fri May 02 2025 13:40:54 GMT-0500 (Central Daylight Time),535647.3000000119,CFD-WF-013-009-HC.jpg,1000,solid,I,m,864,12,2,40137.09999999404,495510.2000000179,8014,ATS,C,17
18,test,3,C,haborder.png,1,z,Fri May 02 2025 13:40:54 GMT-0500 (Central Daylight Time),538196.7000000179,CFD-BM-021-026-A.jpg,1700,solid,I,z,826,9,2,42686.5,495510.2000000179,8014,ATS,C,18
19,test,3,C,mfborder.png,1,z,Fri May 02 2025 13:40:54 GMT-0500 (Central Daylight Time),540629.5,CFD-BF-031-020-A.jpg,1600,dash,I,z,808,2,2,45119.29999998212,495510.2000000179,8014,ATS,C,19
20,test,3,C,haborder.png,1,m,Fri May 02 2025 13:40:54 GMT-0500 (Central Daylight Time),542412.3000000119,CFD-WF-013-009-HC.jpg,1000,solid,I,m,752,12,2,46902.09999999404,495510.2000000179,8014,ATS,C,20
21,test,3,C,haborder.png,1,m,Fri May 02 2025 13:40:54 GMT-0500 (Central Daylight Time),544778.099999994,CFD-WF-001-010-HC.jpg,1500,solid,I,m,846,11,2,49267.89999997616,495510.2000000179,8014,ATS,C,21
22,test,3,C,mfborder.png,1,z,Fri May 02 2025 13:40:54 GMT-0500 (Central Daylight Time),547210.7000000179,CFD-WF-037-016-A.jpg,1500,dash,I,z,911,3,2,51700.5,495510.2000000179,8014,ATS,C,22
22,test,3,C,haborder.png,0,z,Fri May 02 2025 13:40:54 GMT-0500 (Central Daylight Time),550143.2000000179,CFD-WM-036-018-A.jpg,1400,solid,I,None,1516,7,2,54633.0,495510.2000000179,8014,ATS,C,23
23,test,3,C,haborder.png,1,z,Fri May 02 2025 13:40:54 GMT-0500 (Central Daylight Time),552425.599999994,CFD-WM-036-018-A.jpg,1400,solid,I,z,854,7,2,56915.39999997616,495510.2000000179,8014,ATS,C,24
1,test,4,C,haborder.png,1,z,Fri May 02 2025 13:40:54 GMT-0500 (Central Daylight Time),557224.2000000179,CFD-BF-002-018-A.jpg,1900,solid,I,z,1147,8,2,3066.0,554158.2000000179,8014,ATS,C,1
2,test,4,C,haborder.png,1,m,Fri May 02 2025 13:40:54 GMT-0500 (Central Daylight Time),559623.400000006,CFD-BM-022-004-HC.jpg,1600,solid,I,m,777,10,2,5465.199999988079,554158.2000000179,8014,ATS,C,2
3,test,4,C,mfborder.png,1,m,Fri May 02 2025 13:40:54 GMT-0500 (Central Daylight Time),561456.2000000179,CFD-BM-034-035-HC.jpg,1000,dash,I,m,794,4,2,7298.0,554158.2000000179,8014,ATS,C,3
4,test,4,C,haborder.png,1,z,Fri May 02 2025 13:40:54 GMT-0500 (Central Daylight Time),564222.0,CFD-WF-037-016-A.jpg,1700,solid,I,z,1033,9,2,10063.799999982119,554158.2000000179,8014,ATS,C,4
5,test,4,C,haborder.png,1,m,Fri May 02 2025 13:40:54 GMT-0500 (Central Daylight Time),565938.0,CFD-WM-028-005-HC.jpg,1000,solid,I,m,696,12,2,11779.799999982119,554158.2000000179,8014,ATS,C,5
6,test,4,C,mfborder.png,1,z,Fri May 02 2025 13:40:54 GMT-0500 (Central Daylight Time),568154.0,CFD-BF-019-004-HC.jpg,1500,dash,I,z,687,3,2,13995.799999982119,554158.2000000179,8014,ATS,C,6
7,test,4,C,haborder.png,1,z,Fri May 02 2025 13:40:54 GMT-0500 (Central Daylight Time),570286.900000006,CFD-BF-031-020-A.jpg,1400,solid,I,z,707,7,2,16128.699999988079,554158.2000000179,8014,ATS,C,7
8,test,4,C,mfborder.png,1,m,Fri May 02 2025 13:40:54 GMT-0500 (Central Daylight Time),572952.5,CFD-BM-043-014-A.jpg,2000,dash,I,m,639,5,2,18794.29999998212,554158.2000000179,8014,ATS,C,8
9,test,4,C,mfborder.png,1,m,Fri May 02 2025 13:40:54 GMT-0500 (Central Daylight Time),574668.599999994,CFD-BM-034-035-HC.jpg,1000,dash,I,m,685,4,2,20510.399999976158,554158.2000000179,8014,ATS,C,9
10,test,4,C,mfborder.png,1,z,Fri May 02 2025 13:40:54 GMT-0500 (Central Daylight Time),576751.400000006,CFD-BF-019-004-HC.jpg,1500,dash,I,z,565,3,2,22593.19999998808,554158.2000000179,8014,ATS,C,10
11,test,4,C,haborder.png,1,m,Fri May 02 2025 13:40:54 GMT-0500 (Central Daylight Time),578933.900000006,CFD-WM-028-005-HC.jpg,1500,solid,I,m,650,11,2,24775.69999998808,554158.2000000179,8014,ATS,C,11
12,test,4,C,mfborder.png,1,z,Fri May 02 2025 13:40:54 GMT-0500 (Central Daylight Time),581333.3000000119,CFD-WF-013-009-HC.jpg,1700,dash,I,z,667,1,2,27175.09999999404,554158.2000000179,8014,ATS,C,12
13,test,4,C,haborder.png,1,m,Fri May 02 2025 13:40:54 GMT-0500 (Central Daylight Time),583482.5,CFD-WM-028-005-HC.jpg,1500,solid,I,m,628,11,2,29324.29999998212,554158.2000000179,8014,ATS,C,13
14,test,4,C,haborder.png,1,m,Fri May 02 2025 13:40:54 GMT-0500 (Central Daylight Time),586232.8000000119,CFD-BM-022-004-HC.jpg,1600,solid,I,m,1132,10,2,32074.59999999404,554158.2000000179,8014,ATS,C,14
15,test,4,C,mfborder.png,1,m,Fri May 02 2025 13:40:54 GMT-0500 (Central Daylight Time),588151.099999994,CFD-WM-036-018-A.jpg,1200,dash,I,m,685,6,2,33992.89999997616,554158.2000000179,8014,ATS,C,15
16,test,4,C,haborder.png,1,m,Fri May 02 2025 13:40:54 GMT-0500 (Central Daylight Time),589715.099999994,CFD-WM-028-005-HC.jpg,1000,solid,I,m,537,12,2,35556.89999997616,554158.2000000179,8014,ATS,C,16
17,test,4,C,mfborder.png,1,z,Fri May 02 2025 13:40:54 GMT-0500 (Central Daylight Time),592079.900000006,CFD-WF-013-009-HC.jpg,1700,dash,I,z,640,1,2,37921.69999998808,554158.2000000179,8014,ATS,C,17
18,test,4,C,mfborder.png,1,m,Fri May 02 2025 13:40:54 GMT-0500 (Central Daylight Time),594146.0,CFD-WM-036-018-A.jpg,1200,dash,I,m,845,6,2,39987.79999998212,554158.2000000179,8014,ATS,C,18
19,test,4,C,mfborder.png,1,z,Fri May 02 2025 13:40:54 GMT-0500 (Central Daylight Time),596478.7000000179,CFD-WF-023-013-A.jpg,1600,dash,I,z,700,2,2,42320.5,554158.2000000179,8014,ATS,C,19
20,test,4,C,mfborder.png,1,m,Fri May 02 2025 13:40:54 GMT-0500 (Central Daylight Time),599177.5,CFD-BM-043-014-A.jpg,2000,dash,I,m,679,5,2,45019.29999998212,554158.2000000179,8014,ATS,C,20
21,test,4,C,haborder.png,1,z,Fri May 02 2025 13:40:54 GMT-0500 (Central Daylight Time),601926.900000006,CFD-BF-002-018-A.jpg,1900,solid,I,z,832,8,2,47768.69999998808,554158.2000000179,8014,ATS,C,21
22,test,4,C,mfborder.png,1,z,Fri May 02 2025 13:40:54 GMT-0500 (Central Daylight Time),604142.900000006,CFD-WF-023-013-A.jpg,1600,dash,I,z,599,2,2,49984.69999998808,554158.2000000179,8014,ATS,C,22
23,test,4,C,haborder.png,1,z,Fri May 02 2025 13:40:54 GMT-0500 (Central Daylight Time),606175.3000000119,CFD-BF-031-020-A.jpg,1400,solid,I,z,615,7,2,52017.09999999404,554158.2000000179,8014,ATS,C,23
24,test,4,C,haborder.png,1,z,Fri May 02 2025 13:40:54 GMT-0500 (Central Daylight Time),608541.3000000119,CFD-WF-037-016-A.jpg,1700,solid,I,z,634,9,2,54383.09999999404,554158.2000000179,8014,ATS,C,24
