acc_sum,block,block_c,condition,correct,correct_response,datetime,endtime,flanker,jitter,project,response,response_test_buffer_response,response_test_target_response,response_time,response_time_test_buffer_response,response_time_test_target_response,row_sel,session_number,start_end,starttime,subject_id,target,task,task_vers,time_test_buffer,time_test_buffer_response,time_test_constants,time_test_flanker,time_test_jitter,time_test_logger,time_test_target,time_test_target_response,time_test_variables,trial
0,prac,1,con,0,m,Fri Feb 28 2025 16:58:52 GMT-0600 (Central Standard Time),230083.19999998808,gold,800,I,None,,,1800,,,13,1,4860.0,225223.19999998808,7064,gold,NF,C,,,,,,,,,,1
1,prac,1,con,1,m,Fri Feb 28 2025 16:58:52 GMT-0600 (Central Standard Time),233498.10000002384,zinc,1000,I,m,,,1114,,,15,1,3409.5,230088.60000002384,7064,zinc,NF,C,,,,,,,,,,2
2,prac,1,inc,1,m,Fri Feb 28 2025 16:58:52 GMT-0600 (Central Standard Time),236679.10000002384,cherry,900,I,m,,,969,,,10,1,3175.600000023842,233503.5,7064,copper,NF,C,,,,,,,,,,3
3,prac,1,inc,1,z,Fri Feb 28 2025 16:58:52 GMT-0600 (Central Standard Time),239894.69999998808,copper,900,I,z,,,1001,,,2,1,3209.0,236685.69999998808,7064,cherry,NF,C,,,,,,,,,,4
4,prac,1,inc,1,m,Fri Feb 28 2025 16:58:52 GMT-0600 (Central Standard Time),243294.39999997616,plum,1100,I,m,,,1009,,,16,1,3393.399999976158,239901.0,7064,lead,NF,C,,,,,,,,,,5
5,prac,1,inc,1,m,Fri Feb 28 2025 16:58:52 GMT-0600 (Central Standard Time),246277.39999997616,pear,900,I,m,,,764,,,14,1,2977.899999976158,243299.5,7064,iron,NF,C,,,,,,,,,,6
6,prac,1,con,1,z,Fri Feb 28 2025 16:58:52 GMT-0600 (Central Standard Time),249410.5,orange,1000,I,z,,,840,,,3,1,3127.199999988079,246283.30000001192,7064,orange,NF,C,,,,,,,,,,7
7,prac,1,con,1,z,Fri Feb 28 2025 16:58:52 GMT-0600 (Central Standard Time),252174.80000001192,lime,800,I,z,,,650,,,5,1,2759.0,249415.80000001192,7064,lime,NF,C,,,,,,,,,,8
8,prac,1,inc,1,m,Fri Feb 28 2025 16:58:52 GMT-0600 (Central Standard Time),255324.69999998808,raisin,1100,I,m,,,753,,,12,1,3144.699999988079,252180.0,7064,cobalt,NF,C,,,,,,,,,,9
9,prac,1,con,1,z,Fri Feb 28 2025 16:58:52 GMT-0600 (Central Standard Time),258406.0,kiwi,1000,I,z,,,777,,,7,1,3074.399999976158,255331.60000002384,7064,kiwi,NF,C,,,,,,,,,,10
10,prac,1,con,1,m,Fri Feb 28 2025 16:58:52 GMT-0600 (Central Standard Time),261373.10000002384,silver,1000,I,m,,,655,,,11,1,2960.2000000476837,258412.89999997616,7064,silver,NF,C,,,,,,,,,,11
11,prac,1,inc,1,z,Fri Feb 28 2025 16:58:52 GMT-0600 (Central Standard Time),264487.5,lead,1100,I,z,,,700,,,8,1,3107.899999976158,261379.60000002384,7064,plum,NF,C,,,,,,,,,,12
12,prac,1,inc,1,z,Fri Feb 28 2025 16:58:52 GMT-0600 (Central Standard Time),267453.39999997616,iron,900,I,z,,,752,,,6,1,2960.699999988079,264492.6999999881,7064,pear,NF,C,,,,,,,,,,13
13,prac,1,con,1,m,Fri Feb 28 2025 16:58:52 GMT-0600 (Central Standard Time),270166.89999997616,bronze,800,I,m,,,599,,,9,1,2706.899999976158,267460.0,7064,bronze,NF,C,,,,,,,,,,14
14,prac,1,con,1,z,Fri Feb 28 2025 16:58:52 GMT-0600 (Central Standard Time),272752.6999999881,banana,800,I,z,,,466,,,1,1,2581.699999988079,270171.0,7064,banana,NF,C,,,,,,,,,,15
15,prac,1,inc,1,z,Fri Feb 28 2025 16:58:52 GMT-0600 (Central Standard Time),275868.39999997616,cobalt,1100,I,z,,,714,,,4,1,3102.5,272765.89999997616,7064,raisin,NF,C,,,,,,,,,,16
1,test,1,inc,1,m,Fri Feb 28 2025 16:58:52 GMT-0600 (Central Standard Time),298693.0,lime,800,I,m,m,None,678,463.0,215.0,117,1,1989.199999988079,296703.8000000119,7064,zinc,NF,C,286704,286704,285180,285987,285181,287169,286489,286489,287169,1
2,test,1,con,1,m,Fri Feb 28 2025 16:58:52 GMT-0600 (Central Standard Time),300975.60000002384,zinc,1100,I,m,m,None,636,420.0,216.0,116,1,2276.2000000476837,298699.39999997616,7064,zinc,NF,C,289019,289019,287175,288287,287176,289452,288803,288803,289451,2
3,test,1,con,1,m,Fri Feb 28 2025 16:58:52 GMT-0600 (Central Standard Time),303124.8000000119,cobalt,900,I,m,m,None,703,487.0,216.0,90,1,2142.5,300982.3000000119,7064,cobalt,NF,C,291103,291103,289458,290371,289459,291601,290886,290886,291601,3
4,test,1,inc,1,z,Fri Feb 28 2025 16:58:52 GMT-0600 (Central Standard Time),305157.8000000119,gold,800,I,z,z,None,682,466.0,216.0,61,1,2026.9000000357628,303130.89999997616,7064,plum,NF,C,293152,293152,291607,292419,291607,293634,292936,292936,293634,4
5,test,1,con,1,z,Fri Feb 28 2025 16:58:52 GMT-0600 (Central Standard Time),307526.0,banana,1100,I,z,z,None,731,519.0,212.0,4,1,2362.399999976158,305163.60000002384,7064,banana,NF,C,295483,295483,293640,294752,293640,296002,295270,295270,296002,5
6,test,1,con,1,m,Fri Feb 28 2025 16:58:52 GMT-0600 (Central Standard Time),309739.6999999881,iron,1100,I,m,m,None,575,374.0,201.0,108,1,2208.300000011921,307531.39999997616,7064,iron,NF,C,297833,297833,296007,297117,296008,298216,297632,297632,298216,6
7,test,1,inc,1,m,Fri Feb 28 2025 16:58:52 GMT-0600 (Central Standard Time),312106.1999999881,orange,1000,I,m,m,None,815,615.0,200.0,79,1,2361.300000011921,309744.89999997616,7064,copper,NF,C,299951,299951,298221,299233,298221,300582,299750,299750,300582,7
8,test,1,con,1,m,Fri Feb 28 2025 16:58:52 GMT-0600 (Central Standard Time),314105.89999997616,silver,800,I,m,m,None,667,451.0,216.0,81,1,1993.8999999761581,312112.0,7064,silver,NF,C,302116,302116,300588,301398,300588,302582,301899,301899,302582,8
9,test,1,con,1,z,Fri Feb 28 2025 16:58:52 GMT-0600 (Central Standard Time),316036.5,banana,800,I,z,z,None,581,381.0,200.0,1,1,1923.6000000238419,314112.89999997616,7064,banana,NF,C,304115,304115,302589,303398,302589,304513,303915,303915,304512,9
10,test,1,con,1,z,Fri Feb 28 2025 16:58:52 GMT-0600 (Central Standard Time),318370.0,orange,1000,I,z,z,None,781,567.0,214.0,19,1,2330.5,316039.5,7064,orange,NF,C,306263,306264,304516,305531,304516,306846,306049,306049,306846,10
11,test,1,con,1,m,Fri Feb 28 2025 16:58:52 GMT-0600 (Central Standard Time),320420.10000002384,lead,800,I,m,m,None,707,507.0,200.0,121,1,2044.800000011921,318375.3000000119,7064,lead,NF,C,308380,308380,306851,307665,306852,308896,308180,308180,308896,11
12,test,1,con,1,m,Fri Feb 28 2025 16:58:52 GMT-0600 (Central Standard Time),322671.3000000119,gold,800,I,m,m,None,913,714.0,199.0,97,1,2245.0,320426.3000000119,7064,gold,NF,C,310429,310429,308902,309713,308903,311147,310230,310230,311147,12
13,test,1,inc,1,m,Fri Feb 28 2025 16:58:52 GMT-0600 (Central Standard Time),324950.10000002384,plum,1100,I,m,m,None,643,427.0,216.0,104,1,2272.2000000476837,322677.89999997616,7064,gold,NF,C,312996,312996,311154,312264,311154,313426,312779,312779,313426,13
14,test,1,con,1,m,Fri Feb 28 2025 16:58:52 GMT-0600 (Central Standard Time),327184.39999997616,gold,900,I,m,m,None,793,577.0,216.0,98,1,2228.699999988079,324955.6999999881,7064,gold,NF,C,315078,315078,313432,314345,313432,315660,314862,314862,315660,14
15,test,1,inc,1,m,Fri Feb 28 2025 16:58:52 GMT-0600 (Central Standard Time),329250.5,cherry,900,I,m,m,None,624,409.0,215.0,86,1,2060.399999976158,327190.10000002384,7064,silver,NF,C,317310,317310,315666,316577,315666,317727,317095,317095,317727,15
16,test,1,con,1,m,Fri Feb 28 2025 16:58:52 GMT-0600 (Central Standard Time),331500.10000002384,iron,1000,I,m,m,None,706,505.0,201.0,107,1,2244.400000035763,329255.6999999881,7064,iron,NF,C,319461,319461,317732,318743,317732,319976,319259,319259,319976,16
17,test,1,con,1,m,Fri Feb 28 2025 16:58:52 GMT-0600 (Central Standard Time),333565.1999999881,bronze,900,I,m,m,None,630,431.0,199.0,66,1,2061.099999964237,331504.10000002384,7064,bronze,NF,C,321609,321609,319980,320892,319980,322041,321409,321409,322041,17
18,test,1,con,1,z,Fri Feb 28 2025 16:58:52 GMT-0600 (Central Standard Time),335464.39999997616,lime,800,I,z,z,None,575,360.0,215.0,33,1,1893.2999999523163,333571.10000002384,7064,lime,NF,C,323575,323575,322047,322858,322047,323940,323360,323360,323940,18
19,test,1,con,1,z,Fri Feb 28 2025 16:58:52 GMT-0600 (Central Standard Time),338097.8000000119,raisin,1100,I,z,z,None,991,792.0,199.0,28,1,2628.900000035763,335468.89999997616,7064,raisin,NF,C,325775,325775,323945,325058,323945,326574,325576,325576,326574,19
20,test,1,inc,1,z,Fri Feb 28 2025 16:58:52 GMT-0600 (Central Standard Time),340215.3000000119,copper,900,I,z,z,None,672,471.0,201.0,30,1,2112.5,338102.8000000119,7064,raisin,NF,C,328208,328208,326579,327491,326579,328691,328006,328007,328691,20
21,test,1,inc,1,m,Fri Feb 28 2025 16:58:52 GMT-0600 (Central Standard Time),342213.39999997616,lime,800,I,m,m,None,664,465.0,199.0,109,1,1992.3999999761581,340221.0,7064,iron,NF,C,330222,330222,328697,329506,328698,330690,330023,330023,330689,21
22,test,1,inc,1,z,Fri Feb 28 2025 16:58:52 GMT-0600 (Central Standard Time),344511.5,silver,1000,I,z,z,None,760,545.0,215.0,31,1,2289.899999976158,342221.60000002384,7064,raisin,NF,C,332438,332439,330698,331706,330698,332988,332223,332223,332988,22
23,test,1,con,1,z,Fri Feb 28 2025 16:58:52 GMT-0600 (Central Standard Time),346877.5,cherry,1100,I,z,z,None,719,503.0,216.0,12,1,2362.0,344515.5,7064,cherry,NF,C,334839,334839,332992,334105,332992,335354,334622,334622,335354,23
24,test,1,inc,1,z,Fri Feb 28 2025 16:58:52 GMT-0600 (Central Standard Time),349196.5,cobalt,1100,I,z,z,None,676,476.0,200.0,16,1,2313.399999976158,346883.10000002384,7064,cherry,NF,C,337187,337187,335359,336472,335359,337673,336987,336987,337673,24
25,test,1,con,1,z,Fri Feb 28 2025 16:58:52 GMT-0600 (Central Standard Time),351476.5,cherry,1000,I,z,z,None,740,538.0,202.0,11,1,2274.600000023842,349201.89999997616,7064,cherry,NF,C,339405,339405,337678,338687,337678,339953,339203,339203,339953,25
26,test,1,inc,1,z,Fri Feb 28 2025 16:58:52 GMT-0600 (Central Standard Time),353624.3000000119,zinc,1000,I,z,z,None,606,407.0,199.0,47,1,2142.800000011921,351481.5,7064,pear,NF,C,341687,341687,339958,340970,339958,342100,341487,341487,342100,26
27,test,1,con,1,m,Fri Feb 28 2025 16:58:52 GMT-0600 (Central Standard Time),355775.1999999881,iron,800,I,m,m,None,803,602.0,201.0,105,1,2147.0,353628.1999999881,7064,iron,NF,C,343636,343636,342104,342919,342104,344251,343435,343435,344251,27
28,test,1,inc,1,z,Fri Feb 28 2025 16:58:52 GMT-0600 (Central Standard Time),357876.8000000119,copper,900,I,z,z,None,649,450.0,199.0,14,1,2096.100000023842,355780.6999999881,7064,cherry,NF,C,345885,345885,344257,345169,344257,346353,345685,345685,346353,28
29,test,1,con,1,z,Fri Feb 28 2025 16:58:52 GMT-0600 (Central Standard Time),359922.5,lime,1000,I,z,z,None,506,304.0,202.0,35,1,2039.800000011921,357882.6999999881,7064,lime,NF,C,348086,348086,346359,347369,346359,348399,347884,347884,348399,29
30,test,1,con,1,z,Fri Feb 28 2025 16:58:52 GMT-0600 (Central Standard Time),362091.8000000119,cherry,900,I,z,z,None,734,518.0,216.0,10,1,2163.699999988079,359928.10000002384,7064,cherry,NF,C,350050,350050,348404,349316,348404,350568,349834,349834,350568,30
31,test,1,con,1,z,Fri Feb 28 2025 16:58:52 GMT-0600 (Central Standard Time),364556.6999999881,kiwi,1100,I,z,z,None,833,632.0,201.0,52,1,2459.5,362097.1999999881,7064,kiwi,NF,C,352400,352400,350573,351683,350573,353033,352199,352199,353033,31
32,test,1,inc,1,m,Fri Feb 28 2025 16:58:52 GMT-0600 (Central Standard Time),366555.60000002384,pear,900,I,m,m,None,557,358.0,199.0,110,1,1992.7000000476837,364562.89999997616,7064,iron,NF,C,354664,354665,353039,353949,353039,355032,354465,354465,355032,32
33,test,1,con,1,z,Fri Feb 28 2025 16:58:52 GMT-0600 (Central Standard Time),368771.0,orange,900,I,z,z,None,774,575.0,199.0,18,1,2209.899999976158,366561.10000002384,7064,orange,NF,C,356664,356664,355037,355948,355038,357247,356465,356465,357247,33
34,test,1,inc,1,m,Fri Feb 28 2025 16:58:52 GMT-0600 (Central Standard Time),370870.10000002384,kiwi,1000,I,m,m,None,553,353.0,200.0,127,1,2095.100000023842,368775.0,7064,lead,NF,C,358982,358982,357251,358266,357251,359346,358781,358781,359346,34
35,test,1,inc,1,m,Fri Feb 28 2025 16:58:52 GMT-0600 (Central Standard Time),373118.89999997616,lime,800,I,m,m,None,910,711.0,199.0,101,1,2243.5,370875.39999997616,7064,gold,NF,C,360880,360880,359351,360164,359352,361595,360681,360681,361595,35
36,test,1,con,1,z,Fri Feb 28 2025 16:58:52 GMT-0600 (Central Standard Time),374987.1999999881,orange,800,I,z,z,None,516,317.0,199.0,17,1,1863.800000011921,373123.39999997616,7064,orange,NF,C,363130,363130,361599,362414,361600,363463,362930,362930,363463,36
37,test,1,inc,1,z,Fri Feb 28 2025 16:58:52 GMT-0600 (Central Standard Time),377334.39999997616,zinc,1000,I,z,z,None,814,612.0,202.0,39,1,2341.2999999523163,374993.10000002384,7064,lime,NF,C,365195,365195,363469,364479,363470,365811,364993,364993,365810,37
38,test,1,inc,1,m,Fri Feb 28 2025 16:58:52 GMT-0600 (Central Standard Time),379683.8000000119,raisin,1100,I,m,m,None,706,506.0,200.0,88,1,2345.0,377338.8000000119,7064,silver,NF,C,367645,367645,365815,366928,365815,368160,367444,367444,368160,38
39,test,1,inc,1,m,Fri Feb 28 2025 16:58:52 GMT-0600 (Central Standard Time),381750.5,cherry,900,I,m,m,None,618,404.0,214.0,94,1,2061.800000011921,379688.6999999881,7064,cobalt,NF,C,369810,369810,368165,369078,368165,370227,369595,369595,370226,39
40,test,1,inc,1,m,Fri Feb 28 2025 16:58:52 GMT-0600 (Central Standard Time),384067.1999999881,kiwi,1000,I,m,m,None,797,583.0,214.0,103,1,2312.099999964237,381755.10000002384,7064,gold,NF,C,371960,371960,370231,371244,370231,372543,371746,371746,372543,40
40,test,1,inc,0,z,Fri Feb 28 2025 16:58:52 GMT-0600 (Central Standard Time),386315.8000000119,gold,800,I,m,m,None,908,707.0,201.0,37,1,2242.800000011921,384073.0,7064,lime,NF,C,374076,374076,372549,373359,372549,374792,373875,373875,374792,41
41,test,1,inc,1,z,Fri Feb 28 2025 16:58:52 GMT-0600 (Central Standard Time),388614.39999997616,cobalt,1100,I,z,z,None,668,468.0,200.0,32,1,2294.399999976158,386320.0,7064,raisin,NF,C,376611,376611,374796,375908,374796,377090,376410,376410,377090,42
42,test,1,inc,1,z,Fri Feb 28 2025 16:58:52 GMT-0600 (Central Standard Time),391414.39999997616,zinc,1000,I,z,z,None,1248,1032.0,216.0,55,1,2795.599999964237,388618.8000000119,7064,kiwi,NF,C,378842,378842,377095,378108,377095,379891,378625,378625,379890,43
43,test,1,con,1,z,Fri Feb 28 2025 16:58:52 GMT-0600 (Central Standard Time),393529.8000000119,raisin,1000,I,z,z,None,575,360.0,215.0,27,1,2110.100000023842,391419.6999999881,7064,raisin,NF,C,381639,381639,379896,380908,379896,382006,381424,381424,382006,44
44,test,1,inc,1,m,Fri Feb 28 2025 16:58:52 GMT-0600 (Central Standard Time),395747.1999999881,kiwi,1000,I,m,m,None,667,468.0,199.0,119,1,2211.800000011921,393535.39999997616,7064,zinc,NF,C,383739,383739,382011,383024,382012,384223,383539,383539,384223,45
45,test,1,inc,1,m,Fri Feb 28 2025 16:58:52 GMT-0600 (Central Standard Time),397962.10000002384,pear,900,I,m,m,None,774,573.0,201.0,102,1,2209.400000035763,395752.6999999881,7064,gold,NF,C,385857,385857,384229,385140,384229,386438,385655,385655,386438,46
46,test,1,inc,1,z,Fri Feb 28 2025 16:58:52 GMT-0600 (Central Standard Time),400111.6999999881,silver,1000,I,z,z,None,604,403.0,201.0,23,1,2144.099999964237,397967.60000002384,7064,orange,NF,C,388172,388172,386444,387454,386444,388588,387971,387971,388588,47
47,test,1,inc,1,m,Fri Feb 28 2025 16:58:52 GMT-0600 (Central Standard Time),402395.10000002384,cherry,900,I,m,m,None,848,649.0,199.0,78,1,2277.7000000476837,400117.39999997616,7064,copper,NF,C,390220,390221,388593,389505,388594,390871,390021,390021,390871,48
48,test,1,con,1,m,Fri Feb 28 2025 16:58:52 GMT-0600 (Central Standard Time),404627.1999999881,iron,900,I,m,m,None,791,591.0,200.0,106,1,2225.800000011921,402401.39999997616,7064,iron,NF,C,392504,392504,390877,391787,390878,393103,392303,392303,393103,49
49,test,1,con,1,z,Fri Feb 28 2025 16:58:52 GMT-0600 (Central Standard Time),406794.1999999881,raisin,900,I,z,z,None,733,533.0,200.0,26,1,2162.099999964237,404632.10000002384,7064,raisin,NF,C,394737,394737,393108,394020,393108,395270,394536,394536,395270,50
50,test,1,con,1,m,Fri Feb 28 2025 16:58:52 GMT-0600 (Central Standard Time),409008.5,zinc,1000,I,m,m,None,669,469.0,200.0,115,1,2211.300000011921,406797.1999999881,7064,zinc,NF,C,397002,397002,395273,396286,395273,397485,396802,396802,397484,51
51,test,1,inc,1,m,Fri Feb 28 2025 16:58:52 GMT-0600 (Central Standard Time),411158.1999999881,lime,800,I,m,m,None,805,604.0,201.0,125,1,2144.5,409013.6999999881,7064,lead,NF,C,399019,399019,397490,398302,397490,399634,398817,398817,399634,52
52,test,1,inc,1,m,Fri Feb 28 2025 16:58:52 GMT-0600 (Central Standard Time),413172.8000000119,pear,900,I,m,m,None,578,379.0,199.0,126,1,2009.800000011921,411163.0,7064,lead,NF,C,401267,401267,399639,400551,399639,401649,401067,401067,401649,53
53,test,1,inc,1,m,Fri Feb 28 2025 16:58:52 GMT-0600 (Central Standard Time),415139.1999999881,banana,800,I,m,m,None,629,416.0,213.0,77,1,1962.0999999642372,413177.10000002384,7064,copper,NF,C,403198,403199,401653,402467,401654,403615,402985,402985,403615,54
54,test,1,inc,1,m,Fri Feb 28 2025 16:58:52 GMT-0600 (Central Standard Time),417271.89999997616,orange,1000,I,m,m,None,594,394.0,200.0,71,1,2125.5,415146.39999997616,7064,bronze,NF,C,405349,405349,403622,404633,403623,405748,405149,405149,405748,55
55,test,1,con,1,m,Fri Feb 28 2025 16:58:52 GMT-0600 (Central Standard Time),419339.1999999881,lead,900,I,m,m,None,624,425.0,199.0,122,1,2059.899999976158,417279.3000000119,7064,lead,NF,C,407382,407382,405755,406665,405756,407815,407182,407182,407815,56
56,test,1,con,1,m,Fri Feb 28 2025 16:58:52 GMT-0600 (Central Standard Time),421338.10000002384,copper,800,I,m,m,None,650,451.0,199.0,73,1,1993.800000011921,419344.3000000119,7064,copper,NF,C,409348,409348,407820,408631,407821,409814,409149,409149,409814,57
57,test,1,inc,1,z,Fri Feb 28 2025 16:58:52 GMT-0600 (Central Standard Time),423469.3000000119,iron,900,I,z,z,None,712,512.0,200.0,62,1,2126.300000011921,421343.0,7064,plum,NF,C,411431,411431,409819,410730,409819,411945,411231,411231,411945,58
58,test,1,con,1,m,Fri Feb 28 2025 16:58:52 GMT-0600 (Central Standard Time),425686.10000002384,copper,1000,I,m,m,None,667,468.0,199.0,75,1,2211.600000023842,423474.5,7064,copper,NF,C,413682,413682,411951,412963,411951,414162,413482,413482,414162,59
59,test,1,inc,1,z,Fri Feb 28 2025 16:58:52 GMT-0600 (Central Standard Time),428784.60000002384,lead,1100,I,z,z,None,1458,1257.0,201.0,56,1,3093.7000000476837,425690.89999997616,7064,kiwi,NF,C,415997,415997,414167,415280,414167,417261,415795,415795,417261,60
60,test,1,con,1,m,Fri Feb 28 2025 16:58:52 GMT-0600 (Central Standard Time),431117.89999997616,bronze,1000,I,m,m,None,801,588.0,213.0,67,1,2330.0,428787.89999997616,7064,bronze,NF,C,418995,418995,417264,418280,417264,419594,418782,418782,419594,61
61,test,1,inc,1,z,Fri Feb 28 2025 16:58:52 GMT-0600 (Central Standard Time),433766.89999997616,silver,1000,I,z,z,None,1103,903.0,200.0,15,1,2644.2999999523163,431122.60000002384,7064,cherry,NF,C,421328,421328,419599,420611,419599,422243,421128,421128,422243,62
62,test,1,con,1,m,Fri Feb 28 2025 16:58:52 GMT-0600 (Central Standard Time),435998.8000000119,cobalt,1100,I,m,m,None,592,377.0,215.0,92,1,2226.900000035763,433771.89999997616,7064,cobalt,NF,C,424094,424094,422248,423362,422248,424475,423877,423878,424475,63
63,test,1,inc,1,m,Fri Feb 28 2025 16:58:52 GMT-0600 (Central Standard Time),438215.10000002384,plum,1100,I,m,m,None,593,378.0,215.0,112,1,2212.7000000476837,436002.39999997616,7064,iron,NF,C,426309,426309,424478,425592,424479,426691,426094,426094,426691,64
64,test,1,con,1,z,Fri Feb 28 2025 16:58:52 GMT-0600 (Central Standard Time),440331.89999997616,plum,1000,I,z,z,None,573,374.0,199.0,59,1,2112.2999999523163,438219.60000002384,7064,plum,NF,C,428425,428425,426696,427709,426696,428808,428225,428225,428808,65
65,test,1,con,1,z,Fri Feb 28 2025 16:58:52 GMT-0600 (Central Standard Time),442631.0,pear,900,I,z,z,None,853,654.0,199.0,42,1,2296.0,440335.0,7064,pear,NF,C,430441,430441,428811,429724,428811,431107,430241,430241,431107,66
66,test,1,inc,1,m,Fri Feb 28 2025 16:58:52 GMT-0600 (Central Standard Time),444795.89999997616,kiwi,1000,I,m,m,None,629,415.0,214.0,111,1,2160.099999964237,442635.8000000119,7064,iron,NF,C,432856,432856,431112,432125,431112,433272,432641,432641,433272,67
67,test,1,inc,1,m,Fri Feb 28 2025 16:58:52 GMT-0600 (Central Standard Time),447462.60000002384,raisin,1100,I,m,m,None,1032,832.0,200.0,96,1,2662.0,444800.60000002384,7064,cobalt,NF,C,435106,435106,433277,434391,433277,435939,434906,434906,435939,68
68,test,1,inc,1,m,Fri Feb 28 2025 16:58:52 GMT-0600 (Central Standard Time),449779.60000002384,plum,1100,I,m,m,None,681,467.0,214.0,128,1,2311.7000000476837,447467.89999997616,7064,lead,NF,C,437788,437788,435944,437056,435944,438256,437574,437574,438256,69
69,test,1,inc,1,z,Fri Feb 28 2025 16:58:52 GMT-0600 (Central Standard Time),452111.1999999881,copper,900,I,z,z,None,895,695.0,200.0,22,1,2327.5,449783.6999999881,7064,orange,NF,C,439889,439889,438260,439172,438260,440587,439688,439688,440587,70
70,test,1,con,1,m,Fri Feb 28 2025 16:58:52 GMT-0600 (Central Standard Time),454526.89999997616,gold,1000,I,m,m,None,875,675.0,200.0,99,1,2411.5,452115.39999997616,7064,gold,NF,C,442324,442324,440591,441604,440592,443003,442124,442124,443003,71
71,test,1,inc,1,z,Fri Feb 28 2025 16:58:52 GMT-0600 (Central Standard Time),457392.6999999881,cobalt,1100,I,z,z,None,1217,1018.0,199.0,24,1,2861.5,454531.1999999881,7064,orange,NF,C,444836,444836,443007,444121,443007,445869,444635,444636,445869,72
72,test,1,inc,1,z,Fri Feb 28 2025 16:58:52 GMT-0600 (Central Standard Time),459492.5,gold,800,I,z,z,None,757,557.0,200.0,53,1,2094.899999976158,457397.60000002384,7064,kiwi,NF,C,447402,447402,445874,446685,445874,447969,447202,447202,447968,73
73,test,1,inc,1,z,Fri Feb 28 2025 16:58:52 GMT-0600 (Central Standard Time),461692.8000000119,zinc,1000,I,z,z,None,666,466.0,200.0,63,1,2195.5,459497.3000000119,7064,plum,NF,C,449702,449702,447973,448985,447974,450169,449501,449501,450169,74
74,test,1,con,1,m,Fri Feb 28 2025 16:58:52 GMT-0600 (Central Standard Time),464058.39999997616,silver,900,I,m,m,None,933,733.0,200.0,82,1,2361.0,461697.39999997616,7064,silver,NF,C,451785,451785,450173,451083,450174,452534,451585,451585,452534,75
75,test,1,con,1,z,Fri Feb 28 2025 16:58:52 GMT-0600 (Central Standard Time),466206.1999999881,cherry,800,I,z,z,None,804,604.0,200.0,9,1,2143.899999976158,464062.3000000119,7064,cherry,NF,C,454067,454067,452538,453351,452539,454682,453867,453867,454682,76
76,test,1,inc,1,m,Fri Feb 28 2025 16:58:52 GMT-0600 (Central Standard Time),468723.10000002384,plum,1100,I,m,m,None,868,667.0,201.0,120,1,2512.300000011921,466210.8000000119,7064,zinc,NF,C,456516,456516,454687,455799,454687,457199,456315,456315,457199,77
77,test,1,con,1,z,Fri Feb 28 2025 16:58:52 GMT-0600 (Central Standard Time),470605.0,plum,800,I,z,z,None,538,338.0,200.0,57,1,1877.300000011921,468727.6999999881,7064,plum,NF,C,458732,458732,457204,458016,457204,459081,458532,458532,459081,78
78,test,1,con,1,z,Fri Feb 28 2025 16:58:52 GMT-0600 (Central Standard Time),472774.1999999881,lime,1100,I,z,z,None,535,319.0,216.0,36,1,2165.199999988079,470609.0,7064,lime,NF,C,460931,460931,459085,460200,459085,461250,460715,460715,461250,79
79,test,1,con,1,z,Fri Feb 28 2025 16:58:52 GMT-0600 (Central Standard Time),475053.10000002384,kiwi,1000,I,z,z,None,738,523.0,215.0,51,1,2274.2000000476837,472778.89999997616,7064,kiwi,NF,C,462996,462996,461255,462265,461255,463529,462781,462781,463529,80
80,test,1,con,1,m,Fri Feb 28 2025 16:58:52 GMT-0600 (Central Standard Time),477569.0,silver,1100,I,m,m,None,864,650.0,214.0,84,1,2511.600000023842,475057.39999997616,7064,silver,NF,C,465380,465380,463533,464647,463534,466045,465166,465166,466045,81
81,test,1,inc,1,z,Fri Feb 28 2025 16:58:52 GMT-0600 (Central Standard Time),479701.39999997616,bronze,800,I,z,z,None,788,588.0,200.0,5,1,2129.5,477571.89999997616,7064,banana,NF,C,467579,467579,466048,466863,466048,468178,467379,467379,468177,82
82,test,1,inc,1,m,Fri Feb 28 2025 16:58:52 GMT-0600 (Central Standard Time),481934.60000002384,orange,1000,I,m,m,None,695,495.0,200.0,87,1,2228.7000000476837,479705.89999997616,7064,silver,NF,C,469912,469912,468182,469196,468182,470411,469711,469711,470411,83
83,test,1,con,1,m,Fri Feb 28 2025 16:58:52 GMT-0600 (Central Standard Time),484550.10000002384,copper,1100,I,m,m,None,982,781.0,201.0,76,1,2610.900000035763,481939.1999999881,7064,copper,NF,C,472245,472245,470415,471530,470416,473026,472044,472044,473026,84
84,test,1,inc,1,z,Fri Feb 28 2025 16:58:52 GMT-0600 (Central Standard Time),486816.0,cobalt,1100,I,z,z,None,626,427.0,199.0,8,1,2260.899999976158,484555.10000002384,7064,banana,NF,C,474860,474860,473031,474144,473032,475292,474661,474661,475292,85
85,test,1,inc,1,m,Fri Feb 28 2025 16:58:52 GMT-0600 (Central Standard Time),489382.10000002384,raisin,1100,I,m,m,None,930,731.0,199.0,80,1,2560.600000023842,486821.5,7064,copper,NF,C,477127,477127,475298,476410,475298,477858,476927,476927,477858,86
86,test,1,con,1,m,Fri Feb 28 2025 16:58:52 GMT-0600 (Central Standard Time),491933.1999999881,lead,1100,I,m,m,None,907,691.0,216.0,124,1,2545.5,489387.6999999881,7064,lead,NF,C,479709,479709,477864,478976,477864,480409,479493,479493,480409,87
87,test,1,con,1,z,Fri Feb 28 2025 16:58:52 GMT-0600 (Central Standard Time),493830.5,raisin,800,I,z,z,None,561,361.0,200.0,25,1,1891.8999999761581,491938.60000002384,7064,raisin,NF,C,481942,481942,480415,481227,480415,482307,481740,481740,482307,88
88,test,1,con,1,m,Fri Feb 28 2025 16:58:52 GMT-0600 (Central Standard Time),495980.5,cobalt,1000,I,m,m,None,606,406.0,200.0,91,1,2145.100000023842,493835.39999997616,7064,cobalt,NF,C,484041,484041,482311,483326,482312,484457,483841,483841,484457,89
89,test,1,inc,1,m,Fri Feb 28 2025 16:58:52 GMT-0600 (Central Standard Time),498280.1999999881,orange,1000,I,m,m,None,752,553.0,199.0,95,1,2294.099999964237,495986.10000002384,7064,cobalt,NF,C,486190,486190,484462,485472,484462,486756,485991,485991,486756,90
90,test,1,con,1,m,Fri Feb 28 2025 16:58:52 GMT-0600 (Central Standard Time),500546.5,lead,1000,I,m,m,None,741,541.0,200.0,123,1,2261.399999976158,498285.10000002384,7064,lead,NF,C,488473,488473,486761,487772,486762,489023,488273,488273,489023,91
91,test,1,con,1,z,Fri Feb 28 2025 16:58:52 GMT-0600 (Central Standard Time),502344.6999999881,lime,900,I,z,z,None,360,159.0,201.0,34,1,1792.0999999642372,500552.60000002384,7064,lime,NF,C,490656,490656,489029,489938,489029,490821,490455,490455,490821,92
92,test,1,con,1,z,Fri Feb 28 2025 16:58:52 GMT-0600 (Central Standard Time),504460.3000000119,pear,800,I,z,z,None,781,581.0,200.0,41,1,2110.600000023842,502349.6999999881,7064,pear,NF,C,492355,492355,490826,491639,490826,492936,492155,492155,492936,93
93,test,1,con,1,z,Fri Feb 28 2025 16:58:52 GMT-0600 (Central Standard Time),506611.5,plum,900,I,z,z,None,700,501.0,199.0,58,1,2142.5,504469.0,7064,plum,NF,C,494570,494570,492945,493854,492945,495088,494371,494371,495087,94
94,test,1,inc,1,z,Fri Feb 28 2025 16:58:52 GMT-0600 (Central Standard Time),508843.8000000119,gold,800,I,z,z,None,898,698.0,200.0,45,1,2226.199999988079,506617.60000002384,7064,pear,NF,C,496621,496621,495094,495903,495094,497320,496420,496420,497320,95
95,test,1,con,1,z,Fri Feb 28 2025 16:58:52 GMT-0600 (Central Standard Time),511075.6999999881,pear,1000,I,z,z,None,698,498.0,200.0,43,1,2227.300000011921,508848.39999997616,7064,pear,NF,C,499053,499053,497324,498336,497325,499552,498853,498853,499552,96
96,test,1,con,1,z,Fri Feb 28 2025 16:58:52 GMT-0600 (Central Standard Time),513342.10000002384,banana,900,I,z,z,None,820,620.0,200.0,2,1,2260.5,511081.60000002384,7064,banana,NF,C,501185,501186,499558,500469,499558,501818,500985,500985,501818,97
97,test,1,con,1,m,Fri Feb 28 2025 16:58:52 GMT-0600 (Central Standard Time),515408.0,bronze,800,I,m,m,None,719,520.0,199.0,65,1,2058.399999976158,513349.60000002384,7064,bronze,NF,C,503350,503350,501826,502637,501826,503884,503151,503151,503884,98
98,test,1,inc,1,m,Fri Feb 28 2025 16:58:52 GMT-0600 (Central Standard Time),517940.89999997616,banana,800,I,m,m,None,1190,988.0,202.0,93,1,2528.7999999523163,515412.10000002384,7064,cobalt,NF,C,505419,505419,503888,504700,503889,506417,505217,505217,506417,99
99,test,1,inc,1,z,Fri Feb 28 2025 16:58:52 GMT-0600 (Central Standard Time),520172.60000002384,lead,1100,I,z,z,None,589,388.0,201.0,48,1,2225.400000035763,517947.1999999881,7064,pear,NF,C,508251,508251,506423,507533,506424,508649,508050,508050,508649,100
100,test,1,inc,1,z,Fri Feb 28 2025 16:58:52 GMT-0600 (Central Standard Time),522556.0,lead,1100,I,z,z,None,736,522.0,214.0,40,1,2377.699999988079,520178.3000000119,7064,lime,NF,C,510500,510500,508654,509765,508655,511032,510285,510285,511032,101
101,test,1,inc,1,m,Fri Feb 28 2025 16:58:52 GMT-0600 (Central Standard Time),524870.3000000119,raisin,1100,I,m,m,None,670,471.0,199.0,72,1,2310.100000023842,522560.1999999881,7064,bronze,NF,C,512864,512864,511036,512150,511037,513346,512665,512665,513346,102
102,test,1,con,1,m,Fri Feb 28 2025 16:58:52 GMT-0600 (Central Standard Time),527085.8000000119,zinc,900,I,m,m,None,769,552.0,217.0,114,1,2209.699999988079,524876.1000000238,7064,zinc,NF,C,514998,514998,513352,514264,513352,515562,514781,514781,515562,103
103,test,1,con,1,z,Fri Feb 28 2025 16:58:52 GMT-0600 (Central Standard Time),529285.8000000119,banana,1000,I,z,z,None,654,453.0,201.0,3,1,2192.900000035763,527092.8999999762,7064,banana,NF,C,517298,517298,515569,516580,515570,517762,517097,517097,517762,104
104,test,1,con,1,z,Fri Feb 28 2025 16:58:52 GMT-0600 (Central Standard Time),531535.5,kiwi,800,I,z,z,None,901,684.0,217.0,49,1,2243.699999988079,529291.8000000119,7064,kiwi,NF,C,519314,519314,517768,518580,517768,520012,519097,519097,520012,105
105,test,1,inc,1,z,Fri Feb 28 2025 16:58:52 GMT-0600 (Central Standard Time),533568.3999999762,iron,900,I,z,z,None,591,392.0,199.0,54,1,2026.2999999523163,531542.1000000238,7064,kiwi,NF,C,521646,521646,520018,520929,520019,522045,521446,521446,522044,106
106,test,1,inc,1,z,Fri Feb 28 2025 16:58:52 GMT-0600 (Central Standard Time),535601.8000000119,bronze,800,I,z,z,None,683,467.0,216.0,13,1,2029.800000011921,533572.0,7064,cherry,NF,C,523595,523595,522048,522861,522048,524078,523379,523379,524078,107
107,test,1,inc,1,m,Fri Feb 28 2025 16:58:52 GMT-0600 (Central Standard Time),537883.3999999762,banana,800,I,m,m,None,939,740.0,199.0,85,1,2277.5,535605.8999999762,7064,silver,NF,C,525610,525610,524082,524894,524082,526359,525410,525410,526359,108
108,test,1,con,1,m,Fri Feb 28 2025 16:58:52 GMT-0600 (Central Standard Time),540332.6999999881,bronze,1100,I,m,m,None,813,596.0,217.0,68,1,2443.0,537889.6999999881,7064,bronze,NF,C,528212,528212,526366,527479,526366,528809,527995,527995,528809,109
109,test,1,con,1,z,Fri Feb 28 2025 16:58:52 GMT-0600 (Central Standard Time),542949.5,pear,1100,I,z,z,None,983,781.0,202.0,44,1,2611.300000011921,540338.1999999881,7064,pear,NF,C,530644,530644,528814,529926,528815,531426,530441,530441,531425,110
110,test,1,inc,1,z,Fri Feb 28 2025 16:58:52 GMT-0600 (Central Standard Time),544950.0,bronze,800,I,z,z,None,667,467.0,200.0,29,1,1996.0,542954.0,7064,raisin,NF,C,532959,532959,531430,532242,531430,533426,532758,532758,533426,111
111,test,1,con,1,m,Fri Feb 28 2025 16:58:52 GMT-0600 (Central Standard Time),547030.6999999881,cobalt,800,I,m,m,None,744,545.0,199.0,89,1,2075.399999976158,544955.3000000119,7064,cobalt,NF,C,534958,534958,533431,534241,533432,535507,534759,534759,535507,112
112,test,1,inc,1,z,Fri Feb 28 2025 16:58:52 GMT-0600 (Central Standard Time),549480.1000000238,lead,1100,I,z,z,None,802,599.0,203.0,64,1,2444.2000000476837,547035.8999999762,7064,plum,NF,C,537343,537343,535512,536625,535512,537956,537140,537140,537956,113
113,test,1,con,1,m,Fri Feb 28 2025 16:58:52 GMT-0600 (Central Standard Time),551828.3999999762,copper,900,I,m,m,None,905,687.0,218.0,74,1,2342.899999976158,549485.5,7064,copper,NF,C,539608,539608,537961,538874,537962,540305,539390,539390,540304,114
114,test,1,inc,1,m,Fri Feb 28 2025 16:58:52 GMT-0600 (Central Standard Time),553997.1000000238,cherry,900,I,m,m,None,732,518.0,214.0,70,1,2163.2000000476837,551833.8999999762,7064,bronze,NF,C,541955,541955,540310,541222,540310,542473,541740,541740,542473,115
115,test,1,con,1,z,Fri Feb 28 2025 16:58:52 GMT-0600 (Central Standard Time),556378.1000000238,orange,1100,I,z,z,None,742,542.0,200.0,20,1,2376.100000023842,554002.0,7064,orange,NF,C,544305,544305,542478,543588,542478,544854,544105,544105,544854,116
116,test,1,con,1,z,Fri Feb 28 2025 16:58:52 GMT-0600 (Central Standard Time),558544.0,kiwi,900,I,z,z,None,727,528.0,199.0,50,1,2160.5,556383.5,7064,kiwi,NF,C,546487,546487,544860,545769,544860,547020,546288,546288,547020,117
117,test,1,inc,1,z,Fri Feb 28 2025 16:58:52 GMT-0600 (Central Standard Time),560525.0,bronze,800,I,z,z,None,647,433.0,214.0,21,1,1976.8999999761581,558548.1000000238,7064,orange,NF,C,548568,548568,547024,547837,547024,549001,548354,548354,549001,118
118,test,1,con,1,m,Fri Feb 28 2025 16:58:52 GMT-0600 (Central Standard Time),562676.3000000119,silver,1000,I,m,m,None,605,406.0,199.0,83,1,2146.800000011921,560529.5,7064,silver,NF,C,550737,550737,549006,550021,549006,551152,550536,550536,551152,119
119,test,1,inc,1,z,Fri Feb 28 2025 16:58:52 GMT-0600 (Central Standard Time),564807.8000000119,copper,900,I,z,z,None,693,494.0,199.0,6,1,2125.800000011921,562682.0,7064,banana,NF,C,552785,552785,551158,552069,551158,553284,552586,552586,553284,120
120,test,1,inc,1,m,Fri Feb 28 2025 16:58:52 GMT-0600 (Central Standard Time),567058.3999999762,banana,800,I,m,m,None,917,717.0,200.0,69,1,2245.699999988079,564812.6999999881,7064,bronze,NF,C,554817,554817,553289,554102,553289,555534,554617,554617,555534,121
121,test,1,inc,1,z,Fri Feb 28 2025 16:58:52 GMT-0600 (Central Standard Time),569454.3000000119,silver,1000,I,z,z,None,873,674.0,199.0,7,1,2391.0,567063.3000000119,7064,banana,NF,C,557251,557251,555539,556549,555540,557930,557051,557051,557930,122
122,test,1,con,1,m,Fri Feb 28 2025 16:58:52 GMT-0600 (Central Standard Time),571906.1999999881,gold,1100,I,m,m,None,810,608.0,202.0,100,1,2449.0,569457.1999999881,7064,gold,NF,C,559767,559767,557933,559050,557933,560382,559565,559565,560382,123
123,test,1,con,1,m,Fri Feb 28 2025 16:58:52 GMT-0600 (Central Standard Time),574387.0,zinc,800,I,m,m,None,1138,938.0,200.0,113,1,2475.800000011921,571911.1999999881,7064,zinc,NF,C,561916,561916,560387,561200,560387,562863,561716,561716,562863,124
124,test,1,con,1,z,Fri Feb 28 2025 16:58:52 GMT-0600 (Central Standard Time),576755.1000000238,plum,1100,I,z,z,None,734,535.0,199.0,60,1,2362.5,574392.6000000238,7064,plum,NF,C,564696,564696,562869,563982,562869,565231,564497,564497,565231,125
125,test,1,inc,1,z,Fri Feb 28 2025 16:58:52 GMT-0600 (Central Standard Time),578853.5,iron,900,I,z,z,None,669,454.0,215.0,46,1,2094.600000023842,576758.8999999762,7064,pear,NF,C,566864,566864,565235,566147,565235,567330,566649,566649,567330,126
126,test,1,inc,1,z,Fri Feb 28 2025 16:58:52 GMT-0600 (Central Standard Time),580936.3000000119,iron,900,I,z,z,None,643,443.0,200.0,38,1,2079.300000011921,578857.0,7064,lime,NF,C,568964,568964,567333,568248,567333,569412,568764,568764,569412,127
127,test,1,inc,1,m,Fri Feb 28 2025 16:58:52 GMT-0600 (Central Standard Time),583053.3000000119,pear,900,I,m,m,None,687,473.0,214.0,118,1,2113.5,580939.8000000119,7064,zinc,NF,C,571045,571045,569416,570330,569416,571529,570831,570831,571529,128
