block_c,block_dur,condition,countdown,datetime,endtime,list,multichar_response,project,response,response_time,session_number,start_end,starttime,subject_id,task,task_vers,trial
,,,,Fri Oct 11 2024 14:04:21 GMT-0500 (Central Daylight Time),,,,O,space,302,1,,,7024,WL,C,
prac,,0,,Fri Oct 11 2024 14:04:21 GMT-0500 (Central Daylight Time),,NA,b,O,b,2162,1,,,7024,WL,C,1.0
prac,,0,,Fri Oct 11 2024 14:04:21 GMT-0500 (Central Daylight Time),,NA,bo,O,o,335,1,,,7024,WL,C,1.0
prac,,0,,Fri Oct 11 2024 14:04:21 GMT-0500 (Central Daylight Time),,NA,boo,O,o,154,1,,,7024,WL,C,1.0
prac,,0,,Fri Oct 11 2024 14:04:21 GMT-0500 (Central Daylight Time),,NA,boos,O,s,115,1,,,7024,WL,C,1.0
prac,,0,,Fri Oct 11 2024 14:04:21 GMT-0500 (Central Daylight Time),,NA,boost,O,t,246,1,,,7024,WL,C,1.0
prac,,0,,Fri Oct 11 2024 14:04:21 GMT-0500 (Central Daylight Time),,NA,boostenter,O,enter,2651,1,,,7024,WL,C,1.0
1,1.2179999351501465,learn,58782.00006484985,Fri Oct 11 2024 14:04:21 GMT-0500 (Central Daylight Time),164472.09999999404,A,t,O,t,1197,1,1217.0999999940395,163255.0,7024,WL,C,1.0
1,1.4000000953674316,learn,58599.99990463257,Fri Oct 11 2024 14:04:21 GMT-0500 (Central Daylight Time),164654.3999999985,A,to,O,o,162,1,1399.3999999985099,163255.0,7024,WL,C,1.0
1,1.5169999599456787,learn,58483.00004005432,Fri Oct 11 2024 14:04:21 GMT-0500 (Central Daylight Time),164771.0,A,tow,O,w,101,1,1516.0,163255.0,7024,WL,C,1.0
1,1.6000001430511475,learn,58399.99985694885,Fri Oct 11 2024 14:04:21 GMT-0500 (Central Daylight Time),164854.19999999553,A,towe,O,e,65,1,1599.1999999955297,163255.0,7024,WL,C,1.0
1,1.7170000076293945,learn,58282.999992370605,Fri Oct 11 2024 14:04:21 GMT-0500 (Central Daylight Time),164971.0,A,tower,O,r,101,1,1716.0,163255.0,7024,WL,C,1.0
1,2.065999984741211,learn,57934.00001525879,Fri Oct 11 2024 14:04:21 GMT-0500 (Central Daylight Time),165320.8999999985,A,towerenter,O,enter,337,1,2065.89999999851,163255.0,7024,WL,C,1.0
1,2.4830000400543213,learn,57516.99995994568,Fri Oct 11 2024 14:04:21 GMT-0500 (Central Daylight Time),165737.09999999404,A,w,O,w,411,1,415.69999999552965,165321.3999999985,7024,WL,C,2.0
1,2.6000001430511475,learn,57399.99985694885,Fri Oct 11 2024 14:04:21 GMT-0500 (Central Daylight Time),165853.8999999985,A,we,O,e,98,1,532.5,165321.3999999985,7024,WL,C,2.0
1,2.699000120162964,learn,57300.999879837036,Fri Oct 11 2024 14:04:21 GMT-0500 (Central Daylight Time),165953.8999999985,A,weh,O,h,86,1,632.5,165321.3999999985,7024,WL,C,2.0
1,3.115999937057495,learn,56884.000062942505,Fri Oct 11 2024 14:04:21 GMT-0500 (Central Daylight Time),166370.29999999702,A,we,O,backspace,410,1,1048.8999999985099,165321.3999999985,7024,WL,C,2.0
1,3.249000072479248,learn,56750.99992752075,Fri Oct 11 2024 14:04:21 GMT-0500 (Central Daylight Time),166503.79999999702,A,w,O,backspace,121,1,1182.3999999985099,165321.3999999985,7024,WL,C,2.0
1,3.449000120162964,learn,56550.999879837036,Fri Oct 11 2024 14:04:21 GMT-0500 (Central Daylight Time),166703.59999999404,A,wh,O,h,180,1,1382.1999999955297,165321.3999999985,7024,WL,C,2.0
1,3.499000072479248,learn,56500.99992752075,Fri Oct 11 2024 14:04:21 GMT-0500 (Central Daylight Time),166753.29999999702,A,whe,O,e,44,1,1431.8999999985099,165321.3999999985,7024,WL,C,2.0
1,3.5820000171661377,learn,56417.99998283386,Fri Oct 11 2024 14:04:21 GMT-0500 (Central Daylight Time),166836.79999999702,A,whea,O,a,75,1,1515.3999999985099,165321.3999999985,7024,WL,C,2.0
1,3.7160000801086426,learn,56283.99991989136,Fri Oct 11 2024 14:04:21 GMT-0500 (Central Daylight Time),166970.29999999702,A,wheat,O,t,119,1,1648.8999999985099,165321.3999999985,7024,WL,C,2.0
1,3.932000160217285,learn,56067.999839782715,Fri Oct 11 2024 14:04:21 GMT-0500 (Central Daylight Time),167186.69999999553,A,wheatenter,O,enter,209,1,1865.2999999970198,165321.3999999985,7024,WL,C,2.0
1,4.115999937057495,learn,55884.000062942505,Fri Oct 11 2024 14:04:21 GMT-0500 (Central Daylight Time),167370.0,A,s,O,s,177,1,182.80000000447035,167187.19999999553,7024,WL,C,3.0
1,4.249000072479248,learn,55750.99992752075,Fri Oct 11 2024 14:04:21 GMT-0500 (Central Daylight Time),167503.29999999702,A,su,O,u,122,1,316.1000000014901,167187.19999999553,7024,WL,C,3.0
1,4.582000017166138,learn,55417.99998283386,Fri Oct 11 2024 14:04:21 GMT-0500 (Central Daylight Time),167836.5,A,sug,O,g,317,1,649.3000000044703,167187.19999999553,7024,WL,C,3.0
1,4.699000120162964,learn,55300.999879837036,Fri Oct 11 2024 14:04:21 GMT-0500 (Central Daylight Time),167953.19999999553,A,suga,O,a,112,1,766.0,167187.19999999553,7024,WL,C,3.0
1,4.815000057220459,learn,55184.99994277954,Fri Oct 11 2024 14:04:21 GMT-0500 (Central Daylight Time),168069.8999999985,A,sugar,O,r,107,1,882.7000000029802,167187.19999999553,7024,WL,C,3.0
1,5.082000017166138,learn,54917.99998283386,Fri Oct 11 2024 14:04:21 GMT-0500 (Central Daylight Time),168336.29999999702,A,sugarenter,O,enter,254,1,1149.1000000014901,167187.19999999553,7024,WL,C,3.0
1,5.449000120162964,learn,54550.999879837036,Fri Oct 11 2024 14:04:21 GMT-0500 (Central Daylight Time),168702.8999999985,A,b,O,b,348,1,366.1000000014901,168336.79999999702,7024,WL,C,4.0
1,5.5320000648498535,learn,54467.99993515015,Fri Oct 11 2024 14:04:21 GMT-0500 (Central Daylight Time),168786.3999999985,A,bo,O,o,69,1,449.6000000014901,168336.79999999702,7024,WL,C,4.0
1,5.648999929428101,learn,54351.0000705719,Fri Oct 11 2024 14:04:21 GMT-0500 (Central Daylight Time),168903.0,A,boy,O,y,106,1,566.2000000029802,168336.79999999702,7024,WL,C,4.0
1,5.883000135421753,learn,54116.99986457825,Fri Oct 11 2024 14:04:21 GMT-0500 (Central Daylight Time),169137.5,A,boyenter,O,enter,212,1,800.7000000029802,168336.79999999702,7024,WL,C,4.0
1,6.0980000495910645,learn,53901.999950408936,Fri Oct 11 2024 14:04:21 GMT-0500 (Central Daylight Time),169352.59999999404,A,h,O,h,194,1,214.59999999403954,169138.0,7024,WL,C,5.0
1,6.197999954223633,learn,53802.00004577637,Fri Oct 11 2024 14:04:21 GMT-0500 (Central Daylight Time),169452.79999999702,A,ho,O,o,84,1,314.79999999701977,169138.0,7024,WL,C,5.0
1,6.332000017166138,learn,53667.99998283386,Fri Oct 11 2024 14:04:21 GMT-0500 (Central Daylight Time),169586.0,A,hom,O,m,127,1,448.0,169138.0,7024,WL,C,5.0
1,6.465000152587891,learn,53534.99984741211,Fri Oct 11 2024 14:04:21 GMT-0500 (Central Daylight Time),169719.59999999404,A,home,O,e,114,1,581.5999999940395,169138.0,7024,WL,C,5.0
1,6.79800009727478,learn,53201.99990272522,Fri Oct 11 2024 14:04:21 GMT-0500 (Central Daylight Time),170052.5,A,homeenter,O,enter,315,1,914.5,169138.0,7024,WL,C,5.0
1,7.164999961853027,learn,52835.00003814697,Fri Oct 11 2024 14:04:21 GMT-0500 (Central Daylight Time),170419.19999999553,A,c,O,c,352,1,366.3999999985099,170052.79999999702,7024,WL,C,6.0
1,7.281000137329102,learn,52718.9998626709,Fri Oct 11 2024 14:04:21 GMT-0500 (Central Daylight Time),170535.8999999985,A,ca,O,a,97,1,483.1000000014901,170052.79999999702,7024,WL,C,6.0
1,7.414999961853027,learn,52585.00003814697,Fri Oct 11 2024 14:04:21 GMT-0500 (Central Daylight Time),170669.0,A,cat,O,t,116,1,616.2000000029802,170052.79999999702,7024,WL,C,6.0
1,7.54800009727478,learn,52451.99990272522,Fri Oct 11 2024 14:04:21 GMT-0500 (Central Daylight Time),170802.3999999985,A,catt,O,t,126,1,749.6000000014901,170052.79999999702,7024,WL,C,6.0
1,7.715000152587891,learn,52284.99984741211,Fri Oct 11 2024 14:04:21 GMT-0500 (Central Daylight Time),170968.8999999985,A,cattl,O,l,162,1,916.1000000014901,170052.79999999702,7024,WL,C,6.0
1,7.79800009727478,learn,52201.99990272522,Fri Oct 11 2024 14:04:21 GMT-0500 (Central Daylight Time),171052.19999999553,A,cattle,O,e,75,1,999.3999999985099,170052.79999999702,7024,WL,C,6.0
1,7.980999946594238,learn,52019.00005340576,Fri Oct 11 2024 14:04:21 GMT-0500 (Central Daylight Time),171235.59999999404,A,cattleenter,O,enter,168,1,1182.7999999970198,170052.79999999702,7024,WL,C,6.0
1,9.331000089645386,learn,50668.999910354614,Fri Oct 11 2024 14:04:21 GMT-0500 (Central Daylight Time),172585.3999999985,A,q,O,q,1328,1,1349.3000000044703,171236.09999999404,7024,WL,C,7.0
1,9.480999946594238,learn,50519.00005340576,Fri Oct 11 2024 14:04:21 GMT-0500 (Central Daylight Time),172735.29999999702,A,qu,O,u,131,1,1499.2000000029802,171236.09999999404,7024,WL,C,7.0
1,9.581000089645386,learn,50418.999910354614,Fri Oct 11 2024 14:04:21 GMT-0500 (Central Daylight Time),172835.0,A,que,O,e,93,1,1598.9000000059605,171236.09999999404,7024,WL,C,7.0
1,9.730000019073486,learn,50269.999980926514,Fri Oct 11 2024 14:04:21 GMT-0500 (Central Daylight Time),172984.8999999985,A,quee,O,e,137,1,1748.8000000044703,171236.09999999404,7024,WL,C,7.0
1,9.814000129699707,learn,50185.99987030029,Fri Oct 11 2024 14:04:21 GMT-0500 (Central Daylight Time),173068.19999999553,A,queen,O,n,76,1,1832.1000000014901,171236.09999999404,7024,WL,C,7.0
1,9.996999979019165,learn,50003.000020980835,Fri Oct 11 2024 14:04:21 GMT-0500 (Central Daylight Time),173251.5,A,queenenter,O,enter,168,1,2015.4000000059605,171236.09999999404,7024,WL,C,7.0
1,12.263000011444092,learn,47736.99998855591,Fri Oct 11 2024 14:04:21 GMT-0500 (Central Daylight Time),175517.5,A,o,O,o,2256,1,2265.60000000149,173251.8999999985,7024,WL,C,8.0
1,12.729000091552734,learn,47270.999908447266,Fri Oct 11 2024 14:04:21 GMT-0500 (Central Daylight Time),175984.0,A,,O,backspace,455,1,2732.10000000149,173251.8999999985,7024,WL,C,8.0
1,12.86300015449524,learn,47136.99984550476,Fri Oct 11 2024 14:04:21 GMT-0500 (Central Daylight Time),176117.59999999404,A,b,O,b,116,1,2865.6999999955297,173251.8999999985,7024,WL,C,8.0
1,12.979000091552734,learn,47020.999908447266,Fri Oct 11 2024 14:04:21 GMT-0500 (Central Daylight Time),176233.8999999985,A,bo,O,o,103,1,2982.0,173251.8999999985,7024,WL,C,8.0
1,13.095999956130981,learn,46904.00004386902,Fri Oct 11 2024 14:04:21 GMT-0500 (Central Daylight Time),176350.59999999404,A,boy,O,y,107,1,3098.6999999955297,173251.8999999985,7024,WL,C,8.0
1,13.361999988555908,learn,46638.00001144409,Fri Oct 11 2024 14:04:21 GMT-0500 (Central Daylight Time),176617.09999999404,A,boyenter,O,enter,254,1,3365.1999999955297,173251.8999999985,7024,WL,C,8.0
1,18.261000156402588,learn,41738.99984359741,Fri Oct 11 2024 14:04:21 GMT-0500 (Central Daylight Time),181515.59999999404,A,h,O,h,4883,1,4898.0999999940395,176617.5,7024,WL,C,9.0
1,18.39400005340576,learn,41605.99994659424,Fri Oct 11 2024 14:04:21 GMT-0500 (Central Daylight Time),181648.8999999985,A,ho,O,o,113,1,5031.39999999851,176617.5,7024,WL,C,9.0
1,18.511000156402588,learn,41488.99984359741,Fri Oct 11 2024 14:04:21 GMT-0500 (Central Daylight Time),181765.79999999702,A,hom,O,m,99,1,5148.29999999702,176617.5,7024,WL,C,9.0
1,18.5770001411438,learn,41422.9998588562,Fri Oct 11 2024 14:04:21 GMT-0500 (Central Daylight Time),181832.3999999985,A,home,O,e,46,1,5214.89999999851,176617.5,7024,WL,C,9.0
1,18.907999992370605,learn,41092.000007629395,Fri Oct 11 2024 14:04:21 GMT-0500 (Central Daylight Time),182162.79999999702,A,homeenter,O,enter,325,1,5545.29999999702,176617.5,7024,WL,C,9.0
1,29.390000104904175,learn,30609.999895095825,Fri Oct 11 2024 14:04:21 GMT-0500 (Central Daylight Time),192645.5,A,enter,O,enter,10465,1,10482.40000000596,182163.09999999404,7024,WL,C,10.0
1,32.140000104904175,learn,27859.999895095825,Fri Oct 11 2024 14:04:21 GMT-0500 (Central Daylight Time),195394.59999999404,A,b,O,b,2735,1,2748.6999999955297,192645.8999999985,7024,WL,C,11.0
1,32.305999994277954,learn,27694.000005722046,Fri Oct 11 2024 14:04:21 GMT-0500 (Central Daylight Time),195561.3999999985,A,ba,O,a,146,1,2915.5,192645.8999999985,7024,WL,C,11.0
1,32.390000104904175,learn,27609.999895095825,Fri Oct 11 2024 14:04:21 GMT-0500 (Central Daylight Time),195644.59999999404,A,bal,O,l,74,1,2998.6999999955297,192645.8999999985,7024,WL,C,11.0
1,32.53999996185303,learn,27460.000038146973,Fri Oct 11 2024 14:04:21 GMT-0500 (Central Daylight Time),195795.29999999702,A,ball,O,l,143,1,3149.39999999851,192645.8999999985,7024,WL,C,11.0
1,32.68900012969971,learn,27310.999870300293,Fri Oct 11 2024 14:04:21 GMT-0500 (Central Daylight Time),195944.5,A,ballenter,O,enter,137,1,3298.60000000149,192645.8999999985,7024,WL,C,11.0
1,36.205000162124634,learn,23794.999837875366,Fri Oct 11 2024 14:04:21 GMT-0500 (Central Daylight Time),199460.0,A,enter,O,enter,3508,1,3515.10000000149,195944.8999999985,7024,WL,C,12.0
1,36.687999963760376,learn,23312.000036239624,Fri Oct 11 2024 14:04:21 GMT-0500 (Central Daylight Time),199943.19999999553,A,enter,O,enter,464,1,482.8999999985099,199460.29999999702,7024,WL,C,13.0
1,37.08899998664856,learn,22911.00001335144,Fri Oct 11 2024 14:04:21 GMT-0500 (Central Daylight Time),200344.29999999702,A,enter,O,enter,389,1,400.70000000298023,199943.59999999404,7024,WL,C,14.0
1,37.50500011444092,learn,22494.999885559082,Fri Oct 11 2024 14:04:21 GMT-0500 (Central Daylight Time),200759.59999999404,A,enter,O,enter,395,1,415.0,200344.59999999404,7024,WL,C,15.0
2,0.6840000152587891,learn,59315.99998474121,Fri Oct 11 2024 14:04:21 GMT-0500 (Central Daylight Time),269005.299999997,A,b,O,b,666,1,683.2000000029802,268322.09999999404,7024,WL,C,1.0
2,0.7999999523162842,learn,59200.000047683716,Fri Oct 11 2024 14:04:21 GMT-0500 (Central Daylight Time),269121.5,A,bo,O,o,102,1,799.4000000059605,268322.09999999404,7024,WL,C,1.0
2,1.4500000476837158,learn,58549.999952316284,Fri Oct 11 2024 14:04:21 GMT-0500 (Central Daylight Time),269771.5,A,bod,O,d,634,1,1449.4000000059605,268322.09999999404,7024,WL,C,1.0
2,1.5499999523162842,learn,58450.000047683716,Fri Oct 11 2024 14:04:21 GMT-0500 (Central Daylight Time),269871.69999999553,A,body,O,y,88,1,1549.6000000014901,268322.09999999404,7024,WL,C,1.0
2,1.7660000324249268,learn,58233.99996757507,Fri Oct 11 2024 14:04:21 GMT-0500 (Central Daylight Time),270088.09999999404,A,bodyenter,O,enter,197,1,1766.0,268322.09999999404,7024,WL,C,1.0
2,2.1660001277923584,learn,57833.99987220764,Fri Oct 11 2024 14:04:21 GMT-0500 (Central Daylight Time),270488.0,A,t,O,t,387,1,399.5,270088.5,7024,WL,C,2.0
2,2.2660000324249268,learn,57733.99996757507,Fri Oct 11 2024 14:04:21 GMT-0500 (Central Daylight Time),270588.0,A,to,O,o,91,1,499.5,270088.5,7024,WL,C,2.0
2,2.383000135421753,learn,57616.99986457825,Fri Oct 11 2024 14:04:21 GMT-0500 (Central Daylight Time),270704.69999999553,A,tow,O,w,96,1,616.1999999955297,270088.5,7024,WL,C,2.0
2,2.450000047683716,learn,57549.999952316284,Fri Oct 11 2024 14:04:21 GMT-0500 (Central Daylight Time),270771.299999997,A,towe,O,e,50,1,682.7999999970198,270088.5,7024,WL,C,2.0
2,2.5829999446868896,learn,57417.00005531311,Fri Oct 11 2024 14:04:21 GMT-0500 (Central Daylight Time),270904.5,A,tower,O,r,113,1,816.0,270088.5,7024,WL,C,2.0
2,2.883000135421753,learn,57116.99986457825,Fri Oct 11 2024 14:04:21 GMT-0500 (Central Daylight Time),271204.299999997,A,towerenter,O,enter,290,1,1115.7999999970198,270088.5,7024,WL,C,2.0
2,3.2990000247955322,learn,56700.99997520447,Fri Oct 11 2024 14:04:21 GMT-0500 (Central Daylight Time),271621.09999999404,A,q,O,q,398,1,416.19999999552965,271204.8999999985,7024,WL,C,3.0
2,3.383000135421753,learn,56616.99986457825,Fri Oct 11 2024 14:04:21 GMT-0500 (Central Daylight Time),271704.19999999553,A,qu,O,u,70,1,499.29999999701977,271204.8999999985,7024,WL,C,3.0
2,3.5490000247955322,learn,56450.99997520447,Fri Oct 11 2024 14:04:21 GMT-0500 (Central Daylight Time),271871.0,A,que,O,e,147,1,666.1000000014901,271204.8999999985,7024,WL,C,3.0
2,3.699000120162964,learn,56300.999879837036,Fri Oct 11 2024 14:04:21 GMT-0500 (Central Daylight Time),272020.69999999553,A,quee,O,e,141,1,815.7999999970198,271204.8999999985,7024,WL,C,3.0
2,3.883000135421753,learn,56116.99986457825,Fri Oct 11 2024 14:04:21 GMT-0500 (Central Daylight Time),272204.299999997,A,queen,O,n,166,1,999.3999999985099,271204.8999999985,7024,WL,C,3.0
2,4.098999977111816,learn,55901.00002288818,Fri Oct 11 2024 14:04:21 GMT-0500 (Central Daylight Time),272420.5,A,queenenter,O,enter,199,1,1215.6000000014901,271204.8999999985,7024,WL,C,3.0
2,4.249000072479248,learn,55750.99992752075,Fri Oct 11 2024 14:04:21 GMT-0500 (Central Daylight Time),272570.69999999553,A,s,O,s,143,1,149.69999999552965,272421.0,7024,WL,C,4.0
2,4.381999969482422,learn,55618.00003051758,Fri Oct 11 2024 14:04:21 GMT-0500 (Central Daylight Time),272704.0,A,su,O,u,121,1,283.0,272421.0,7024,WL,C,4.0
2,4.598999977111816,learn,55401.00002288818,Fri Oct 11 2024 14:04:21 GMT-0500 (Central Daylight Time),272920.59999999404,A,sug,O,g,196,1,499.59999999403954,272421.0,7024,WL,C,4.0
2,4.732000112533569,learn,55267.99988746643,Fri Oct 11 2024 14:04:21 GMT-0500 (Central Daylight Time),273053.8999999985,A,suga,O,a,115,1,632.8999999985099,272421.0,7024,WL,C,4.0
2,4.832000017166138,learn,55167.99998283386,Fri Oct 11 2024 14:04:21 GMT-0500 (Central Daylight Time),273153.69999999553,A,sugar,O,r,94,1,732.6999999955297,272421.0,7024,WL,C,4.0
2,5.14900016784668,learn,54850.99983215332,Fri Oct 11 2024 14:04:21 GMT-0500 (Central Daylight Time),273470.5,A,sugarenter,O,enter,299,1,1049.5,272421.0,7024,WL,C,4.0
2,5.315000057220459,learn,54684.99994277954,Fri Oct 11 2024 14:04:21 GMT-0500 (Central Daylight Time),273636.8999999985,A,w,O,w,157,1,165.89999999850988,273471.0,7024,WL,C,5.0
2,5.449000120162964,learn,54550.999879837036,Fri Oct 11 2024 14:04:21 GMT-0500 (Central Daylight Time),273770.19999999553,A,wh,O,h,126,1,299.19999999552965,273471.0,7024,WL,C,5.0
2,5.5320000648498535,learn,54467.99993515015,Fri Oct 11 2024 14:04:21 GMT-0500 (Central Daylight Time),273853.69999999553,A,whe,O,e,65,1,382.69999999552965,273471.0,7024,WL,C,5.0
2,5.865000009536743,learn,54134.99999046326,Fri Oct 11 2024 14:04:21 GMT-0500 (Central Daylight Time),274186.799999997,A,whea,O,a,317,1,715.7999999970198,273471.0,7024,WL,C,5.0
2,6.0320000648498535,learn,53967.99993515015,Fri Oct 11 2024 14:04:21 GMT-0500 (Central Daylight Time),274353.09999999404,A,wheat,O,t,154,1,882.0999999940395,273471.0,7024,WL,C,5.0
2,6.515000104904175,learn,53484.999895095825,Fri Oct 11 2024 14:04:21 GMT-0500 (Central Daylight Time),274836.3999999985,A,wheatenter,O,enter,475,1,1365.3999999985099,273471.0,7024,WL,C,5.0
2,6.998000144958496,learn,53001.999855041504,Fri Oct 11 2024 14:04:21 GMT-0500 (Central Daylight Time),275319.69999999553,A,b,O,b,464,1,482.8999999985099,274836.799999997,7024,WL,C,6.0
2,7.081000089645386,learn,52918.999910354614,Fri Oct 11 2024 14:04:21 GMT-0500 (Central Daylight Time),275403.09999999404,A,bo,O,o,77,1,566.2999999970198,274836.799999997,7024,WL,C,6.0
2,7.197999954223633,learn,52802.00004577637,Fri Oct 11 2024 14:04:21 GMT-0500 (Central Daylight Time),275519.59999999404,A,boy,O,y,98,1,682.7999999970198,274836.799999997,7024,WL,C,6.0
2,7.430999994277954,learn,52569.000005722046,Fri Oct 11 2024 14:04:21 GMT-0500 (Central Daylight Time),275752.59999999404,A,boyenter,O,enter,213,1,915.7999999970198,274836.799999997,7024,WL,C,6.0
2,7.615000009536743,learn,52384.99999046326,Fri Oct 11 2024 14:04:21 GMT-0500 (Central Daylight Time),275936.19999999553,A,h,O,h,164,1,183.19999999552965,275753.0,7024,WL,C,7.0
2,7.71399998664856,learn,52286.00001335144,Fri Oct 11 2024 14:04:21 GMT-0500 (Central Daylight Time),276035.8999999985,A,ho,O,o,83,1,282.8999999985099,275753.0,7024,WL,C,7.0
2,7.8480000495910645,learn,52151.999950408936,Fri Oct 11 2024 14:04:21 GMT-0500 (Central Daylight Time),276169.299999997,A,hom,O,m,121,1,416.29999999701977,275753.0,7024,WL,C,7.0
2,8.059000015258789,learn,51940.99998474121,Fri Oct 11 2024 14:04:21 GMT-0500 (Central Daylight Time),276380.3999999985,A,home,O,e,206,1,627.3999999985099,275753.0,7024,WL,C,7.0
2,8.206000089645386,learn,51793.999910354614,Fri Oct 11 2024 14:04:21 GMT-0500 (Central Daylight Time),276527.299999997,A,homeenter,O,enter,142,1,774.2999999970198,275753.0,7024,WL,C,7.0
2,8.414000034332275,learn,51585.999965667725,Fri Oct 11 2024 14:04:21 GMT-0500 (Central Daylight Time),276735.3999999985,A,n,O,n,197,1,207.80000000447035,276527.59999999404,7024,WL,C,8.0
2,8.730999946594238,learn,51269.00005340576,Fri Oct 11 2024 14:04:21 GMT-0500 (Central Daylight Time),277052.299999997,A,na,O,a,309,1,524.7000000029802,276527.59999999404,7024,WL,C,8.0
2,8.848999977111816,learn,51151.00002288818,Fri Oct 11 2024 14:04:21 GMT-0500 (Central Daylight Time),277170.09999999404,A,nai,O,i,104,1,642.5,276527.59999999404,7024,WL,C,8.0
2,8.96399998664856,learn,51036.00001335144,Fri Oct 11 2024 14:04:21 GMT-0500 (Central Daylight Time),277285.8999999985,A,nail,O,l,98,1,758.3000000044703,276527.59999999404,7024,WL,C,8.0
2,9.21399998664856,learn,50786.00001335144,Fri Oct 11 2024 14:04:21 GMT-0500 (Central Daylight Time),277535.59999999404,A,nailenter,O,enter,239,1,1008.0,276527.59999999404,7024,WL,C,8.0
2,9.44700002670288,learn,50552.99997329712,Fri Oct 11 2024 14:04:21 GMT-0500 (Central Daylight Time),277768.69999999553,A,c,O,c,221,1,232.79999999701977,277535.8999999985,7024,WL,C,9.0
2,9.581000089645386,learn,50418.999910354614,Fri Oct 11 2024 14:04:21 GMT-0500 (Central Daylight Time),277902.09999999404,A,ca,O,a,124,1,366.19999999552965,277535.8999999985,7024,WL,C,9.0
2,9.69700002670288,learn,50302.99997329712,Fri Oct 11 2024 14:04:21 GMT-0500 (Central Daylight Time),278018.799999997,A,cat,O,t,102,1,482.8999999985099,277535.8999999985,7024,WL,C,9.0
2,9.830000162124634,learn,50169.999837875366,Fri Oct 11 2024 14:04:21 GMT-0500 (Central Daylight Time),278152.0,A,catt,O,t,122,1,616.1000000014901,277535.8999999985,7024,WL,C,9.0
2,9.897000074386597,learn,50102.9999256134,Fri Oct 11 2024 14:04:21 GMT-0500 (Central Daylight Time),278218.8999999985,A,cattl,O,l,53,1,683.0,277535.8999999985,7024,WL,C,9.0
2,9.996999979019165,learn,50003.000020980835,Fri Oct 11 2024 14:04:21 GMT-0500 (Central Daylight Time),278318.69999999553,A,cattle,O,e,89,1,782.7999999970198,277535.8999999985,7024,WL,C,9.0
2,10.246999979019165,learn,49753.000020980835,Fri Oct 11 2024 14:04:21 GMT-0500 (Central Daylight Time),278569.0,A,cattleenter,O,enter,246,1,1033.1000000014901,277535.8999999985,7024,WL,C,9.0
2,13.345999956130981,learn,46654.00004386902,Fri Oct 11 2024 14:04:21 GMT-0500 (Central Daylight Time),281667.59999999404,A,l,O,l,3083,1,3098.2999999970198,278569.299999997,7024,WL,C,10.0
2,13.42900013923645,learn,46570.99986076355,Fri Oct 11 2024 14:04:21 GMT-0500 (Central Daylight Time),281750.8999999985,A,le,O,e,73,1,3181.60000000149,278569.299999997,7024,WL,C,10.0
2,13.578999996185303,learn,46421.0000038147,Fri Oct 11 2024 14:04:21 GMT-0500 (Central Daylight Time),281901.0,A,let,O,t,134,1,3331.7000000029802,278569.299999997,7024,WL,C,10.0
2,13.67900013923645,learn,46320.99986076355,Fri Oct 11 2024 14:04:21 GMT-0500 (Central Daylight Time),282001.0,A,lett,O,t,95,1,3431.7000000029802,278569.299999997,7024,WL,C,10.0
2,13.845999956130981,learn,46154.00004386902,Fri Oct 11 2024 14:04:21 GMT-0500 (Central Daylight Time),282167.3999999985,A,lette,O,e,156,1,3598.10000000149,278569.299999997,7024,WL,C,10.0
2,13.86300015449524,learn,46136.99984550476,Fri Oct 11 2024 14:04:21 GMT-0500 (Central Daylight Time),282184.19999999553,A,letter,O,r,5,1,3614.89999999851,278569.299999997,7024,WL,C,10.0
2,13.946000099182129,learn,46053.99990081787,Fri Oct 11 2024 14:04:21 GMT-0500 (Central Daylight Time),282267.3999999985,A,letterenter,O,enter,77,1,3698.10000000149,278569.299999997,7024,WL,C,10.0
2,17.028000116348267,learn,42971.99988365173,Fri Oct 11 2024 14:04:21 GMT-0500 (Central Daylight Time),285350.0,A,b,O,b,3066,1,3082.2000000029802,282267.799999997,7024,WL,C,11.0
2,17.128999948501587,learn,42871.00005149841,Fri Oct 11 2024 14:04:21 GMT-0500 (Central Daylight Time),285450.8999999985,A,bo,O,o,94,1,3183.10000000149,282267.799999997,7024,WL,C,11.0
2,17.278000116348267,learn,42721.99988365173,Fri Oct 11 2024 14:04:21 GMT-0500 (Central Daylight Time),285599.69999999553,A,bod,O,d,138,1,3331.89999999851,282267.799999997,7024,WL,C,11.0
2,17.394999980926514,learn,42605.000019073486,Fri Oct 11 2024 14:04:21 GMT-0500 (Central Daylight Time),285716.19999999553,A,body,O,y,101,1,3448.39999999851,282267.799999997,7024,WL,C,11.0
2,17.546000003814697,learn,42453.9999961853,Fri Oct 11 2024 14:04:21 GMT-0500 (Central Daylight Time),285867.3999999985,A,bodyenter,O,enter,144,1,3599.60000000149,282267.799999997,7024,WL,C,11.0
2,23.39300012588501,learn,36606.99987411499,Fri Oct 11 2024 14:04:21 GMT-0500 (Central Daylight Time),291714.3999999985,A,b,O,b,5833,1,5846.80000000447,285867.59999999404,7024,WL,C,12.0
2,23.509999990463257,learn,36490.00000953674,Fri Oct 11 2024 14:04:21 GMT-0500 (Central Daylight Time),291831.09999999404,A,bo,O,o,98,1,5963.5,285867.59999999404,7024,WL,C,12.0
2,23.610000133514404,learn,36389.999866485596,Fri Oct 11 2024 14:04:21 GMT-0500 (Central Daylight Time),291931.19999999553,A,boy,O,y,94,1,6063.60000000149,285867.59999999404,7024,WL,C,12.0
2,23.80900001525879,learn,36190.99998474121,Fri Oct 11 2024 14:04:21 GMT-0500 (Central Daylight Time),292130.8999999985,A,boyenter,O,enter,193,1,6263.30000000447,285867.59999999404,7024,WL,C,12.0
2,27.424999952316284,learn,32575.000047683716,Fri Oct 11 2024 14:04:21 GMT-0500 (Central Daylight Time),295746.3999999985,A,h,O,h,3610,1,3615.2000000029802,292131.19999999553,7024,WL,C,13.0
2,27.55900001525879,learn,32440.99998474121,Fri Oct 11 2024 14:04:21 GMT-0500 (Central Daylight Time),295880.09999999404,A,ho,O,o,122,1,3748.89999999851,292131.19999999553,7024,WL,C,13.0
2,27.69099998474121,learn,32309.00001525879,Fri Oct 11 2024 14:04:21 GMT-0500 (Central Daylight Time),296013.09999999404,A,hom,O,m,117,1,3881.89999999851,292131.19999999553,7024,WL,C,13.0
2,27.79100012779236,learn,32208.99987220764,Fri Oct 11 2024 14:04:21 GMT-0500 (Central Daylight Time),296113.3999999985,A,home,O,e,79,1,3982.2000000029802,292131.19999999553,7024,WL,C,13.0
2,27.94099998474121,learn,32059.00001525879,Fri Oct 11 2024 14:04:21 GMT-0500 (Central Daylight Time),296263.09999999404,A,homeenter,O,enter,131,1,4131.89999999851,292131.19999999553,7024,WL,C,13.0
2,28.624000072479248,learn,31375.999927520752,Fri Oct 11 2024 14:04:21 GMT-0500 (Central Daylight Time),296946.19999999553,A,n,O,n,670,1,682.7999999970198,296263.3999999985,7024,WL,C,14.0
2,28.723000049591064,learn,31276.999950408936,Fri Oct 11 2024 14:04:21 GMT-0500 (Central Daylight Time),297046.0,A,na,O,a,82,1,782.6000000014901,296263.3999999985,7024,WL,C,14.0
2,28.807000160217285,learn,31192.999839782715,Fri Oct 11 2024 14:04:21 GMT-0500 (Central Daylight Time),297129.59999999404,A,nai,O,i,62,1,866.1999999955297,296263.3999999985,7024,WL,C,14.0
2,28.873000144958496,learn,31126.999855041504,Fri Oct 11 2024 14:04:21 GMT-0500 (Central Daylight Time),297196.0,A,nail,O,l,59,1,932.6000000014901,296263.3999999985,7024,WL,C,14.0
2,29.057000160217285,learn,30942.999839782715,Fri Oct 11 2024 14:04:21 GMT-0500 (Central Daylight Time),297379.299999997,A,nailenter,O,enter,176,1,1115.8999999985099,296263.3999999985,7024,WL,C,14.0
2,30.60599994659424,learn,29394.00005340576,Fri Oct 11 2024 14:04:21 GMT-0500 (Central Daylight Time),298928.8999999985,A,c,O,c,1529,1,1549.3000000044703,297379.59999999404,7024,WL,C,15.0
2,30.67300009727478,learn,29326.99990272522,Fri Oct 11 2024 14:04:21 GMT-0500 (Central Daylight Time),298995.59999999404,A,co,O,o,60,1,1616.0,297379.59999999404,7024,WL,C,15.0
2,30.822999954223633,learn,29177.000045776367,Fri Oct 11 2024 14:04:21 GMT-0500 (Central Daylight Time),299145.3999999985,A,cor,O,r,129,1,1765.8000000044703,297379.59999999404,7024,WL,C,15.0
2,30.890000104904175,learn,29109.999895095825,Fri Oct 11 2024 14:04:21 GMT-0500 (Central Daylight Time),299212.299999997,A,corn,O,n,59,1,1832.7000000029802,297379.59999999404,7024,WL,C,15.0
2,31.02300000190735,learn,28976.99999809265,Fri Oct 11 2024 14:04:21 GMT-0500 (Central Daylight Time),299345.19999999553,A,cornenter,O,enter,128,1,1965.6000000014901,297379.59999999404,7024,WL,C,15.0
3,0.8329999446868896,learn,59167.00005531311,Fri Oct 11 2024 14:04:21 GMT-0500 (Central Daylight Time),365191.3999999985,A,f,O,f,823,1,833.0,364358.3999999985,7024,WL,C,1.0
3,0.9500000476837158,learn,59049.999952316284,Fri Oct 11 2024 14:04:21 GMT-0500 (Central Daylight Time),365308.19999999553,A,fl,O,l,109,1,949.7999999970198,364358.3999999985,7024,WL,C,1.0
3,1.0829999446868896,learn,58917.00005531311,Fri Oct 11 2024 14:04:21 GMT-0500 (Central Daylight Time),365441.5,A,fla,O,a,120,1,1083.1000000014901,364358.3999999985,7024,WL,C,1.0
3,1.4660000801086426,learn,58533.99991989136,Fri Oct 11 2024 14:04:21 GMT-0500 (Central Daylight Time),365824.5,A,flag,O,g,371,1,1466.1000000014901,364358.3999999985,7024,WL,C,1.0
3,1.6489999294281006,learn,58351.0000705719,Fri Oct 11 2024 14:04:21 GMT-0500 (Central Daylight Time),366007.799999997,A,flagenter,O,enter,164,1,1649.3999999985099,364358.3999999985,7024,WL,C,1.0
3,1.815999984741211,learn,58184.00001525879,Fri Oct 11 2024 14:04:21 GMT-0500 (Central Daylight Time),366174.3999999985,A,d,O,d,157,1,166.20000000298023,366008.19999999553,7024,WL,C,2.0
3,1.9820001125335693,learn,58017.99988746643,Fri Oct 11 2024 14:04:21 GMT-0500 (Central Daylight Time),366341.09999999404,A,do,O,o,158,1,332.8999999985099,366008.19999999553,7024,WL,C,2.0
3,2.1489999294281006,learn,57851.0000705719,Fri Oct 11 2024 14:04:21 GMT-0500 (Central Daylight Time),366507.799999997,A,doc,O,c,159,1,499.6000000014901,366008.19999999553,7024,WL,C,2.0
3,2.365000009536743,learn,57634.99999046326,Fri Oct 11 2024 14:04:21 GMT-0500 (Central Daylight Time),366724.0,A,doct,O,t,209,1,715.8000000044703,366008.19999999553,7024,WL,C,2.0
3,2.499000072479248,learn,57500.99992752075,Fri Oct 11 2024 14:04:21 GMT-0500 (Central Daylight Time),366857.299999997,A,docto,O,o,120,1,849.1000000014901,366008.19999999553,7024,WL,C,2.0
3,2.615000009536743,learn,57384.99999046326,Fri Oct 11 2024 14:04:21 GMT-0500 (Central Daylight Time),366974.0,A,doctor,O,r,99,1,965.8000000044703,366008.19999999553,7024,WL,C,2.0
3,2.7820000648498535,learn,57217.99993515015,Fri Oct 11 2024 14:04:21 GMT-0500 (Central Daylight Time),367140.8999999985,A,doctorenter,O,enter,158,1,1132.7000000029802,366008.19999999553,7024,WL,C,2.0
3,2.932000160217285,learn,57067.999839782715,Fri Oct 11 2024 14:04:21 GMT-0500 (Central Daylight Time),367291.0,A,s,O,s,136,1,149.80000000447035,367141.19999999553,7024,WL,C,3.0
3,3.065000057220459,learn,56934.99994277954,Fri Oct 11 2024 14:04:21 GMT-0500 (Central Daylight Time),367423.8999999985,A,sh,O,h,121,1,282.70000000298023,367141.19999999553,7024,WL,C,3.0
3,3.115000009536743,learn,56884.99999046326,Fri Oct 11 2024 14:04:21 GMT-0500 (Central Daylight Time),367474.09999999404,A,sho,O,o,36,1,332.8999999985099,367141.19999999553,7024,WL,C,3.0
3,3.2820000648498535,learn,56717.99993515015,Fri Oct 11 2024 14:04:21 GMT-0500 (Central Daylight Time),367640.5,A,shor,O,r,146,1,499.30000000447035,367141.19999999553,7024,WL,C,3.0
3,3.365000009536743,learn,56634.99999046326,Fri Oct 11 2024 14:04:21 GMT-0500 (Central Daylight Time),367723.8999999985,A,shore,O,e,76,1,582.7000000029802,367141.19999999553,7024,WL,C,3.0
3,3.6489999294281006,learn,56351.0000705719,Fri Oct 11 2024 14:04:21 GMT-0500 (Central Daylight Time),368007.19999999553,A,shoreenter,O,enter,264,1,866.0,367141.19999999553,7024,WL,C,3.0
3,3.8489999771118164,learn,56151.00002288818,Fri Oct 11 2024 14:04:21 GMT-0500 (Central Daylight Time),368207.299999997,A,c,O,c,189,1,199.79999999701977,368007.5,7024,WL,C,4.0
3,3.949000120162964,learn,56050.999879837036,Fri Oct 11 2024 14:04:21 GMT-0500 (Central Daylight Time),368307.299999997,A,ca,O,a,85,1,299.79999999701977,368007.5,7024,WL,C,4.0
3,4.04800009727478,learn,55951.99990272522,Fri Oct 11 2024 14:04:21 GMT-0500 (Central Daylight Time),368407.09999999404,A,cam,O,m,88,1,399.59999999403954,368007.5,7024,WL,C,4.0
3,4.148000001907349,learn,55851.99999809265,Fri Oct 11 2024 14:04:21 GMT-0500 (Central Daylight Time),368507.09999999404,A,camp,O,p,93,1,499.59999999403954,368007.5,7024,WL,C,4.0
3,4.447999954223633,learn,55552.00004577637,Fri Oct 11 2024 14:04:21 GMT-0500 (Central Daylight Time),368807.0,A,campenter,O,enter,281,1,799.5,368007.5,7024,WL,C,4.0
3,4.664999961853027,learn,55335.00003814697,Fri Oct 11 2024 14:04:21 GMT-0500 (Central Daylight Time),369023.5,A,c,O,c,206,1,216.20000000298023,368807.299999997,7024,WL,C,5.0
3,4.7820000648498535,learn,55217.99993515015,Fri Oct 11 2024 14:04:21 GMT-0500 (Central Daylight Time),369140.299999997,A,co,O,o,109,1,333.0,368807.299999997,7024,WL,C,5.0
3,4.914999961853027,learn,55085.00003814697,Fri Oct 11 2024 14:04:21 GMT-0500 (Central Daylight Time),369273.299999997,A,cor,O,r,128,1,466.0,368807.299999997,7024,WL,C,5.0
3,5.031000137329102,learn,54968.9998626709,Fri Oct 11 2024 14:04:21 GMT-0500 (Central Daylight Time),369390.0,A,corn,O,n,100,1,582.7000000029802,368807.299999997,7024,WL,C,5.0
3,5.232000112533569,learn,54767.99988746643,Fri Oct 11 2024 14:04:21 GMT-0500 (Central Daylight Time),369590.09999999404,A,cornenter,O,enter,183,1,782.7999999970198,368807.299999997,7024,WL,C,5.0
3,5.498000144958496,learn,54501.999855041504,Fri Oct 11 2024 14:04:21 GMT-0500 (Central Daylight Time),369856.799999997,A,l,O,l,246,1,266.29999999701977,369590.5,7024,WL,C,6.0
3,5.581000089645386,learn,54418.999910354614,Fri Oct 11 2024 14:04:21 GMT-0500 (Central Daylight Time),369939.8999999985,A,le,O,e,76,1,349.3999999985099,369590.5,7024,WL,C,6.0
3,5.730999946594238,learn,54269.00005340576,Fri Oct 11 2024 14:04:21 GMT-0500 (Central Daylight Time),370089.8999999985,A,let,O,t,137,1,499.3999999985099,369590.5,7024,WL,C,6.0
3,5.88100004196167,learn,54118.99995803833,Fri Oct 11 2024 14:04:21 GMT-0500 (Central Daylight Time),370239.8999999985,A,lett,O,t,138,1,649.3999999985099,369590.5,7024,WL,C,6.0
3,5.998000144958496,learn,54001.999855041504,Fri Oct 11 2024 14:04:21 GMT-0500 (Central Daylight Time),370356.3999999985,A,lette,O,e,101,1,765.8999999985099,369590.5,7024,WL,C,6.0
3,6.197999954223633,learn,53802.00004577637,Fri Oct 11 2024 14:04:21 GMT-0500 (Central Daylight Time),370556.59999999404,A,letter,O,r,56,1,966.0999999940395,369590.5,7024,WL,C,6.0
3,6.400000095367432,learn,53599.99990463257,Fri Oct 11 2024 14:04:21 GMT-0500 (Central Daylight Time),370758.19999999553,A,letterenter,O,enter,191,1,1167.6999999955297,369590.5,7024,WL,C,6.0
3,6.930999994277954,learn,53069.000005722046,Fri Oct 11 2024 14:04:21 GMT-0500 (Central Daylight Time),371289.299999997,A,b,O,b,526,1,530.7999999970198,370758.5,7024,WL,C,7.0
3,7.046999931335449,learn,52953.00006866455,Fri Oct 11 2024 14:04:21 GMT-0500 (Central Daylight Time),371406.09999999404,A,bo,O,o,99,1,647.5999999940395,370758.5,7024,WL,C,7.0
3,7.164000034332275,learn,52835.999965667725,Fri Oct 11 2024 14:04:21 GMT-0500 (Central Daylight Time),371522.799999997,A,bod,O,d,103,1,764.2999999970198,370758.5,7024,WL,C,7.0
3,7.281000137329102,learn,52718.9998626709,Fri Oct 11 2024 14:04:21 GMT-0500 (Central Daylight Time),371639.3999999985,A,body,O,y,106,1,880.8999999985099,370758.5,7024,WL,C,7.0
3,7.46399998664856,learn,52536.00001335144,Fri Oct 11 2024 14:04:21 GMT-0500 (Central Daylight Time),371822.799999997,A,bodyenter,O,enter,165,1,1064.2999999970198,370758.5,7024,WL,C,7.0
3,7.763999938964844,learn,52236.000061035156,Fri Oct 11 2024 14:04:21 GMT-0500 (Central Daylight Time),372122.59999999404,A,h,O,h,286,1,299.59999999403954,371823.0,7024,WL,C,8.0
3,7.880000114440918,learn,52119.99988555908,Fri Oct 11 2024 14:04:21 GMT-0500 (Central Daylight Time),372239.0,A,ho,O,o,98,1,416.0,371823.0,7024,WL,C,8.0
3,7.965000152587891,learn,52034.99984741211,Fri Oct 11 2024 14:04:21 GMT-0500 (Central Daylight Time),372323.299999997,A,hom,O,m,77,1,500.29999999701977,371823.0,7024,WL,C,8.0
3,8.097000122070312,learn,51902.99987792969,Fri Oct 11 2024 14:04:21 GMT-0500 (Central Daylight Time),372456.0,A,home,O,e,112,1,633.0,371823.0,7024,WL,C,8.0
3,8.246999979019165,learn,51753.000020980835,Fri Oct 11 2024 14:04:21 GMT-0500 (Central Daylight Time),372605.8999999985,A,homeenter,O,enter,133,1,782.8999999985099,371823.0,7024,WL,C,8.0
3,9.015000104904175,learn,50984.999895095825,Fri Oct 11 2024 14:04:21 GMT-0500 (Central Daylight Time),373373.299999997,A,b,O,b,751,1,767.1000000014901,372606.19999999553,7024,WL,C,9.0
3,9.27999997138977,learn,50720.00002861023,Fri Oct 11 2024 14:04:21 GMT-0500 (Central Daylight Time),373638.799999997,A,bo,O,o,255,1,1032.6000000014901,372606.19999999553,7024,WL,C,9.0
3,9.413000106811523,learn,50586.99989318848,Fri Oct 11 2024 14:04:21 GMT-0500 (Central Daylight Time),373772.0,A,boy,O,y,118,1,1165.8000000044703,372606.19999999553,7024,WL,C,9.0
3,9.61300015449524,learn,50386.99984550476,Fri Oct 11 2024 14:04:21 GMT-0500 (Central Daylight Time),373972.0,A,boyenter,O,enter,184,1,1365.8000000044703,372606.19999999553,7024,WL,C,9.0
3,10.163000106811523,learn,49836.99989318848,Fri Oct 11 2024 14:04:21 GMT-0500 (Central Daylight Time),374521.59999999404,A,s,O,s,545,1,549.2999999970198,373972.299999997,7024,WL,C,10.0
3,10.296000003814697,learn,49703.9999961853,Fri Oct 11 2024 14:04:21 GMT-0500 (Central Daylight Time),374655.09999999404,A,su,O,u,115,1,682.7999999970198,373972.299999997,7024,WL,C,10.0
3,10.52999997138977,learn,49470.00002861023,Fri Oct 11 2024 14:04:21 GMT-0500 (Central Daylight Time),374888.5,A,sug,O,g,213,1,916.2000000029802,373972.299999997,7024,WL,C,10.0
3,10.914999961853027,learn,49085.00003814697,Fri Oct 11 2024 14:04:21 GMT-0500 (Central Daylight Time),375273.3999999985,A,suga,O,a,372,1,1301.1000000014901,373972.299999997,7024,WL,C,10.0
3,11.02999997138977,learn,48970.00002861023,Fri Oct 11 2024 14:04:21 GMT-0500 (Central Daylight Time),375388.19999999553,A,sugar,O,r,107,1,1415.8999999985099,373972.299999997,7024,WL,C,10.0
3,11.146000146865845,learn,48853.999853134155,Fri Oct 11 2024 14:04:21 GMT-0500 (Central Daylight Time),375504.8999999985,A,sugarenter,O,enter,96,1,1532.6000000014901,373972.299999997,7024,WL,C,10.0
3,11.529000043869019,learn,48470.99995613098,Fri Oct 11 2024 14:04:21 GMT-0500 (Central Daylight Time),375888.0,A,q,O,q,364,1,382.80000000447035,375505.19999999553,7024,WL,C,11.0
3,11.663000106811523,learn,48336.99989318848,Fri Oct 11 2024 14:04:21 GMT-0500 (Central Daylight Time),376021.299999997,A,qu,O,u,116,1,516.1000000014901,375505.19999999553,7024,WL,C,11.0
3,11.779000043869019,learn,48220.99995613098,Fri Oct 11 2024 14:04:21 GMT-0500 (Central Daylight Time),376138.09999999404,A,que,O,e,103,1,632.8999999985099,375505.19999999553,7024,WL,C,11.0
3,11.896000146865845,learn,48103.999853134155,Fri Oct 11 2024 14:04:21 GMT-0500 (Central Daylight Time),376254.69999999553,A,quee,O,e,107,1,749.5,375505.19999999553,7024,WL,C,11.0
3,11.980000019073486,learn,48019.999980926514,Fri Oct 11 2024 14:04:21 GMT-0500 (Central Daylight Time),376338.799999997,A,queen,O,n,70,1,833.6000000014901,375505.19999999553,7024,WL,C,11.0
3,12.147000074386597,learn,47852.9999256134,Fri Oct 11 2024 14:04:21 GMT-0500 (Central Daylight Time),376505.8999999985,A,queenenter,O,enter,154,1,1000.7000000029802,375505.19999999553,7024,WL,C,11.0
3,13.696000099182129,learn,46303.99990081787,Fri Oct 11 2024 14:04:21 GMT-0500 (Central Daylight Time),378054.19999999553,A,t,O,t,1531,1,1548.0,376506.19999999553,7024,WL,C,12.0
3,13.828999996185303,learn,46171.0000038147,Fri Oct 11 2024 14:04:21 GMT-0500 (Central Daylight Time),378187.3999999985,A,tw,O,w,118,1,1681.2000000029802,376506.19999999553,7024,WL,C,12.0
3,13.911999940872192,learn,46088.00005912781,Fri Oct 11 2024 14:04:21 GMT-0500 (Central Daylight Time),378270.799999997,A,two,O,o,65,1,1764.6000000014901,376506.19999999553,7024,WL,C,12.0
3,14.279000043869019,learn,45720.99995613098,Fri Oct 11 2024 14:04:21 GMT-0500 (Central Daylight Time),378637.299999997,A,tw,O,backspace,358,1,2131.10000000149,376506.19999999553,7024,WL,C,12.0
3,14.394999980926514,learn,45605.000019073486,Fri Oct 11 2024 14:04:21 GMT-0500 (Central Daylight Time),378753.8999999985,A,t,O,backspace,103,1,2247.7000000029802,376506.19999999553,7024,WL,C,12.0
3,14.57800006866455,learn,45421.99993133545,Fri Oct 11 2024 14:04:21 GMT-0500 (Central Daylight Time),378937.09999999404,A,to,O,o,170,1,2430.89999999851,376506.19999999553,7024,WL,C,12.0
3,14.661999940872192,learn,45338.00005912781,Fri Oct 11 2024 14:04:21 GMT-0500 (Central Daylight Time),379020.3999999985,A,tow,O,w,76,1,2514.2000000029802,376506.19999999553,7024,WL,C,12.0
3,14.76200008392334,learn,45237.99991607666,Fri Oct 11 2024 14:04:21 GMT-0500 (Central Daylight Time),379120.3999999985,A,towe,O,e,80,1,2614.2000000029802,376506.19999999553,7024,WL,C,12.0
3,14.894999980926514,learn,45105.000019073486,Fri Oct 11 2024 14:04:21 GMT-0500 (Central Daylight Time),379253.69999999553,A,tower,O,r,116,1,2747.5,376506.19999999553,7024,WL,C,12.0
3,15.194999933242798,learn,44805.0000667572,Fri Oct 11 2024 14:04:21 GMT-0500 (Central Daylight Time),379553.5,A,towerenter,O,enter,279,1,3047.3000000044703,376506.19999999553,7024,WL,C,12.0
3,15.361999988555908,learn,44638.00001144409,Fri Oct 11 2024 14:04:21 GMT-0500 (Central Daylight Time),379720.19999999553,A,w,O,w,155,1,166.39999999850988,379553.799999997,7024,WL,C,13.0
3,15.528000116348267,learn,44471.99988365173,Fri Oct 11 2024 14:04:21 GMT-0500 (Central Daylight Time),379887.0,A,wh,O,h,148,1,333.20000000298023,379553.799999997,7024,WL,C,13.0
3,15.57800006866455,learn,44421.99993133545,Fri Oct 11 2024 14:04:21 GMT-0500 (Central Daylight Time),379936.5,A,whe,O,e,38,1,382.70000000298023,379553.799999997,7024,WL,C,13.0
3,15.67799997329712,learn,44322.00002670288,Fri Oct 11 2024 14:04:21 GMT-0500 (Central Daylight Time),380036.5,A,whea,O,a,84,1,482.70000000298023,379553.799999997,7024,WL,C,13.0
3,15.795000076293945,learn,44204.999923706055,Fri Oct 11 2024 14:04:21 GMT-0500 (Central Daylight Time),380153.299999997,A,wheat,O,t,96,1,599.5,379553.799999997,7024,WL,C,13.0
3,16.09599995613098,learn,43904.00004386902,Fri Oct 11 2024 14:04:21 GMT-0500 (Central Daylight Time),380454.5,A,wheatenter,O,enter,291,1,900.7000000029802,379553.799999997,7024,WL,C,13.0
3,18.5770001411438,learn,41422.9998588562,Fri Oct 11 2024 14:04:21 GMT-0500 (Central Daylight Time),382935.8999999985,A,s,O,s,2470,1,2481.10000000149,380454.799999997,7024,WL,C,14.0
3,18.64400005340576,learn,41355.99994659424,Fri Oct 11 2024 14:04:21 GMT-0500 (Central Daylight Time),383002.799999997,A,sh,O,h,52,1,2548.0,380454.799999997,7024,WL,C,14.0
3,18.74500012397766,learn,41254.99987602234,Fri Oct 11 2024 14:04:21 GMT-0500 (Central Daylight Time),383103.799999997,A,sho,O,o,90,1,2649.0,380454.799999997,7024,WL,C,14.0
3,18.844000101089478,learn,41155.99989891052,Fri Oct 11 2024 14:04:21 GMT-0500 (Central Daylight Time),383202.299999997,A,shor,O,r,85,1,2747.5,380454.799999997,7024,WL,C,14.0
3,18.927000045776367,learn,41072.99995422363,Fri Oct 11 2024 14:04:21 GMT-0500 (Central Daylight Time),383285.59999999404,A,shore,O,e,66,1,2830.7999999970198,380454.799999997,7024,WL,C,14.0
3,19.044000148773193,learn,40955.99985122681,Fri Oct 11 2024 14:04:21 GMT-0500 (Central Daylight Time),383402.19999999553,A,shoreenter,O,enter,103,1,2947.39999999851,380454.799999997,7024,WL,C,14.0
3,23.276999950408936,learn,36723.000049591064,Fri Oct 11 2024 14:04:21 GMT-0500 (Central Daylight Time),387635.3999999985,A,n,O,n,4226,1,4232.80000000447,383402.59999999404,7024,WL,C,15.0
3,23.409000158309937,learn,36590.99984169006,Fri Oct 11 2024 14:04:21 GMT-0500 (Central Daylight Time),387767.8999999985,A,na,O,a,121,1,4365.30000000447,383402.59999999404,7024,WL,C,15.0
3,23.509000062942505,learn,36490.999937057495,Fri Oct 11 2024 14:04:21 GMT-0500 (Central Daylight Time),387867.799999997,A,nai,O,i,85,1,4465.20000000298,383402.59999999404,7024,WL,C,15.0
3,23.64199995994568,learn,36358.00004005432,Fri Oct 11 2024 14:04:21 GMT-0500 (Central Daylight Time),388000.8999999985,A,nail,O,l,113,1,4598.30000000447,383402.59999999404,7024,WL,C,15.0
3,23.842000007629395,learn,36157.999992370605,Fri Oct 11 2024 14:04:21 GMT-0500 (Central Daylight Time),388200.8999999985,A,nailenter,O,enter,188,1,4798.30000000447,383402.59999999404,7024,WL,C,15.0
4,0.3320000171661377,learn,59667.99998283386,Fri Oct 11 2024 14:04:21 GMT-0500 (Central Daylight Time),452897.19999999553,A,d,O,d,311,1,331.79999999701977,452565.3999999985,7024,WL,C,1.0
4,0.48199987411499023,learn,59518.00012588501,Fri Oct 11 2024 14:04:21 GMT-0500 (Central Daylight Time),453047.0,A,do,O,o,139,1,481.6000000014901,452565.3999999985,7024,WL,C,1.0
4,0.7829999923706055,learn,59217.000007629395,Fri Oct 11 2024 14:04:21 GMT-0500 (Central Daylight Time),453348.19999999553,A,doc,O,c,285,1,782.7999999970198,452565.3999999985,7024,WL,C,1.0
4,1.0149998664855957,learn,58985.000133514404,Fri Oct 11 2024 14:04:21 GMT-0500 (Central Daylight Time),453580.19999999553,A,doct,O,t,224,1,1014.7999999970198,452565.3999999985,7024,WL,C,1.0
4,1.2820000648498535,learn,58717.99993515015,Fri Oct 11 2024 14:04:21 GMT-0500 (Central Daylight Time),453847.0,A,docto,O,o,257,1,1281.6000000014901,452565.3999999985,7024,WL,C,1.0
4,1.3989999294281006,learn,58601.0000705719,Fri Oct 11 2024 14:04:21 GMT-0500 (Central Daylight Time),453963.59999999404,A,doctor,O,r,102,1,1398.1999999955297,452565.3999999985,7024,WL,C,1.0
4,1.749000072479248,learn,58250.99992752075,Fri Oct 11 2024 14:04:21 GMT-0500 (Central Daylight Time),454313.3999999985,A,doctorenter,O,enter,329,1,1748.0,452565.3999999985,7024,WL,C,1.0
4,2.0320000648498535,learn,57967.99993515015,Fri Oct 11 2024 14:04:21 GMT-0500 (Central Daylight Time),454596.8999999985,A,f,O,f,275,1,283.1000000014901,454313.799999997,7024,WL,C,2.0
4,2.1489999294281006,learn,57851.0000705719,Fri Oct 11 2024 14:04:21 GMT-0500 (Central Daylight Time),454713.5,A,fl,O,l,104,1,399.70000000298023,454313.799999997,7024,WL,C,2.0
4,2.2319998741149902,learn,57768.00012588501,Fri Oct 11 2024 14:04:21 GMT-0500 (Central Daylight Time),454796.69999999553,A,fla,O,a,75,1,482.8999999985099,454313.799999997,7024,WL,C,2.0
4,2.431999921798706,learn,57568.000078201294,Fri Oct 11 2024 14:04:21 GMT-0500 (Central Daylight Time),454996.799999997,A,flag,O,g,192,1,683.0,454313.799999997,7024,WL,C,2.0
4,2.631999969482422,learn,57368.00003051758,Fri Oct 11 2024 14:04:21 GMT-0500 (Central Daylight Time),455196.59999999404,A,flagenter,O,enter,184,1,882.7999999970198,454313.799999997,7024,WL,C,2.0
4,2.815000057220459,learn,57184.99994277954,Fri Oct 11 2024 14:04:21 GMT-0500 (Central Daylight Time),455379.69999999553,A,c,O,c,176,1,182.60000000149012,455197.09999999404,7024,WL,C,3.0
4,2.931999921798706,learn,57068.000078201294,Fri Oct 11 2024 14:04:21 GMT-0500 (Central Daylight Time),455496.3999999985,A,ca,O,a,97,1,299.30000000447035,455197.09999999404,7024,WL,C,3.0
4,3.0149998664855957,learn,56985.000133514404,Fri Oct 11 2024 14:04:21 GMT-0500 (Central Daylight Time),455579.799999997,A,cam,O,m,68,1,382.70000000298023,455197.09999999404,7024,WL,C,3.0
4,3.1480000019073486,learn,56851.99999809265,Fri Oct 11 2024 14:04:21 GMT-0500 (Central Daylight Time),455713.19999999553,A,camp,O,p,129,1,516.1000000014901,455197.09999999404,7024,WL,C,3.0
4,3.430999994277954,learn,56569.000005722046,Fri Oct 11 2024 14:04:21 GMT-0500 (Central Daylight Time),455996.19999999553,A,campenter,O,enter,267,1,799.1000000014901,455197.09999999404,7024,WL,C,3.0
4,3.565000057220459,learn,56434.99994277954,Fri Oct 11 2024 14:04:21 GMT-0500 (Central Daylight Time),456129.799999997,A,s,O,s,120,1,133.29999999701977,455996.5,7024,WL,C,4.0
4,3.680999994277954,learn,56319.000005722046,Fri Oct 11 2024 14:04:21 GMT-0500 (Central Daylight Time),456246.09999999404,A,sh,O,h,99,1,249.59999999403954,455996.5,7024,WL,C,4.0
4,3.747999906539917,learn,56252.00009346008,Fri Oct 11 2024 14:04:21 GMT-0500 (Central Daylight Time),456312.8999999985,A,sho,O,o,54,1,316.3999999985099,455996.5,7024,WL,C,4.0
4,3.881999969482422,learn,56118.00003051758,Fri Oct 11 2024 14:04:21 GMT-0500 (Central Daylight Time),456446.299999997,A,shor,O,r,124,1,449.79999999701977,455996.5,7024,WL,C,4.0
4,3.9649999141693115,learn,56035.00008583069,Fri Oct 11 2024 14:04:21 GMT-0500 (Central Daylight Time),456529.3999999985,A,shore,O,e,62,1,532.8999999985099,455996.5,7024,WL,C,4.0
4,4.131999969482422,learn,55868.00003051758,Fri Oct 11 2024 14:04:21 GMT-0500 (Central Daylight Time),456697.19999999553,A,shoreenter,O,enter,147,1,700.6999999955297,455996.5,7024,WL,C,4.0
4,4.2829999923706055,learn,55717.000007629395,Fri Oct 11 2024 14:04:21 GMT-0500 (Central Daylight Time),456847.299999997,A,b,O,b,139,1,149.70000000298023,456697.59999999404,7024,WL,C,5.0
4,4.430999994277954,learn,55569.000005722046,Fri Oct 11 2024 14:04:21 GMT-0500 (Central Daylight Time),456995.8999999985,A,bo,O,o,141,1,298.30000000447035,456697.59999999404,7024,WL,C,5.0
4,4.547999858856201,learn,55452.0001411438,Fri Oct 11 2024 14:04:21 GMT-0500 (Central Daylight Time),457112.69999999553,A,bod,O,d,97,1,415.1000000014901,456697.59999999404,7024,WL,C,5.0
4,4.680999994277954,learn,55319.000005722046,Fri Oct 11 2024 14:04:21 GMT-0500 (Central Daylight Time),457245.8999999985,A,body,O,y,124,1,548.3000000044703,456697.59999999404,7024,WL,C,5.0
4,4.96399998664856,learn,55036.00001335144,Fri Oct 11 2024 14:04:21 GMT-0500 (Central Daylight Time),457529.19999999553,A,bodyenter,O,enter,278,1,831.6000000014901,456697.59999999404,7024,WL,C,5.0
4,5.21399998664856,learn,54786.00001335144,Fri Oct 11 2024 14:04:21 GMT-0500 (Central Daylight Time),457779.19999999553,A,n,O,n,244,1,249.69999999552965,457529.5,7024,WL,C,6.0
4,5.38100004196167,learn,54618.99995803833,Fri Oct 11 2024 14:04:21 GMT-0500 (Central Daylight Time),457945.799999997,A,na,O,a,153,1,416.29999999701977,457529.5,7024,WL,C,6.0
4,5.497999906539917,learn,54502.00009346008,Fri Oct 11 2024 14:04:21 GMT-0500 (Central Daylight Time),458062.299999997,A,nai,O,i,98,1,532.7999999970198,457529.5,7024,WL,C,6.0
4,5.613999843597412,learn,54386.00015640259,Fri Oct 11 2024 14:04:21 GMT-0500 (Central Daylight Time),458179.0,A,nail,O,l,111,1,649.5,457529.5,7024,WL,C,6.0
4,7.346999883651733,learn,52653.00011634827,Fri Oct 11 2024 14:04:21 GMT-0500 (Central Daylight Time),459911.69999999553,A,nailenter,O,enter,1714,1,2382.1999999955297,457529.5,7024,WL,C,6.0
4,7.730000019073486,learn,52269.999980926514,Fri Oct 11 2024 14:04:21 GMT-0500 (Central Daylight Time),460295.0,A,l,O,l,373,1,382.90000000596046,459912.09999999404,7024,WL,C,7.0
4,7.86299991607666,learn,52137.00008392334,Fri Oct 11 2024 14:04:21 GMT-0500 (Central Daylight Time),460428.19999999553,A,le,O,e,118,1,516.1000000014901,459912.09999999404,7024,WL,C,7.0
4,7.947000026702881,learn,52052.99997329712,Fri Oct 11 2024 14:04:21 GMT-0500 (Central Daylight Time),460511.69999999553,A,let,O,t,72,1,599.6000000014901,459912.09999999404,7024,WL,C,7.0
4,8.079999923706055,learn,51920.000076293945,Fri Oct 11 2024 14:04:21 GMT-0500 (Central Daylight Time),460644.8999999985,A,lett,O,t,125,1,732.8000000044703,459912.09999999404,7024,WL,C,7.0
4,8.213000059127808,learn,51786.99994087219,Fri Oct 11 2024 14:04:21 GMT-0500 (Central Daylight Time),460778.09999999404,A,lette,O,e,120,1,866.0,459912.09999999404,7024,WL,C,7.0
4,8.29699993133545,learn,51703.00006866455,Fri Oct 11 2024 14:04:21 GMT-0500 (Central Daylight Time),460861.59999999404,A,letter,O,r,74,1,949.5,459912.09999999404,7024,WL,C,7.0
4,8.44700002670288,learn,51552.99997329712,Fri Oct 11 2024 14:04:21 GMT-0500 (Central Daylight Time),461011.3999999985,A,letterenter,O,enter,143,1,1099.3000000044703,459912.09999999404,7024,WL,C,7.0
4,8.680000066757202,learn,51319.9999332428,Fri Oct 11 2024 14:04:21 GMT-0500 (Central Daylight Time),461244.69999999553,A,h,O,h,226,1,233.0,461011.69999999553,7024,WL,C,8.0
4,8.763999938964844,learn,51236.000061035156,Fri Oct 11 2024 14:04:21 GMT-0500 (Central Daylight Time),461328.3999999985,A,ho,O,o,64,1,316.70000000298023,461011.69999999553,7024,WL,C,8.0
4,8.895999908447266,learn,51104.000091552734,Fri Oct 11 2024 14:04:21 GMT-0500 (Central Daylight Time),461461.299999997,A,hom,O,m,124,1,449.6000000014901,461011.69999999553,7024,WL,C,8.0
4,8.980000019073486,learn,51019.999980926514,Fri Oct 11 2024 14:04:21 GMT-0500 (Central Daylight Time),461544.59999999404,A,home,O,e,63,1,532.8999999985099,461011.69999999553,7024,WL,C,8.0
4,9.19700002670288,learn,50802.99997329712,Fri Oct 11 2024 14:04:21 GMT-0500 (Central Daylight Time),461761.299999997,A,homeenter,O,enter,212,1,749.6000000014901,461011.69999999553,7024,WL,C,8.0
4,9.796000003814697,learn,50203.9999961853,Fri Oct 11 2024 14:04:21 GMT-0500 (Central Daylight Time),462361.09999999404,A,b,O,b,579,1,599.5,461761.59999999404,7024,WL,C,9.0
4,9.912999868392944,learn,50087.000131607056,Fri Oct 11 2024 14:04:21 GMT-0500 (Central Daylight Time),462477.59999999404,A,bo,O,o,107,1,716.0,461761.59999999404,7024,WL,C,9.0
4,10.279000043869019,learn,49720.99995613098,Fri Oct 11 2024 14:04:21 GMT-0500 (Central Daylight Time),462844.19999999553,A,boc,O,c,359,1,1082.6000000014901,461761.59999999404,7024,WL,C,9.0
4,10.628999948501587,learn,49371.00005149841,Fri Oct 11 2024 14:04:21 GMT-0500 (Central Daylight Time),463194.0,A,bo,O,backspace,336,1,1432.4000000059605,461761.59999999404,7024,WL,C,9.0
4,10.713000059127808,learn,49286.99994087219,Fri Oct 11 2024 14:04:21 GMT-0500 (Central Daylight Time),463277.3999999985,A,bod,O,d,67,1,1515.8000000044703,461761.59999999404,7024,WL,C,9.0
4,10.828999996185303,learn,49171.0000038147,Fri Oct 11 2024 14:04:21 GMT-0500 (Central Daylight Time),463394.0,A,body,O,y,104,1,1632.4000000059605,461761.59999999404,7024,WL,C,9.0
4,11.01199984550476,learn,48988.00015449524,Fri Oct 11 2024 14:04:21 GMT-0500 (Central Daylight Time),463577.19999999553,A,bodyenter,O,enter,170,1,1815.6000000014901,461761.59999999404,7024,WL,C,9.0
4,11.228999853134155,learn,48771.000146865845,Fri Oct 11 2024 14:04:21 GMT-0500 (Central Daylight Time),463793.799999997,A,c,O,c,203,1,216.20000000298023,463577.59999999404,7024,WL,C,10.0
4,11.312000036239624,learn,48687.999963760376,Fri Oct 11 2024 14:04:21 GMT-0500 (Central Daylight Time),463877.09999999404,A,co,O,o,75,1,299.5,463577.59999999404,7024,WL,C,10.0
4,11.461999893188477,learn,48538.00010681152,Fri Oct 11 2024 14:04:21 GMT-0500 (Central Daylight Time),464027.09999999404,A,cor,O,r,144,1,449.5,463577.59999999404,7024,WL,C,10.0
4,11.578999996185303,learn,48421.0000038147,Fri Oct 11 2024 14:04:21 GMT-0500 (Central Daylight Time),464144.0,A,corn,O,n,105,1,566.4000000059605,463577.59999999404,7024,WL,C,10.0
4,12.103999853134155,learn,47896.000146865845,Fri Oct 11 2024 14:04:21 GMT-0500 (Central Daylight Time),464668.8999999985,A,cornenter,O,enter,519,1,1091.3000000044703,463577.59999999404,7024,WL,C,10.0
4,14.494999885559082,learn,45505.00011444092,Fri Oct 11 2024 14:04:21 GMT-0500 (Central Daylight Time),467059.5,A,w,O,w,2382,1,2390.2000000029802,464669.299999997,7024,WL,C,11.0
4,14.611000061035156,learn,45388.999938964844,Fri Oct 11 2024 14:04:21 GMT-0500 (Central Daylight Time),467176.19999999553,A,wh,O,h,105,1,2506.89999999851,464669.299999997,7024,WL,C,11.0
4,14.710999965667725,learn,45289.000034332275,Fri Oct 11 2024 14:04:21 GMT-0500 (Central Daylight Time),467276.19999999553,A,whe,O,e,84,1,2606.89999999851,464669.299999997,7024,WL,C,11.0
4,14.796000003814697,learn,45203.9999961853,Fri Oct 11 2024 14:04:21 GMT-0500 (Central Daylight Time),467360.59999999404,A,whea,O,a,72,1,2691.2999999970198,464669.299999997,7024,WL,C,11.0
4,14.92799997329712,learn,45072.00002670288,Fri Oct 11 2024 14:04:21 GMT-0500 (Central Daylight Time),467492.69999999553,A,wheat,O,t,124,1,2823.39999999851,464669.299999997,7024,WL,C,11.0
4,15.477999925613403,learn,44522.0000743866,Fri Oct 11 2024 14:04:21 GMT-0500 (Central Daylight Time),468042.5,A,wheatenter,O,enter,544,1,3373.2000000029802,464669.299999997,7024,WL,C,11.0
4,15.944999933242798,learn,44055.0000667572,Fri Oct 11 2024 14:04:21 GMT-0500 (Central Daylight Time),468510.09999999404,A,q,O,q,458,1,467.19999999552965,468042.8999999985,7024,WL,C,12.0
4,16.043999910354614,learn,43956.000089645386,Fri Oct 11 2024 14:04:21 GMT-0500 (Central Daylight Time),468609.09999999404,A,qu,O,u,94,1,566.1999999955297,468042.8999999985,7024,WL,C,12.0
4,16.227999925613403,learn,43772.0000743866,Fri Oct 11 2024 14:04:21 GMT-0500 (Central Daylight Time),468792.19999999553,A,que,O,e,164,1,749.2999999970198,468042.8999999985,7024,WL,C,12.0
4,16.444000005722046,learn,43555.999994277954,Fri Oct 11 2024 14:04:21 GMT-0500 (Central Daylight Time),469008.799999997,A,quee,O,e,204,1,965.8999999985099,468042.8999999985,7024,WL,C,12.0
4,16.57699990272522,learn,43423.00009727478,Fri Oct 11 2024 14:04:21 GMT-0500 (Central Daylight Time),469142.09999999404,A,queen,O,n,116,1,1099.1999999955297,468042.8999999985,7024,WL,C,12.0
4,16.861999988555908,learn,43138.00001144409,Fri Oct 11 2024 14:04:21 GMT-0500 (Central Daylight Time),469426.69999999553,A,queenenter,O,enter,271,1,1383.7999999970198,468042.8999999985,7024,WL,C,12.0
4,17.026999950408936,learn,42973.000049591064,Fri Oct 11 2024 14:04:21 GMT-0500 (Central Daylight Time),469592.09999999404,A,t,O,t,154,1,165.09999999403954,469427.0,7024,WL,C,13.0
4,17.194000005722046,learn,42805.999994277954,Fri Oct 11 2024 14:04:21 GMT-0500 (Central Daylight Time),469758.799999997,A,to,O,o,148,1,331.79999999701977,469427.0,7024,WL,C,13.0
4,17.259999990463257,learn,42740.00000953674,Fri Oct 11 2024 14:04:21 GMT-0500 (Central Daylight Time),469825.19999999553,A,tow,O,w,62,1,398.19999999552965,469427.0,7024,WL,C,13.0
4,17.376999855041504,learn,42623.000144958496,Fri Oct 11 2024 14:04:21 GMT-0500 (Central Daylight Time),469942.19999999553,A,towe,O,e,108,1,515.1999999955297,469427.0,7024,WL,C,13.0
4,17.47699999809265,learn,42523.00000190735,Fri Oct 11 2024 14:04:21 GMT-0500 (Central Daylight Time),470042.0,A,tower,O,r,87,1,615.0,469427.0,7024,WL,C,13.0
4,17.795000076293945,learn,42204.999923706055,Fri Oct 11 2024 14:04:21 GMT-0500 (Central Daylight Time),470359.69999999553,A,towerenter,O,enter,299,1,932.6999999955297,469427.0,7024,WL,C,13.0
4,17.944000005722046,learn,42055.999994277954,Fri Oct 11 2024 14:04:21 GMT-0500 (Central Daylight Time),470508.3999999985,A,s,O,s,141,1,148.39999999850988,470360.0,7024,WL,C,14.0
4,18.07699990272522,learn,41923.00009727478,Fri Oct 11 2024 14:04:21 GMT-0500 (Central Daylight Time),470641.59999999404,A,su,O,u,128,1,281.59999999403954,470360.0,7024,WL,C,14.0
4,18.39299988746643,learn,41607.00011253357,Fri Oct 11 2024 14:04:21 GMT-0500 (Central Daylight Time),470958.19999999553,A,sug,O,g,299,1,598.1999999955297,470360.0,7024,WL,C,14.0
4,18.47699999809265,learn,41523.00000190735,Fri Oct 11 2024 14:04:21 GMT-0500 (Central Daylight Time),471041.5,A,suga,O,a,78,1,681.5,470360.0,7024,WL,C,14.0
4,18.64299988746643,learn,41357.00011253357,Fri Oct 11 2024 14:04:21 GMT-0500 (Central Daylight Time),471208.09999999404,A,sugar,O,r,155,1,848.0999999940395,470360.0,7024,WL,C,14.0
4,18.82699990272522,learn,41173.00009727478,Fri Oct 11 2024 14:04:21 GMT-0500 (Central Daylight Time),471391.69999999553,A,sugarenter,O,enter,164,1,1031.6999999955297,470360.0,7024,WL,C,14.0
4,19.177000045776367,learn,40822.99995422363,Fri Oct 11 2024 14:04:21 GMT-0500 (Central Daylight Time),471741.19999999553,A,b,O,b,341,1,349.29999999701977,471391.8999999985,7024,WL,C,15.0
4,19.292999982833862,learn,40707.00001716614,Fri Oct 11 2024 14:04:21 GMT-0500 (Central Daylight Time),471858.0,A,bo,O,o,103,1,466.1000000014901,471391.8999999985,7024,WL,C,15.0
4,19.442999839782715,learn,40557.000160217285,Fri Oct 11 2024 14:04:21 GMT-0500 (Central Daylight Time),472008.09999999404,A,boy,O,y,139,1,616.1999999955297,471391.8999999985,7024,WL,C,15.0
4,21.2260000705719,learn,38773.9999294281,Fri Oct 11 2024 14:04:21 GMT-0500 (Central Daylight Time),473790.799999997,A,boyenter,O,enter,1765,1,2398.89999999851,471391.8999999985,7024,WL,C,15.0
5,0.6670000553131104,learn,60000.0,Fri Oct 11 2024 14:04:21 GMT-0500 (Central Daylight Time),539437.0,A,d,O,d,651,1,666.4000000059605,538770.599999994,7024,WL,C,1.0
5,0.75,learn,60000.0,Fri Oct 11 2024 14:04:21 GMT-0500 (Central Daylight Time),539520.3999999985,A,do,O,o,71,1,749.8000000044703,538770.599999994,7024,WL,C,1.0
5,0.9500000476837158,learn,60000.0,Fri Oct 11 2024 14:04:21 GMT-0500 (Central Daylight Time),539720.099999994,A,doc,O,c,180,1,949.5,538770.599999994,7024,WL,C,1.0
5,1.2009999752044678,learn,60000.0,Fri Oct 11 2024 14:04:21 GMT-0500 (Central Daylight Time),539971.099999994,A,doct,O,t,244,1,1200.5,538770.599999994,7024,WL,C,1.0
5,1.3500001430511475,learn,60000.0,Fri Oct 11 2024 14:04:21 GMT-0500 (Central Daylight Time),540120.1999999955,A,docto,O,o,137,1,1349.6000000014901,538770.599999994,7024,WL,C,1.0
5,1.433000087738037,learn,60000.0,Fri Oct 11 2024 14:04:21 GMT-0500 (Central Daylight Time),540203.1999999955,A,doctor,O,r,76,1,1432.6000000014901,538770.599999994,7024,WL,C,1.0
5,1.6010000705718994,learn,60000.0,Fri Oct 11 2024 14:04:21 GMT-0500 (Central Daylight Time),540371.0,A,doctorenter,O,enter,161,1,1600.4000000059605,538770.599999994,7024,WL,C,1.0
5,1.7660000324249268,learn,60000.0,Fri Oct 11 2024 14:04:21 GMT-0500 (Central Daylight Time),540536.6999999955,A,f,O,f,146,1,165.39999999850988,540371.299999997,7024,WL,C,2.0
5,1.883000135421753,learn,60000.0,Fri Oct 11 2024 14:04:21 GMT-0500 (Central Daylight Time),540653.099999994,A,fl,O,l,108,1,281.79999999701977,540371.299999997,7024,WL,C,2.0
5,1.999000072479248,learn,60000.0,Fri Oct 11 2024 14:04:21 GMT-0500 (Central Daylight Time),540769.599999994,A,fla,O,a,111,1,398.29999999701977,540371.299999997,7024,WL,C,2.0
5,2.199000120162964,learn,60000.0,Fri Oct 11 2024 14:04:21 GMT-0500 (Central Daylight Time),540969.799999997,A,flac,O,c,195,1,598.5,540371.299999997,7024,WL,C,2.0
5,2.683000087738037,learn,60000.0,Fri Oct 11 2024 14:04:21 GMT-0500 (Central Daylight Time),541453.0,A,flacg,O,g,475,1,1081.7000000029802,540371.299999997,7024,WL,C,2.0
5,3.0320000648498535,learn,60000.0,Fri Oct 11 2024 14:04:21 GMT-0500 (Central Daylight Time),541802.599999994,A,flac,O,backspace,344,1,1431.2999999970198,540371.299999997,7024,WL,C,2.0
5,3.1660001277923584,learn,60000.0,Fri Oct 11 2024 14:04:21 GMT-0500 (Central Daylight Time),541936.099999994,A,fla,O,backspace,122,1,1564.7999999970198,540371.299999997,7024,WL,C,2.0
5,3.249000072479248,learn,60000.0,Fri Oct 11 2024 14:04:21 GMT-0500 (Central Daylight Time),542019.3999999985,A,flag,O,g,77,1,1648.1000000014901,540371.299999997,7024,WL,C,2.0
5,3.381999969482422,learn,60000.0,Fri Oct 11 2024 14:04:21 GMT-0500 (Central Daylight Time),542152.6999999955,A,flagenter,O,enter,113,1,1781.3999999985099,540371.299999997,7024,WL,C,2.0
5,4.115999937057495,learn,60000.0,Fri Oct 11 2024 14:04:21 GMT-0500 (Central Daylight Time),542885.799999997,A,c,O,c,724,1,732.7999999970198,542153.0,7024,WL,C,3.0
5,4.265000104904175,learn,60000.0,Fri Oct 11 2024 14:04:21 GMT-0500 (Central Daylight Time),543035.799999997,A,ca,O,a,135,1,882.7999999970198,542153.0,7024,WL,C,3.0
5,4.400000095367432,learn,60000.0,Fri Oct 11 2024 14:04:21 GMT-0500 (Central Daylight Time),543170.1999999955,A,cam,O,m,113,1,1017.1999999955297,542153.0,7024,WL,C,3.0
5,4.565000057220459,learn,60000.0,Fri Oct 11 2024 14:04:21 GMT-0500 (Central Daylight Time),543335.5,A,camp,O,p,146,1,1182.5,542153.0,7024,WL,C,3.0
5,4.83299994468689,learn,60000.0,Fri Oct 11 2024 14:04:21 GMT-0500 (Central Daylight Time),543603.1999999955,A,campenter,O,enter,253,1,1450.1999999955297,542153.0,7024,WL,C,3.0
5,5.0320000648498535,learn,60000.0,Fri Oct 11 2024 14:04:21 GMT-0500 (Central Daylight Time),543802.0,A,l,O,l,185,1,198.60000000149012,543603.3999999985,7024,WL,C,4.0
5,5.115000009536743,learn,60000.0,Fri Oct 11 2024 14:04:21 GMT-0500 (Central Daylight Time),543885.3999999985,A,le,O,e,75,1,282.0,543603.3999999985,7024,WL,C,4.0
5,5.197999954223633,learn,60000.0,Fri Oct 11 2024 14:04:21 GMT-0500 (Central Daylight Time),543968.6999999955,A,let,O,t,63,1,365.29999999701977,543603.3999999985,7024,WL,C,4.0
5,5.365000009536743,learn,60000.0,Fri Oct 11 2024 14:04:21 GMT-0500 (Central Daylight Time),544135.299999997,A,lett,O,t,156,1,531.8999999985099,543603.3999999985,7024,WL,C,4.0
5,5.515000104904175,learn,60000.0,Fri Oct 11 2024 14:04:21 GMT-0500 (Central Daylight Time),544285.299999997,A,lettr,O,r,141,1,681.8999999985099,543603.3999999985,7024,WL,C,4.0
5,6.414999961853027,learn,60000.0,Fri Oct 11 2024 14:04:21 GMT-0500 (Central Daylight Time),545185.099999994,A,lett,O,backspace,879,1,1581.6999999955297,543603.3999999985,7024,WL,C,4.0
5,6.515000104904175,learn,60000.0,Fri Oct 11 2024 14:04:21 GMT-0500 (Central Daylight Time),545284.799999997,A,lette,O,e,84,1,1681.3999999985099,543603.3999999985,7024,WL,C,4.0
5,6.5980000495910645,learn,60000.0,Fri Oct 11 2024 14:04:21 GMT-0500 (Central Daylight Time),545368.3999999985,A,letter,O,r,64,1,1765.0,543603.3999999985,7024,WL,C,4.0
5,6.732000112533569,learn,60000.0,Fri Oct 11 2024 14:04:21 GMT-0500 (Central Daylight Time),545501.799999997,A,letterenter,O,enter,116,1,1898.3999999985099,543603.3999999985,7024,WL,C,4.0
5,7.065000057220459,learn,60000.0,Fri Oct 11 2024 14:04:21 GMT-0500 (Central Daylight Time),545834.8999999985,A,c,O,c,319,1,332.80000000447035,545502.099999994,7024,WL,C,5.0
5,7.180999994277954,learn,60000.0,Fri Oct 11 2024 14:04:21 GMT-0500 (Central Daylight Time),545951.3999999985,A,co,O,o,105,1,449.30000000447035,545502.099999994,7024,WL,C,5.0
5,7.364000082015991,learn,60000.0,Fri Oct 11 2024 14:04:21 GMT-0500 (Central Daylight Time),546134.6999999955,A,cor,O,r,165,1,632.6000000014901,545502.099999994,7024,WL,C,5.0
5,7.449000120162964,learn,60000.0,Fri Oct 11 2024 14:04:21 GMT-0500 (Central Daylight Time),546218.8999999985,A,corn,O,n,78,1,716.8000000044703,545502.099999994,7024,WL,C,5.0
5,8.531000137329102,learn,60000.0,Fri Oct 11 2024 14:04:21 GMT-0500 (Central Daylight Time),547301.099999994,A,cornenter,O,enter,1066,1,1799.0,545502.099999994,7024,WL,C,5.0
5,8.864000082015991,learn,60000.0,Fri Oct 11 2024 14:04:21 GMT-0500 (Central Daylight Time),547634.0,A,b,O,b,320,1,332.6000000014901,547301.3999999985,7024,WL,C,6.0
5,8.980000019073486,learn,60000.0,Fri Oct 11 2024 14:04:21 GMT-0500 (Central Daylight Time),547750.5,A,bo,O,o,98,1,449.1000000014901,547301.3999999985,7024,WL,C,6.0
5,9.147000074386597,learn,60000.0,Fri Oct 11 2024 14:04:21 GMT-0500 (Central Daylight Time),547917.599999994,A,bod,O,d,150,1,616.1999999955297,547301.3999999985,7024,WL,C,6.0
5,9.246999979019165,learn,60000.0,Fri Oct 11 2024 14:04:21 GMT-0500 (Central Daylight Time),548017.3999999985,A,body,O,y,87,1,716.0,547301.3999999985,7024,WL,C,6.0
5,9.496999979019165,learn,60000.0,Fri Oct 11 2024 14:04:21 GMT-0500 (Central Daylight Time),548267.299999997,A,bodyenter,O,enter,235,1,965.8999999985099,547301.3999999985,7024,WL,C,6.0
5,9.630000114440918,learn,60000.0,Fri Oct 11 2024 14:04:21 GMT-0500 (Central Daylight Time),548400.599999994,A,s,O,s,113,1,133.0,548267.599999994,7024,WL,C,7.0
5,9.730000019073486,learn,60000.0,Fri Oct 11 2024 14:04:21 GMT-0500 (Central Daylight Time),548500.6999999955,A,sh,O,h,92,1,233.10000000149012,548267.599999994,7024,WL,C,7.0
5,9.814000129699707,learn,60000.0,Fri Oct 11 2024 14:04:21 GMT-0500 (Central Daylight Time),548584.0,A,sho,O,o,64,1,316.40000000596046,548267.599999994,7024,WL,C,7.0
5,9.930000066757202,learn,60000.0,Fri Oct 11 2024 14:04:21 GMT-0500 (Central Daylight Time),548700.599999994,A,shor,O,r,109,1,433.0,548267.599999994,7024,WL,C,7.0
5,10.347000122070312,learn,60000.0,Fri Oct 11 2024 14:04:21 GMT-0500 (Central Daylight Time),549117.099999994,A,shore,O,e,408,1,849.5,548267.599999994,7024,WL,C,7.0
5,10.713000059127808,learn,60000.0,Fri Oct 11 2024 14:04:21 GMT-0500 (Central Daylight Time),549483.599999994,A,shoreenter,O,enter,360,1,1216.0,548267.599999994,7024,WL,C,7.0
5,10.897000074386597,learn,60000.0,Fri Oct 11 2024 14:04:21 GMT-0500 (Central Daylight Time),549667.099999994,A,b,O,b,169,1,183.19999999552965,549483.8999999985,7024,WL,C,8.0
5,11.02999997138977,learn,60000.0,Fri Oct 11 2024 14:04:21 GMT-0500 (Central Daylight Time),549800.1999999955,A,bo,O,o,122,1,316.29999999701977,549483.8999999985,7024,WL,C,8.0
5,11.213000059127808,learn,60000.0,Fri Oct 11 2024 14:04:21 GMT-0500 (Central Daylight Time),549983.3999999985,A,boy,O,y,172,1,499.5,549483.8999999985,7024,WL,C,8.0
5,11.946000099182129,learn,60000.0,Fri Oct 11 2024 14:04:21 GMT-0500 (Central Daylight Time),550716.3999999985,A,boyenter,O,enter,725,1,1232.5,549483.8999999985,7024,WL,C,8.0
5,12.446000099182129,learn,60000.0,Fri Oct 11 2024 14:04:21 GMT-0500 (Central Daylight Time),551216.5,A,s,O,s,489,1,499.80000000447035,550716.6999999955,7024,WL,C,9.0
5,12.579999923706055,learn,60000.0,Fri Oct 11 2024 14:04:21 GMT-0500 (Central Daylight Time),551349.8999999985,A,su,O,u,116,1,633.2000000029802,550716.6999999955,7024,WL,C,9.0
5,12.812999963760376,learn,60000.0,Fri Oct 11 2024 14:04:21 GMT-0500 (Central Daylight Time),551583.1999999955,A,sug,O,g,222,1,866.5,550716.6999999955,7024,WL,C,9.0
5,12.946000099182129,learn,60000.0,Fri Oct 11 2024 14:04:21 GMT-0500 (Central Daylight Time),551716.299999997,A,suga,O,a,117,1,999.6000000014901,550716.6999999955,7024,WL,C,9.0
5,13.095999956130981,learn,60000.0,Fri Oct 11 2024 14:04:21 GMT-0500 (Central Daylight Time),551866.0,A,sugar,O,r,144,1,1149.3000000044703,550716.6999999955,7024,WL,C,9.0
5,13.312999963760376,learn,60000.0,Fri Oct 11 2024 14:04:21 GMT-0500 (Central Daylight Time),552082.8999999985,A,sugarenter,O,enter,203,1,1366.2000000029802,550716.6999999955,7024,WL,C,9.0
5,13.546000003814697,learn,60000.0,Fri Oct 11 2024 14:04:21 GMT-0500 (Central Daylight Time),552316.3999999985,A,h,O,h,218,1,233.20000000298023,552083.1999999955,7024,WL,C,10.0
5,13.578999996185303,learn,60000.0,Fri Oct 11 2024 14:04:21 GMT-0500 (Central Daylight Time),552349.299999997,A,ho,O,o,24,1,266.1000000014901,552083.1999999955,7024,WL,C,10.0
5,13.76200008392334,learn,60000.0,Fri Oct 11 2024 14:04:21 GMT-0500 (Central Daylight Time),552532.6999999955,A,hom,O,m,176,1,449.5,552083.1999999955,7024,WL,C,10.0
5,13.861999988555908,learn,60000.0,Fri Oct 11 2024 14:04:21 GMT-0500 (Central Daylight Time),552632.799999997,A,home,O,e,88,1,549.6000000014901,552083.1999999955,7024,WL,C,10.0
5,14.095999956130981,learn,60000.0,Fri Oct 11 2024 14:04:21 GMT-0500 (Central Daylight Time),552866.3999999985,A,homeenter,O,enter,228,1,783.2000000029802,552083.1999999955,7024,WL,C,10.0
5,15.92900013923645,learn,60000.0,Fri Oct 11 2024 14:04:21 GMT-0500 (Central Daylight Time),554698.6999999955,A,t,O,t,1826,1,1832.1000000014901,552866.599999994,7024,WL,C,11.0
5,16.09500002861023,learn,60000.0,Fri Oct 11 2024 14:04:21 GMT-0500 (Central Daylight Time),554865.1999999955,A,to,O,o,147,1,1998.6000000014901,552866.599999994,7024,WL,C,11.0
5,16.16100001335144,learn,60000.0,Fri Oct 11 2024 14:04:21 GMT-0500 (Central Daylight Time),554931.599999994,A,tow,O,w,59,1,2065.0,552866.599999994,7024,WL,C,11.0
5,16.212000131607056,learn,60000.0,Fri Oct 11 2024 14:04:21 GMT-0500 (Central Daylight Time),554982.0,A,towe,O,e,41,1,2115.4000000059605,552866.599999994,7024,WL,C,11.0
5,16.34500002861023,learn,60000.0,Fri Oct 11 2024 14:04:21 GMT-0500 (Central Daylight Time),555115.1999999955,A,tower,O,r,127,1,2248.60000000149,552866.599999994,7024,WL,C,11.0
5,16.74500012397766,learn,60000.0,Fri Oct 11 2024 14:04:21 GMT-0500 (Central Daylight Time),555515.0,A,towerenter,O,enter,394,1,2648.4000000059605,552866.599999994,7024,WL,C,11.0
5,16.99500012397766,learn,60000.0,Fri Oct 11 2024 14:04:21 GMT-0500 (Central Daylight Time),555764.799999997,A,w,O,w,234,1,249.60000000149012,555515.1999999955,7024,WL,C,12.0
5,17.34500002861023,learn,60000.0,Fri Oct 11 2024 14:04:21 GMT-0500 (Central Daylight Time),556115.099999994,A,wh,O,h,344,1,599.8999999985099,555515.1999999955,7024,WL,C,12.0
5,17.444999933242798,learn,60000.0,Fri Oct 11 2024 14:04:21 GMT-0500 (Central Daylight Time),556214.8999999985,A,whe,O,e,90,1,699.7000000029802,555515.1999999955,7024,WL,C,12.0
5,17.74500012397766,learn,60000.0,Fri Oct 11 2024 14:04:21 GMT-0500 (Central Daylight Time),556515.0,A,whea,O,a,286,1,999.8000000044703,555515.1999999955,7024,WL,C,12.0
5,17.84500002861023,learn,60000.0,Fri Oct 11 2024 14:04:21 GMT-0500 (Central Daylight Time),556614.799999997,A,wheat,O,t,90,1,1099.6000000014901,555515.1999999955,7024,WL,C,12.0
5,18.628000020980835,learn,60000.0,Fri Oct 11 2024 14:04:21 GMT-0500 (Central Daylight Time),557398.0,A,wheatenter,O,enter,765,1,1882.8000000044703,555515.1999999955,7024,WL,C,12.0
5,18.778000116348267,learn,60000.0,Fri Oct 11 2024 14:04:21 GMT-0500 (Central Daylight Time),557547.8999999985,A,q,O,q,143,1,149.5,557398.3999999985,7024,WL,C,13.0
5,18.91100001335144,learn,60000.0,Fri Oct 11 2024 14:04:21 GMT-0500 (Central Daylight Time),557681.299999997,A,qu,O,u,129,1,282.8999999985099,557398.3999999985,7024,WL,C,13.0
5,19.044000148773193,learn,60000.0,Fri Oct 11 2024 14:04:21 GMT-0500 (Central Daylight Time),557814.1999999955,A,que,O,e,123,1,415.79999999701977,557398.3999999985,7024,WL,C,13.0
5,19.210999965667725,learn,60000.0,Fri Oct 11 2024 14:04:21 GMT-0500 (Central Daylight Time),557981.0,A,quee,O,e,150,1,582.6000000014901,557398.3999999985,7024,WL,C,13.0
5,19.294000148773193,learn,60000.0,Fri Oct 11 2024 14:04:21 GMT-0500 (Central Daylight Time),558064.1999999955,A,queen,O,n,63,1,665.7999999970198,557398.3999999985,7024,WL,C,13.0
5,20.427000045776367,learn,60000.0,Fri Oct 11 2024 14:04:21 GMT-0500 (Central Daylight Time),559197.299999997,A,queenenter,O,enter,1116,1,1798.8999999985099,557398.3999999985,7024,WL,C,13.0
5,20.694000005722046,learn,60000.0,Fri Oct 11 2024 14:04:21 GMT-0500 (Central Daylight Time),559463.8999999985,A,s,O,s,255,1,266.3999999985099,559197.5,7024,WL,C,14.0
5,20.91000008583069,learn,60000.0,Fri Oct 11 2024 14:04:21 GMT-0500 (Central Daylight Time),559680.6999999955,A,su,O,u,205,1,483.19999999552965,559197.5,7024,WL,C,14.0
5,20.927000045776367,learn,60000.0,Fri Oct 11 2024 14:04:21 GMT-0500 (Central Daylight Time),559697.1999999955,A,sui,O,i,1,1,499.69999999552965,559197.5,7024,WL,C,14.0
5,21.342999935150146,learn,60000.0,Fri Oct 11 2024 14:04:21 GMT-0500 (Central Daylight Time),560113.599999994,A,su,O,backspace,404,1,916.0999999940395,559197.5,7024,WL,C,14.0
5,21.493000030517578,learn,60000.0,Fri Oct 11 2024 14:04:21 GMT-0500 (Central Daylight Time),560263.599999994,A,sug,O,g,139,1,1066.0999999940395,559197.5,7024,WL,C,14.0
5,21.592999935150146,learn,60000.0,Fri Oct 11 2024 14:04:21 GMT-0500 (Central Daylight Time),560363.5,A,suga,O,a,93,1,1166.0,559197.5,7024,WL,C,14.0
5,21.74399995803833,learn,60000.0,Fri Oct 11 2024 14:04:21 GMT-0500 (Central Daylight Time),560513.799999997,A,sugar,O,r,129,1,1316.2999999970198,559197.5,7024,WL,C,14.0
5,22.776000022888184,learn,60000.0,Fri Oct 11 2024 14:04:21 GMT-0500 (Central Daylight Time),561546.599999994,A,sugarenter,O,enter,1027,1,2349.0999999940395,559197.5,7024,WL,C,14.0
5,25.2260000705719,learn,60000.0,Fri Oct 11 2024 14:04:21 GMT-0500 (Central Daylight Time),563995.8999999985,A,n,O,n,2434,1,2449.0,561546.8999999985,7024,WL,C,15.0
5,25.325999975204468,learn,60000.0,Fri Oct 11 2024 14:04:21 GMT-0500 (Central Daylight Time),564095.8999999985,A,na,O,a,89,1,2549.0,561546.8999999985,7024,WL,C,15.0
5,25.408999919891357,learn,60000.0,Fri Oct 11 2024 14:04:21 GMT-0500 (Central Daylight Time),564178.8999999985,A,nai,O,i,77,1,2632.0,561546.8999999985,7024,WL,C,15.0
5,25.509000062942505,learn,60000.0,Fri Oct 11 2024 14:04:21 GMT-0500 (Central Daylight Time),564279.0,A,nail,O,l,90,1,2732.10000000149,561546.8999999985,7024,WL,C,15.0
5,25.825000047683716,learn,60000.0,Fri Oct 11 2024 14:04:21 GMT-0500 (Central Daylight Time),564595.5,A,nailenter,O,enter,302,1,3048.60000000149,561546.8999999985,7024,WL,C,15.0
6,1.0829999446868896,distr,58917.00005531311,Fri Oct 11 2024 14:04:21 GMT-0500 (Central Daylight Time),645037.0,B,m,O,m,1075,1,1082.9000000059605,643954.099999994,7024,WL,C,1.0
6,1.2009999752044678,distr,58799.00002479553,Fri Oct 11 2024 14:04:21 GMT-0500 (Central Daylight Time),645154.6999999955,B,mo,O,o,111,1,1200.6000000014901,643954.099999994,7024,WL,C,1.0
6,1.316999912261963,distr,58683.00008773804,Fri Oct 11 2024 14:04:21 GMT-0500 (Central Daylight Time),645270.299999997,B,mon,O,n,106,1,1316.2000000029802,643954.099999994,7024,WL,C,1.0
6,1.4170000553131104,distr,58582.99994468689,Fri Oct 11 2024 14:04:21 GMT-0500 (Central Daylight Time),645370.1999999955,B,mone,O,e,86,1,1416.1000000014901,643954.099999994,7024,WL,C,1.0
6,1.566999912261963,distr,58433.00008773804,Fri Oct 11 2024 14:04:21 GMT-0500 (Central Daylight Time),645520.1999999955,B,money,O,y,139,1,1566.1000000014901,643954.099999994,7024,WL,C,1.0
6,1.866999864578247,distr,58133.00013542175,Fri Oct 11 2024 14:04:21 GMT-0500 (Central Daylight Time),645820.1999999955,B,moneyenter,O,enter,285,1,1866.1000000014901,643954.099999994,7024,WL,C,1.0
6,2.0829999446868896,distr,57917.00005531311,Fri Oct 11 2024 14:04:21 GMT-0500 (Central Daylight Time),646036.8999999985,B,h,O,h,208,1,216.30000000447035,645820.599999994,7024,WL,C,2.0
6,2.2330000400543213,distr,57766.99995994568,Fri Oct 11 2024 14:04:21 GMT-0500 (Central Daylight Time),646186.799999997,B,hp,O,p,144,1,366.20000000298023,645820.599999994,7024,WL,C,2.0
6,2.6659998893737793,distr,57334.00011062622,Fri Oct 11 2024 14:04:21 GMT-0500 (Central Daylight Time),646620.0,B,h,O,backspace,418,1,799.4000000059605,645820.599999994,7024,WL,C,2.0
6,2.8989999294281006,distr,57101.0000705719,Fri Oct 11 2024 14:04:21 GMT-0500 (Central Daylight Time),646852.8999999985,B,ho,O,o,225,1,1032.3000000044703,645820.599999994,7024,WL,C,2.0
6,3.0160000324249268,distr,56983.99996757507,Fri Oct 11 2024 14:04:21 GMT-0500 (Central Daylight Time),646969.8999999985,B,hot,O,t,104,1,1149.3000000044703,645820.599999994,7024,WL,C,2.0
6,3.065999984741211,distr,56934.00001525879,Fri Oct 11 2024 14:04:21 GMT-0500 (Central Daylight Time),647019.6999999955,B,hote,O,e,43,1,1199.1000000014901,645820.599999994,7024,WL,C,2.0
6,3.248999834060669,distr,56751.00016593933,Fri Oct 11 2024 14:04:21 GMT-0500 (Central Daylight Time),647202.8999999985,B,hoteenter,O,enter,177,1,1382.3000000044703,645820.599999994,7024,WL,C,2.0
6,4.198999881744385,distr,55801.000118255615,Fri Oct 11 2024 14:04:21 GMT-0500 (Central Daylight Time),648152.6999999955,B,s,O,s,935,1,949.5,647203.1999999955,7024,WL,C,3.0
6,4.299000024795532,distr,55700.99997520447,Fri Oct 11 2024 14:04:21 GMT-0500 (Central Daylight Time),648252.599999994,B,sk,O,k,92,1,1049.3999999985099,647203.1999999955,7024,WL,C,3.0
6,4.516000032424927,distr,55483.99996757507,Fri Oct 11 2024 14:04:21 GMT-0500 (Central Daylight Time),648469.3999999985,B,sky,O,y,208,1,1266.2000000029802,647203.1999999955,7024,WL,C,3.0
6,4.766000032424927,distr,55233.99996757507,Fri Oct 11 2024 14:04:21 GMT-0500 (Central Daylight Time),648719.1999999955,B,skyenter,O,enter,239,1,1516.0,647203.1999999955,7024,WL,C,3.0
6,5.516999959945679,distr,54483.00004005432,Fri Oct 11 2024 14:04:21 GMT-0500 (Central Daylight Time),649470.1999999955,B,v,O,v,742,1,750.6000000014901,648719.599999994,7024,WL,C,4.0
6,5.615999937057495,distr,54384.000062942505,Fri Oct 11 2024 14:04:21 GMT-0500 (Central Daylight Time),649569.0,B,va,O,a,86,1,849.4000000059605,648719.599999994,7024,WL,C,4.0
6,5.7159998416900635,distr,54284.00015830994,Fri Oct 11 2024 14:04:21 GMT-0500 (Central Daylight Time),649669.0,B,val,O,l,92,1,949.4000000059605,648719.599999994,7024,WL,C,4.0
6,5.848999977111816,distr,54151.00002288818,Fri Oct 11 2024 14:04:21 GMT-0500 (Central Daylight Time),649802.1999999955,B,vall,O,l,128,1,1082.6000000014901,648719.599999994,7024,WL,C,4.0
6,5.915999889373779,distr,54084.00011062622,Fri Oct 11 2024 14:04:21 GMT-0500 (Central Daylight Time),649869.0,B,valle,O,e,59,1,1149.4000000059605,648719.599999994,7024,WL,C,4.0
6,6.065000057220459,distr,53934.99994277954,Fri Oct 11 2024 14:04:21 GMT-0500 (Central Daylight Time),650018.799999997,B,valley,O,y,144,1,1299.2000000029802,648719.599999994,7024,WL,C,4.0
6,6.549000024795532,distr,53450.99997520447,Fri Oct 11 2024 14:04:21 GMT-0500 (Central Daylight Time),650502.1999999955,B,valleyenter,O,enter,466,1,1782.6000000014901,648719.599999994,7024,WL,C,4.0
6,7.398000001907349,distr,52601.99999809265,Fri Oct 11 2024 14:04:21 GMT-0500 (Central Daylight Time),651351.799999997,B,c,O,c,839,1,849.2999999970198,650502.5,7024,WL,C,5.0
6,7.4659998416900635,distr,52534.00015830994,Fri Oct 11 2024 14:04:21 GMT-0500 (Central Daylight Time),651419.5,B,ch,O,h,61,1,917.0,650502.5,7024,WL,C,5.0
6,7.764999866485596,distr,52235.000133514404,Fri Oct 11 2024 14:04:21 GMT-0500 (Central Daylight Time),651718.099999994,B,chr,O,r,281,1,1215.5999999940395,650502.5,7024,WL,C,5.0
6,7.881999969482422,distr,52118.00003051758,Fri Oct 11 2024 14:04:21 GMT-0500 (Central Daylight Time),651835.099999994,B,chri,O,i,111,1,1332.5999999940395,650502.5,7024,WL,C,5.0
6,8.514999866485596,distr,51485.000133514404,Fri Oct 11 2024 14:04:21 GMT-0500 (Central Daylight Time),652468.099999994,B,chris,O,s,618,1,1965.5999999940395,650502.5,7024,WL,C,5.0
6,8.615000009536743,distr,51384.99999046326,Fri Oct 11 2024 14:04:21 GMT-0500 (Central Daylight Time),652568.0,B,christ,O,t,81,1,2065.5,650502.5,7024,WL,C,5.0
6,8.764999866485596,distr,51235.000133514404,Fri Oct 11 2024 14:04:21 GMT-0500 (Central Daylight Time),652718.1999999955,B,christm,O,m,133,1,2215.6999999955297,650502.5,7024,WL,C,5.0
6,8.848999977111816,distr,51151.00002288818,Fri Oct 11 2024 14:04:21 GMT-0500 (Central Daylight Time),652802.299999997,B,christma,O,a,63,1,2299.7999999970198,650502.5,7024,WL,C,5.0
6,9.000999927520752,distr,50999.00007247925,Fri Oct 11 2024 14:04:21 GMT-0500 (Central Daylight Time),652954.8999999985,B,christmas,O,s,148,1,2452.39999999851,650502.5,7024,WL,C,5.0
6,9.164999961853027,distr,50835.00003814697,Fri Oct 11 2024 14:04:21 GMT-0500 (Central Daylight Time),653118.6999999955,B,christmasenter,O,enter,154,1,2616.1999999955297,650502.5,7024,WL,C,5.0
6,9.447999954223633,distr,50552.00004577637,Fri Oct 11 2024 14:04:21 GMT-0500 (Central Daylight Time),653401.099999994,B,m,O,m,261,1,282.0,653119.099999994,7024,WL,C,6.0
6,9.513999938964844,distr,50486.000061035156,Fri Oct 11 2024 14:04:21 GMT-0500 (Central Daylight Time),653467.799999997,B,me,O,e,60,1,348.70000000298023,653119.099999994,7024,WL,C,6.0
6,9.63100004196167,distr,50368.99995803833,Fri Oct 11 2024 14:04:21 GMT-0500 (Central Daylight Time),653584.3999999985,B,mea,O,a,97,1,465.30000000447035,653119.099999994,7024,WL,C,6.0
6,9.780999898910522,distr,50219.00010108948,Fri Oct 11 2024 14:04:21 GMT-0500 (Central Daylight Time),653734.299999997,B,meat,O,t,140,1,615.2000000029802,653119.099999994,7024,WL,C,6.0
6,9.96399998664856,distr,50036.00001335144,Fri Oct 11 2024 14:04:21 GMT-0500 (Central Daylight Time),653917.599999994,B,meatenter,O,enter,174,1,798.5,653119.099999994,7024,WL,C,6.0
6,16.378999948501587,distr,43621.00005149841,Fri Oct 11 2024 14:04:21 GMT-0500 (Central Daylight Time),660332.1999999955,B,h,O,h,6407,1,6414.19999999553,653918.0,7024,WL,C,7.0
6,16.494999885559082,distr,43505.00011444092,Fri Oct 11 2024 14:04:21 GMT-0500 (Central Daylight Time),660448.8999999985,B,ho,O,o,104,1,6530.89999999851,653918.0,7024,WL,C,7.0
6,16.57799983024597,distr,43422.00016975403,Fri Oct 11 2024 14:04:21 GMT-0500 (Central Daylight Time),660532.099999994,B,hot,O,t,68,1,6614.0999999940395,653918.0,7024,WL,C,7.0
6,16.661999940872192,distr,43338.00005912781,Fri Oct 11 2024 14:04:21 GMT-0500 (Central Daylight Time),660615.599999994,B,hote,O,e,73,1,6697.5999999940395,653918.0,7024,WL,C,7.0
6,16.944999933242798,distr,43055.0000667572,Fri Oct 11 2024 14:04:21 GMT-0500 (Central Daylight Time),660898.599999994,B,hotel,O,l,269,1,6980.5999999940395,653918.0,7024,WL,C,7.0
6,17.17799997329712,distr,42822.00002670288,Fri Oct 11 2024 14:04:21 GMT-0500 (Central Daylight Time),661132.0,B,hotelenter,O,enter,218,1,7214.0,653918.0,7024,WL,C,7.0
6,21.09500002861023,distr,38904.99997138977,Fri Oct 11 2024 14:04:21 GMT-0500 (Central Daylight Time),665048.6999999955,B,b,O,b,3905,1,3916.39999999851,661132.299999997,7024,WL,C,8.0
6,21.22699999809265,distr,38773.00000190735,Fri Oct 11 2024 14:04:21 GMT-0500 (Central Daylight Time),665180.799999997,B,bu,O,u,116,1,4048.5,661132.299999997,7024,WL,C,8.0
6,21.359999895095825,distr,38640.000104904175,Fri Oct 11 2024 14:04:21 GMT-0500 (Central Daylight Time),665313.799999997,B,but,O,t,128,1,4181.5,661132.299999997,7024,WL,C,8.0
6,21.509999990463257,distr,38490.00000953674,Fri Oct 11 2024 14:04:21 GMT-0500 (Central Daylight Time),665463.8999999985,B,butt,O,t,131,1,4331.60000000149,661132.299999997,7024,WL,C,8.0
6,21.609999895095825,distr,38390.000104904175,Fri Oct 11 2024 14:04:21 GMT-0500 (Central Daylight Time),665563.8999999985,B,butte,O,e,93,1,4431.60000000149,661132.299999997,7024,WL,C,8.0
6,21.692999839782715,distr,38307.000160217285,Fri Oct 11 2024 14:04:21 GMT-0500 (Central Daylight Time),665647.099999994,B,butter,O,r,65,1,4514.79999999702,661132.299999997,7024,WL,C,8.0
6,21.80999994277954,distr,38190.00005722046,Fri Oct 11 2024 14:04:21 GMT-0500 (Central Daylight Time),665763.8999999985,B,butterenter,O,enter,109,1,4631.60000000149,661132.299999997,7024,WL,C,8.0
6,25.444000005722046,distr,34555.999994277954,Fri Oct 11 2024 14:04:21 GMT-0500 (Central Daylight Time),669397.299999997,B,enter,O,enter,3625,1,3633.0,665764.299999997,7024,WL,C,9.0
6,29.590999841690063,distr,30409.000158309937,Fri Oct 11 2024 14:04:21 GMT-0500 (Central Daylight Time),673544.8999999985,B,enter,O,enter,4127,1,4147.30000000447,669397.599999994,7024,WL,C,10.0
6,30.0239999294281,distr,29976.0000705719,Fri Oct 11 2024 14:04:21 GMT-0500 (Central Daylight Time),673977.799999997,B,enter,O,enter,428,1,432.6000000014901,673545.1999999955,7024,WL,C,11.0
6,30.323999881744385,distr,29676.000118255615,Fri Oct 11 2024 14:04:21 GMT-0500 (Central Daylight Time),674278.0,B,enter,O,enter,291,1,299.90000000596046,673978.099999994,7024,WL,C,12.0
6,30.5239999294281,distr,29476.0000705719,Fri Oct 11 2024 14:04:21 GMT-0500 (Central Daylight Time),674477.799999997,B,enter,O,enter,183,1,199.5,674278.299999997,7024,WL,C,13.0
6,31.256999969482422,distr,28743.000030517578,Fri Oct 11 2024 14:04:21 GMT-0500 (Central Daylight Time),675211.0,B,enter,O,enter,727,1,732.8000000044703,674478.1999999955,7024,WL,C,14.0
6,31.707000017166138,distr,28292.999982833862,Fri Oct 11 2024 14:04:21 GMT-0500 (Central Daylight Time),675660.6999999955,B,enter,O,enter,433,1,449.29999999701977,675211.3999999985,7024,WL,C,15.0
7,0.750999927520752,immed,59249.00007247925,Fri Oct 11 2024 14:04:21 GMT-0500 (Central Daylight Time),691906.6999999955,A,t,O,t,745,1,750.5,691156.1999999955,7024,WL,C,1.0
7,0.9000000953674316,immed,59099.99990463257,Fri Oct 11 2024 14:04:21 GMT-0500 (Central Daylight Time),692055.599999994,A,to,O,o,129,1,899.3999999985099,691156.1999999955,7024,WL,C,1.0
7,1.0,immed,59000.0,Fri Oct 11 2024 14:04:21 GMT-0500 (Central Daylight Time),692155.6999999955,A,tow,O,w,93,1,999.5,691156.1999999955,7024,WL,C,1.0
7,1.0829999446868896,immed,58917.00005531311,Fri Oct 11 2024 14:04:21 GMT-0500 (Central Daylight Time),692239.0,A,towe,O,e,73,1,1082.8000000044703,691156.1999999955,7024,WL,C,1.0
7,1.2000000476837158,immed,58799.999952316284,Fri Oct 11 2024 14:04:21 GMT-0500 (Central Daylight Time),692355.599999994,A,tower,O,r,109,1,1199.3999999985099,691156.1999999955,7024,WL,C,1.0
7,1.6500000953674316,immed,58349.99990463257,Fri Oct 11 2024 14:04:21 GMT-0500 (Central Daylight Time),692805.299999997,A,towerenter,O,enter,433,1,1649.1000000014901,691156.1999999955,7024,WL,C,1.0
7,1.8329999446868896,immed,58167.00005531311,Fri Oct 11 2024 14:04:21 GMT-0500 (Central Daylight Time),692989.0,A,q,O,q,167,1,183.40000000596046,692805.599999994,7024,WL,C,2.0
7,2.0,immed,58000.0,Fri Oct 11 2024 14:04:21 GMT-0500 (Central Daylight Time),693155.1999999955,A,qu,O,u,151,1,349.6000000014901,692805.599999994,7024,WL,C,2.0
7,2.25,immed,57750.0,Fri Oct 11 2024 14:04:21 GMT-0500 (Central Daylight Time),693405.5,A,que,O,e,234,1,599.9000000059605,692805.599999994,7024,WL,C,2.0
7,2.433000087738037,immed,57566.99991226196,Fri Oct 11 2024 14:04:21 GMT-0500 (Central Daylight Time),693588.5,A,quee,O,e,175,1,782.9000000059605,692805.599999994,7024,WL,C,2.0
7,2.5490000247955322,immed,57450.99997520447,Fri Oct 11 2024 14:04:21 GMT-0500 (Central Daylight Time),693705.1999999955,A,queen,O,n,96,1,899.6000000014901,692805.599999994,7024,WL,C,2.0
7,2.865999937057495,immed,57134.000062942505,Fri Oct 11 2024 14:04:21 GMT-0500 (Central Daylight Time),694021.799999997,A,queenenter,O,enter,300,1,1216.2000000029802,692805.599999994,7024,WL,C,2.0
7,3.0829999446868896,immed,56917.00005531311,Fri Oct 11 2024 14:04:21 GMT-0500 (Central Daylight Time),694238.299999997,A,s,O,s,199,1,216.20000000298023,694022.099999994,7024,WL,C,3.0
7,3.4160001277923584,immed,56583.99987220764,Fri Oct 11 2024 14:04:21 GMT-0500 (Central Daylight Time),694571.5,A,su,O,u,326,1,549.4000000059605,694022.099999994,7024,WL,C,3.0
7,3.565999984741211,immed,56434.00001525879,Fri Oct 11 2024 14:04:21 GMT-0500 (Central Daylight Time),694721.3999999985,A,sur,O,r,145,1,699.3000000044703,694022.099999994,7024,WL,C,3.0
7,3.9660000801086426,immed,56033.99991989136,Fri Oct 11 2024 14:04:21 GMT-0500 (Central Daylight Time),695121.1999999955,A,su,O,backspace,395,1,1099.1000000014901,694022.099999994,7024,WL,C,3.0
7,4.0320000648498535,immed,55967.99993515015,Fri Oct 11 2024 14:04:21 GMT-0500 (Central Daylight Time),695188.1999999955,A,sug,O,g,59,1,1166.1000000014901,694022.099999994,7024,WL,C,3.0
7,4.166000127792358,immed,55833.99987220764,Fri Oct 11 2024 14:04:21 GMT-0500 (Central Daylight Time),695321.299999997,A,suga,O,a,128,1,1299.2000000029802,694022.099999994,7024,WL,C,3.0
7,4.265000104904175,immed,55734.999895095825,Fri Oct 11 2024 14:04:21 GMT-0500 (Central Daylight Time),695421.099999994,A,sugar,O,r,83,1,1399.0,694022.099999994,7024,WL,C,3.0
7,4.765000104904175,immed,55234.999895095825,Fri Oct 11 2024 14:04:21 GMT-0500 (Central Daylight Time),695921.099999994,A,sugarenter,O,enter,479,1,1899.0,694022.099999994,7024,WL,C,3.0
7,5.582000017166138,immed,54417.99998283386,Fri Oct 11 2024 14:04:21 GMT-0500 (Central Daylight Time),696737.599999994,A,b,O,b,812,1,816.1999999955297,695921.3999999985,7024,WL,C,4.0
7,5.682000160217285,immed,54317.999839782715,Fri Oct 11 2024 14:04:21 GMT-0500 (Central Daylight Time),696837.3999999985,A,bo,O,o,91,1,916.0,695921.3999999985,7024,WL,C,4.0
7,5.832000017166138,immed,54167.99998283386,Fri Oct 11 2024 14:04:21 GMT-0500 (Central Daylight Time),696987.3999999985,A,boy,O,y,143,1,1066.0,695921.3999999985,7024,WL,C,4.0
7,6.04800009727478,immed,53951.99990272522,Fri Oct 11 2024 14:04:21 GMT-0500 (Central Daylight Time),697204.1999999955,A,boyenter,O,enter,209,1,1282.7999999970198,695921.3999999985,7024,WL,C,4.0
7,6.265000104904175,immed,53734.999895095825,Fri Oct 11 2024 14:04:21 GMT-0500 (Central Daylight Time),697420.599999994,A,h,O,h,201,1,216.09999999403954,697204.5,7024,WL,C,5.0
7,6.3480000495910645,immed,53651.999950408936,Fri Oct 11 2024 14:04:21 GMT-0500 (Central Daylight Time),697504.0,A,ho,O,o,72,1,299.5,697204.5,7024,WL,C,5.0
7,6.482000112533569,immed,53517.99988746643,Fri Oct 11 2024 14:04:21 GMT-0500 (Central Daylight Time),697637.5,A,hom,O,m,125,1,433.0,697204.5,7024,WL,C,5.0
7,6.582000017166138,immed,53417.99998283386,Fri Oct 11 2024 14:04:21 GMT-0500 (Central Daylight Time),697737.599999994,A,home,O,e,79,1,533.0999999940395,697204.5,7024,WL,C,5.0
7,6.79800009727478,immed,53201.99990272522,Fri Oct 11 2024 14:04:21 GMT-0500 (Central Daylight Time),697953.6999999955,A,homeenter,O,enter,211,1,749.1999999955297,697204.5,7024,WL,C,5.0
7,7.38100004196167,immed,52618.99995803833,Fri Oct 11 2024 14:04:21 GMT-0500 (Central Daylight Time),698537.099999994,A,c,O,c,571,1,583.0999999940395,697954.0,7024,WL,C,6.0
7,7.465000152587891,immed,52534.99984741211,Fri Oct 11 2024 14:04:21 GMT-0500 (Central Daylight Time),698620.299999997,A,co,O,o,68,1,666.2999999970198,697954.0,7024,WL,C,6.0
7,7.5980000495910645,immed,52401.999950408936,Fri Oct 11 2024 14:04:21 GMT-0500 (Central Daylight Time),698753.5,A,cor,O,r,113,1,799.5,697954.0,7024,WL,C,6.0
7,7.664000034332275,immed,52335.999965667725,Fri Oct 11 2024 14:04:21 GMT-0500 (Central Daylight Time),698820.1999999955,A,corn,O,n,59,1,866.1999999955297,697954.0,7024,WL,C,6.0
7,7.831000089645386,immed,52168.999910354614,Fri Oct 11 2024 14:04:21 GMT-0500 (Central Daylight Time),698987.0,A,cornenter,O,enter,152,1,1033.0,697954.0,7024,WL,C,6.0
7,8.031000137329102,immed,51968.9998626709,Fri Oct 11 2024 14:04:21 GMT-0500 (Central Daylight Time),699186.6999999955,A,d,O,d,193,1,199.19999999552965,698987.5,7024,WL,C,7.0
7,8.13100004196167,immed,51868.99995803833,Fri Oct 11 2024 14:04:21 GMT-0500 (Central Daylight Time),699286.799999997,A,do,O,o,90,1,299.29999999701977,698987.5,7024,WL,C,7.0
7,8.249000072479248,immed,51750.99992752075,Fri Oct 11 2024 14:04:21 GMT-0500 (Central Daylight Time),699404.5,A,doc,O,c,110,1,417.0,698987.5,7024,WL,C,7.0
7,8.531000137329102,immed,51468.9998626709,Fri Oct 11 2024 14:04:21 GMT-0500 (Central Daylight Time),699686.5,A,doct,O,t,264,1,699.0,698987.5,7024,WL,C,7.0
7,8.69700002670288,immed,51302.99997329712,Fri Oct 11 2024 14:04:21 GMT-0500 (Central Daylight Time),699853.099999994,A,docto,O,o,150,1,865.5999999940395,698987.5,7024,WL,C,7.0
7,9.009000062942505,immed,50990.999937057495,Fri Oct 11 2024 14:04:21 GMT-0500 (Central Daylight Time),700164.6999999955,A,doctoenter,O,enter,307,1,1177.1999999955297,698987.5,7024,WL,C,7.0
7,9.263999938964844,immed,50736.000061035156,Fri Oct 11 2024 14:04:21 GMT-0500 (Central Daylight Time),700419.6999999955,A,l,O,l,240,1,254.79999999701977,700164.8999999985,7024,WL,C,8.0
7,9.897000074386597,immed,50102.9999256134,Fri Oct 11 2024 14:04:21 GMT-0500 (Central Daylight Time),701052.799999997,A,le,O,e,617,1,887.8999999985099,700164.8999999985,7024,WL,C,8.0
7,10.04699993133545,immed,49953.00006866455,Fri Oct 11 2024 14:04:21 GMT-0500 (Central Daylight Time),701202.799999997,A,let,O,t,144,1,1037.8999999985099,700164.8999999985,7024,WL,C,8.0
7,10.246999979019165,immed,49753.000020980835,Fri Oct 11 2024 14:04:21 GMT-0500 (Central Daylight Time),701402.6999999955,A,lett,O,t,186,1,1237.7999999970198,700164.8999999985,7024,WL,C,8.0
7,10.347000122070312,immed,49652.99987792969,Fri Oct 11 2024 14:04:21 GMT-0500 (Central Daylight Time),701502.6999999955,A,lette,O,e,90,1,1337.7999999970198,700164.8999999985,7024,WL,C,8.0
7,10.397000074386597,immed,49602.9999256134,Fri Oct 11 2024 14:04:21 GMT-0500 (Central Daylight Time),701552.6999999955,A,letter,O,r,38,1,1387.7999999970198,700164.8999999985,7024,WL,C,8.0
7,10.79699993133545,immed,49203.00006866455,Fri Oct 11 2024 14:04:21 GMT-0500 (Central Daylight Time),701952.5,A,letterenter,O,enter,388,1,1787.6000000014901,700164.8999999985,7024,WL,C,8.0
7,10.980000019073486,immed,49019.999980926514,Fri Oct 11 2024 14:04:21 GMT-0500 (Central Daylight Time),702136.0,A,f,O,f,172,1,183.10000000149012,701952.8999999985,7024,WL,C,9.0
7,11.115000009536743,immed,48884.99999046326,Fri Oct 11 2024 14:04:21 GMT-0500 (Central Daylight Time),702270.299999997,A,fl,O,l,124,1,317.3999999985099,701952.8999999985,7024,WL,C,9.0
7,11.213000059127808,immed,48786.99994087219,Fri Oct 11 2024 14:04:21 GMT-0500 (Central Daylight Time),702369.1999999955,A,fla,O,a,86,1,416.29999999701977,701952.8999999985,7024,WL,C,9.0
7,11.398000001907349,immed,48601.99999809265,Fri Oct 11 2024 14:04:21 GMT-0500 (Central Daylight Time),702553.5,A,flag,O,g,172,1,600.6000000014901,701952.8999999985,7024,WL,C,9.0
7,12.979000091552734,immed,47020.999908447266,Fri Oct 11 2024 14:04:21 GMT-0500 (Central Daylight Time),704135.0,A,flagenter,O,enter,1563,1,2182.10000000149,701952.8999999985,7024,WL,C,9.0
7,13.17900013923645,immed,46820.99986076355,Fri Oct 11 2024 14:04:21 GMT-0500 (Central Daylight Time),704335.099999994,A,c,O,c,182,1,199.69999999552965,704135.3999999985,7024,WL,C,10.0
7,13.296000003814697,immed,46703.9999961853,Fri Oct 11 2024 14:04:21 GMT-0500 (Central Daylight Time),704451.799999997,A,ca,O,a,102,1,316.3999999985099,704135.3999999985,7024,WL,C,10.0
7,13.413000106811523,immed,46586.99989318848,Fri Oct 11 2024 14:04:21 GMT-0500 (Central Daylight Time),704568.3999999985,A,cam,O,m,105,1,433.0,704135.3999999985,7024,WL,C,10.0
7,13.562999963760376,immed,46437.000036239624,Fri Oct 11 2024 14:04:21 GMT-0500 (Central Daylight Time),704718.299999997,A,camp,O,p,132,1,582.8999999985099,704135.3999999985,7024,WL,C,10.0
7,13.828999996185303,immed,46171.0000038147,Fri Oct 11 2024 14:04:21 GMT-0500 (Central Daylight Time),704985.0,A,campenter,O,enter,254,1,849.6000000014901,704135.3999999985,7024,WL,C,10.0
7,14.04699993133545,immed,45953.00006866455,Fri Oct 11 2024 14:04:21 GMT-0500 (Central Daylight Time),705202.3999999985,A,n,O,n,203,1,217.10000000149012,704985.299999997,7024,WL,C,11.0
7,14.161999940872192,immed,45838.00005912781,Fri Oct 11 2024 14:04:21 GMT-0500 (Central Daylight Time),705317.799999997,A,na,O,a,97,1,332.5,704985.299999997,7024,WL,C,11.0
7,14.245000123977661,immed,45754.99987602234,Fri Oct 11 2024 14:04:21 GMT-0500 (Central Daylight Time),705401.099999994,A,nai,O,i,70,1,415.79999999701977,704985.299999997,7024,WL,C,11.0
7,14.328999996185303,immed,45671.0000038147,Fri Oct 11 2024 14:04:21 GMT-0500 (Central Daylight Time),705484.799999997,A,nail,O,l,67,1,499.5,704985.299999997,7024,WL,C,11.0
7,14.796000003814697,immed,45203.9999961853,Fri Oct 11 2024 14:04:21 GMT-0500 (Central Daylight Time),705951.299999997,A,nailenter,O,enter,448,1,966.0,704985.299999997,7024,WL,C,11.0
7,16.278000116348267,immed,43721.99988365173,Fri Oct 11 2024 14:04:21 GMT-0500 (Central Daylight Time),707434.0,A,b,O,b,1469,1,1482.3000000044703,705951.6999999955,7024,WL,C,12.0
7,16.378000020980835,immed,43621.999979019165,Fri Oct 11 2024 14:04:21 GMT-0500 (Central Daylight Time),707534.0,A,bo,O,o,83,1,1582.3000000044703,705951.6999999955,7024,WL,C,12.0
7,16.528000116348267,immed,43471.99988365173,Fri Oct 11 2024 14:04:21 GMT-0500 (Central Daylight Time),707683.8999999985,A,bod,O,d,135,1,1732.2000000029802,705951.6999999955,7024,WL,C,12.0
7,16.628999948501587,immed,43371.00005149841,Fri Oct 11 2024 14:04:21 GMT-0500 (Central Daylight Time),707784.299999997,A,body,O,y,81,1,1832.6000000014901,705951.6999999955,7024,WL,C,12.0
7,16.82800006866455,immed,43171.99993133545,Fri Oct 11 2024 14:04:21 GMT-0500 (Central Daylight Time),707984.0,A,bodyenter,O,enter,180,1,2032.3000000044703,705951.6999999955,7024,WL,C,12.0
7,16.962000131607056,immed,43037.999868392944,Fri Oct 11 2024 14:04:21 GMT-0500 (Central Daylight Time),708117.3999999985,A,s,O,s,117,1,133.10000000149012,707984.299999997,7024,WL,C,13.0
7,17.061000108718872,immed,42938.99989128113,Fri Oct 11 2024 14:04:21 GMT-0500 (Central Daylight Time),708217.099999994,A,sh,O,h,87,1,232.79999999701977,707984.299999997,7024,WL,C,13.0
7,17.128000020980835,immed,42871.999979019165,Fri Oct 11 2024 14:04:21 GMT-0500 (Central Daylight Time),708284.0,A,sho,O,o,59,1,299.70000000298023,707984.299999997,7024,WL,C,13.0
7,17.261000156402588,immed,42738.99984359741,Fri Oct 11 2024 14:04:21 GMT-0500 (Central Daylight Time),708417.099999994,A,shor,O,r,121,1,432.79999999701977,707984.299999997,7024,WL,C,13.0
7,17.34500002861023,immed,42654.99997138977,Fri Oct 11 2024 14:04:21 GMT-0500 (Central Daylight Time),708500.3999999985,A,shore,O,e,75,1,516.1000000014901,707984.299999997,7024,WL,C,13.0
7,18.92799997329712,immed,41072.00002670288,Fri Oct 11 2024 14:04:21 GMT-0500 (Central Daylight Time),710083.599999994,A,shoreenter,O,enter,1568,1,2099.2999999970198,707984.299999997,7024,WL,C,13.0
7,22.792999982833862,immed,37207.00001716614,Fri Oct 11 2024 14:04:21 GMT-0500 (Central Daylight Time),713948.799999997,A,c,O,c,3857,1,3864.89999999851,710083.8999999985,7024,WL,C,14.0
7,22.89300012588501,immed,37106.99987411499,Fri Oct 11 2024 14:04:21 GMT-0500 (Central Daylight Time),714048.6999999955,A,co,O,o,80,1,3964.7999999970198,710083.8999999985,7024,WL,C,14.0
7,23.026000022888184,immed,36973.99997711182,Fri Oct 11 2024 14:04:21 GMT-0500 (Central Daylight Time),714182.099999994,A,cor,O,r,116,1,4098.19999999553,710083.8999999985,7024,WL,C,14.0
7,23.092999935150146,immed,36907.00006484985,Fri Oct 11 2024 14:04:21 GMT-0500 (Central Daylight Time),714248.6999999955,A,corn,O,n,55,1,4164.79999999702,710083.8999999985,7024,WL,C,14.0
